button_choice,action_choice,coordinate_choice,reward,cumulative_reward,rt,total_trial_time,iti,block_n,trial_n,trial_type
Y,R,"[6, 7]",-2.0,0.0,1.280668020248413,2.9114930629730225,0.6454728455260534,0.0,1.0,0.0
Y,R,"[6, 8]",1.0,1.0,0.2569918632507324,1.9026198387145996,0.6315162056629697,0.0,2.0,0.0
R,U,"[5, 8]",1.0,2.0,0.2349560260772705,1.6213600635528564,0.3865078250404688,0.0,3.0,0.0
B,L,"[5, 7]",1.0,3.0,0.35425496101379395,1.6009490489959717,0.25409662733434024,0.0,4.0,0.0
G,D,"[6, 7]",0.0,3.0,0.33040404319763184,1.6270411014556885,0.2977016598919653,0.0,5.0,0.0
Y,R,"[6, 8]",0.0,3.0,0.2618558406829834,1.932542085647583,0.6633503220018007,0.0,6.0,0.0
R,U,"[5, 8]",0.0,3.0,0.19556498527526855,1.661048173904419,0.45786510977996714,0.0,7.0,0.0
G,D,"[6, 8]",0.0,3.0,0.2344980239868164,1.5374839305877686,0.3121852042904062,0.0,8.0,0.0
B,L,"[6, 7]",0.0,3.0,0.24982404708862305,1.9185729026794434,0.680375013531058,0.0,9.0,0.0
R,U,"[5, 7]",0.0,3.0,0.1803898811340332,1.6555659770965576,0.4694219473137319,0.0,10.0,0.0
,,"(6, 6)",,,,,,,,
B,L,"[6, 5]",0.0,0.0,0.3367650508880615,3.620220184326172,0.6060237531108812,1.0,11.0,0.0
R,U,"[5, 5]",0.0,0.0,0.18516302108764648,1.6831519603729248,0.5059289274064999,1.0,12.0,0.0
Y,R,"[5, 6]",1.0,1.0,0.20308899879455566,1.7574431896209717,0.5632440975145812,1.0,13.0,0.0
Y,R,"[5, 7]",1.0,2.0,0.18639707565307617,1.821012020111084,0.6343381719517334,1.0,14.0,0.0
Y,R,"[5, 8]",1.0,3.0,0.19146084785461426,1.928750991821289,0.7294847107529676,1.0,15.0,0.0
Y,R,"[5, 9]",-1.0,3.0,0.09914398193359375,5.810838937759399,0.6238128706073274,1.0,16.0,0.0
Y,R,"[5, 10]",1.0,4.0,0.31617093086242676,1.9076709747314453,0.5981342607803792,1.0,17.0,0.0
Y,R,"[5, 11]",0.0,4.0,0.24649500846862793,1.5170409679412842,0.265415578290611,1.0,18.0,0.0
B,L,"[5, 10]",0.0,4.0,0.36772799491882324,1.8582818508148193,0.49017336807413653,1.0,19.0,0.0
G,D,"[6, 10]",1.0,5.0,0.2757720947265625,1.7588379383087158,0.4823245680258681,1.0,20.0,0.0
,,"(6, 6)",,,,,,,,
G,D,"[7, 6]",0.0,0.0,0.44008588790893555,3.3873260021209717,0.5694556704299074,2.0,21.0,0.0
R,U,"[6, 6]",0.0,0.0,0.31378602981567383,1.9890499114990234,0.6751684110044913,2.0,22.0,0.0
B,L,"[6, 5]",0.0,0.0,0.2893087863922119,1.6388838291168213,0.3476276828593725,2.0,23.0,0.0
Y,R,"[6, 6]",0.0,0.0,0.3502540588378906,1.915276050567627,0.5626788041892576,2.0,24.0,0.0
R,U,"[5, 6]",1.0,1.0,0.26563405990600586,1.8052639961242676,0.5346406630775846,2.0,25.0,0.0
R,U,"[4, 6]",0.0,1.0,0.23965787887573242,1.9973618984222412,0.7484243519188996,2.0,26.0,0.0
R,U,"[3, 6]",0.0,1.0,0.23265600204467773,1.8847308158874512,0.6498634404359285,2.0,27.0,0.0
G,D,"[4, 6]",0.0,1.0,0.2332298755645752,1.569962978363037,0.3367782913033749,2.0,28.0,0.0
B,L,"[4, 5]",0.0,1.0,0.3785381317138672,1.6563270092010498,0.27648070138283737,2.0,29.0,0.0
G,D,"[5, 5]",0.0,1.0,0.36156320571899414,1.9659059047698975,0.6091067735478564,2.0,30.0,0.0
,,"(6, 6)",,,,,,,,
Y,R,"[6, 7]",0.0,0.0,0.2767751216888428,3.133112907409668,0.4585438333954529,3.0,31.0,0.0
R,U,"[5, 7]",1.0,1.0,0.5815780162811279,1.8877379894256592,0.3129958834813603,3.0,32.0,0.0
R,U,"[4, 7]",0.0,1.0,0.34250307083129883,1.8411059379577637,0.48726713337461314,3.0,33.0,0.0
R,U,"[3, 7]",0.0,1.0,0.2561628818511963,1.9037270545959473,0.6407845647901471,3.0,34.0,0.0
G,D,"[4, 7]",0.0,1.0,0.19419097900390625,1.6187729835510254,0.4265129759067093,3.0,35.0,0.0
B,L,"[4, 6]",0.0,1.0,0.33349084854125977,1.6985609531402588,0.37510558395694116,3.0,36.0,0.0
Y,R,"[4, 7]",0.0,1.0,0.2745051383972168,1.606058120727539,0.33120876853527614,3.0,37.0,0.0
R,U,"[3, 7]",0.0,1.0,0.31288886070251465,1.9168031215667725,0.597709766165633,3.0,38.0,0.0
G,D,"[4, 7]",0.0,1.0,0.18611693382263184,1.8202390670776367,0.6344427312124463,3.0,39.0,0.0
B,L,"[4, 6]",0.0,1.0,0.22966885566711426,1.8271839618682861,0.5950969056377431,3.0,40.0,0.0
,,"(6, 6)",,,,,,,,
Y,R,"[6, 7]",0.0,0.0,0.4175069332122803,3.4046030044555664,0.6828606728909477,4.0,41.0,0.0
G,D,"[7, 7]",0.0,0.0,0.24614405632019043,1.719994068145752,0.46971829488000966,4.0,42.0,0.0
Y,R,"[7, 8]",-2.0,0.0,1.5963749885559082,3.3002800941467285,0.7362170561936034,4.0,43.0,0.0
Y,R,"[7, 9]",0.0,0.0,0.3894929885864258,2.0978310108184814,0.7174982219165986,4.0,44.0,0.0
B,L,"[7, 8]",0.0,0.0,0.24431490898132324,1.874722957611084,0.6255004992542598,4.0,45.0,0.0
G,D,"[8, 8]",0.0,0.0,0.21182608604431152,1.6892101764678955,0.4815954762035573,4.0,46.0,0.0
R,U,"[7, 8]",0.0,0.0,0.24461007118225098,1.9132249355316162,0.6612624050228713,4.0,47.0,0.0
B,L,"[7, 7]",0.0,0.0,0.19864606857299805,1.5148069858551025,0.32641574294341796,4.0,48.0,0.0
G,D,"[8, 7]",0.0,0.0,0.3009810447692871,1.8176491260528564,0.5270933726137618,4.0,49.0,0.0
Y,R,"[8, 8]",0.0,0.0,0.16935300827026367,1.892336130142212,0.735854880301964,4.0,50.0,0.0
,,"(6, 6)",,,,,,,,
G,D,"[7, 6]",0.0,0.0,0.2712700366973877,3.1408729553222656,0.6934525971626855,5.0,51.0,0.0
R,U,"[6, 6]",0.0,0.0,0.20490288734436035,1.5068578720092773,0.31734364486261485,5.0,52.0,0.0
B,L,"[6, 5]",0.0,0.0,0.2502479553222656,1.9111738204956055,0.6614476724664433,5.0,53.0,0.0
Y,R,"[6, 6]",0.0,0.0,0.17044782638549805,1.7306649684906006,0.5755361709938354,5.0,54.0,0.0
G,D,"[7, 6]",0.0,0.0,0.2448868751525879,1.6297948360443115,0.38875283544500816,5.0,55.0,0.0
R,U,"[6, 6]",0.0,0.0,0.3186361789703369,1.7179667949676514,0.40682488694711105,5.0,56.0,0.0
B,L,"[6, 5]",0.0,0.0,0.25515007972717285,1.9037799835205078,0.6602678107191867,5.0,57.0,0.0
Y,R,"[6, 6]",0.0,0.0,0.32480311393737793,1.5873548984527588,0.26454224302259965,5.0,58.0,0.0
R,U,"[5, 6]",1.0,1.0,0.2728588581085205,1.6889421939849854,0.40342776322308066,5.0,59.0,0.0
R,U,"[4, 6]",0.0,1.0,0.23087787628173828,1.7280781269073486,0.4980179528253616,5.0,60.0,0.0
,,"(6, 6)",,,,,,,,
G,D,"[7, 6]",0.0,0.0,0.269852876663208,2.9636290073394775,0.5782385216437809,6.0,61.0,0.0
B,L,"[7, 5]",0.0,0.0,0.21734189987182617,1.503870964050293,0.2989131079690384,6.0,62.0,0.0
Y,R,"[7, 6]",0.0,0.0,0.2754180431365967,1.9192368984222412,0.6344513294068761,6.0,63.0,0.0
R,U,"[6, 6]",0.0,0.0,0.2278139591217041,1.9737370014190674,0.74170911542266,6.0,64.0,0.0
B,L,"[6, 5]",0.0,0.0,0.25403714179992676,1.6746330261230469,0.43295067601083537,6.0,65.0,0.0
G,D,"[7, 5]",0.0,0.0,0.2916748523712158,1.6116387844085693,0.3113643571031311,6.0,66.0,0.0
Y,R,"[7, 6]",0.0,0.0,0.34871792793273926,1.8453569412231445,0.506605316983448,6.0,67.0,0.0
B,L,"[7, 5]",0.0,0.0,0.35471391677856445,2.0382018089294434,0.6945645948963386,6.0,68.0,0.0
G,D,"[8, 5]",0.0,0.0,0.28032803535461426,1.7054550647735596,0.4336153566006213,6.0,69.0,0.0
Y,R,"[8, 6]",0.0,0.0,0.32221293449401855,2.0263140201568604,0.6927999156349792,6.0,70.0,0.0
,,"(6, 6)",,,,,,,,
R,U,"[5, 6]",1.0,1.0,0.49515700340270996,3.2824981212615967,0.7253391307482273,7.0,71.0,0.0
R,U,"[4, 6]",0.0,1.0,0.19965696334838867,1.8956291675567627,0.7043370929020252,7.0,72.0,0.0
G,D,"[5, 6]",0.0,1.0,0.20241284370422363,1.8234679698944092,0.6278466134992207,7.0,73.0,0.0
B,L,"[5, 5]",0.0,1.0,0.19794297218322754,1.7166659832000732,0.5279078188470588,7.0,74.0,0.0
Y,R,"[5, 6]",0.0,1.0,0.28424596786499023,1.7499589920043945,0.4777311237141519,7.0,75.0,0.0
R,U,"[4, 6]",0.0,1.0,0.3981771469116211,2.0050201416015625,0.6159915826928233,7.0,76.0,0.0
G,D,"[5, 6]",0.0,1.0,0.26874494552612305,1.7358920574188232,0.46861201607993513,7.0,77.0,0.0
B,L,"[5, 5]",0.0,1.0,0.2462139129638672,1.7770519256591797,0.5289990272181329,7.0,78.0,0.0
Y,R,"[5, 6]",0.0,1.0,0.27187681198120117,1.5388679504394531,0.25150507394249844,7.0,79.0,0.0
R,U,"[4, 6]",0.0,1.0,0.3646731376647949,1.891016960144043,0.5257955073432219,7.0,80.0,0.0
,,"(6, 6)",,,,,,,,
B,L,"[6, 5]",0.0,0.0,0.42408084869384766,2.8809328079223633,0.3232696595212882,8.0,81.0,0.0
G,D,"[7, 5]",0.0,0.0,0.38086795806884766,1.7347350120544434,0.35797182725655485,8.0,82.0,0.0
Y,R,"[7, 6]",0.0,0.0,0.27651095390319824,1.7656099796295166,0.49011245873965675,8.0,83.0,0.0
R,U,"[6, 6]",0.0,0.0,0.27977991104125977,1.6336171627044678,0.35711805553100456,8.0,84.0,0.0
B,L,"[6, 5]",0.0,0.0,0.3266010284423828,1.6420650482177734,0.31590162816349715,8.0,85.0,0.0
G,D,"[7, 5]",0.0,0.0,0.3024790287017822,1.7052719593048096,0.4043759376021001,8.0,86.0,0.0
Y,R,"[7, 6]",0.0,0.0,0.2687699794769287,1.5976130962371826,0.335252636121547,8.0,87.0,0.0
R,U,"[6, 6]",0.0,0.0,0.34543395042419434,1.767266035079956,0.41921438524211696,8.0,88.0,0.0
Y,R,"[6, 7]",0.0,0.0,0.30707693099975586,1.5991921424865723,0.28516115184063434,8.0,89.0,0.0
G,D,"[7, 7]",0.0,0.0,0.25972914695739746,1.6984050273895264,0.4333910847305609,8.0,90.0,0.0
,,"(6, 6)",,,,,,,,
R,U,"[5, 6]",1.0,1.0,0.17670798301696777,2.7882609367370605,0.5215134807446358,9.0,91.0,0.0
Y,R,"[5, 7]",1.0,2.0,0.2515289783477783,1.605654001235962,0.36060750683469045,9.0,92.0,0.0
G,D,"[6, 7]",0.0,2.0,0.27971792221069336,1.9930670261383057,0.7198979079040052,9.0,93.0,0.0
B,L,"[6, 6]",0.0,2.0,0.20939898490905762,1.7154128551483154,0.5022591835247341,9.0,94.0,0.0
R,U,"[5, 6]",0.0,2.0,0.26995301246643066,1.8050878047943115,0.5406524155141754,9.0,95.0,0.0
Y,R,"[5, 7]",0.0,2.0,0.2529420852661133,1.9911630153656006,0.7481008304238828,9.0,96.0,0.0
G,D,"[6, 7]",-1.0,2.0,0.09479212760925293,5.8691630363464355,0.6838842164184795,9.0,97.0,0.0
B,L,"[6, 6]",0.0,2.0,0.3079860210418701,1.5922629833221436,0.2765300445152696,9.0,98.0,0.0
G,D,"[7, 6]",0.0,2.0,0.3547661304473877,1.6789829730987549,0.33883966769179297,9.0,99.0,0.0
Y,R,"[7, 7]",0.0,2.0,0.3434300422668457,2.0224997997283936,0.6776263101934223,9.0,100.0,0.0
,,"(6, 6)",,,,,,,,
R,U,"[5, 6]",1.0,1.0,0.3927469253540039,3.1854138374328613,0.5297803724535743,10.0,101.0,0.0
Y,R,"[5, 7]",1.0,2.0,0.2605311870574951,1.7979791164398193,0.5278376521242294,10.0,102.0,0.0
B,L,"[5, 6]",0.0,2.0,0.2562589645385742,1.5976588726043701,0.34224436201158964,10.0,103.0,0.0
G,D,"[6, 6]",0.0,2.0,0.36329102516174316,1.9725680351257324,0.6145286448884949,10.0,104.0,0.0
Y,R,"[6, 7]",0.0,2.0,0.2618529796600342,1.849057912826538,0.5801657117424638,10.0,105.0,0.0
G,D,"[7, 7]",0.0,2.0,0.2648589611053467,1.6353380680084229,0.3657326660798059,10.0,106.0,0.0
R,U,"[6, 7]",0.0,2.0,0.2865290641784668,1.6388239860534668,0.354537298438691,10.0,107.0,0.0
Y,R,"[6, 8]",1.0,3.0,0.3544149398803711,1.7567150592803955,0.41107947042262116,10.0,108.0,0.0
Y,R,"[6, 9]",1.0,4.0,0.2861511707305908,1.7163429260253906,0.4441454655852678,10.0,109.0,0.0
Y,R,"[6, 10]",1.0,5.0,0.23946285247802734,1.8446071147918701,0.6052112136897179,10.0,110.0,0.0
,,"(6, 6)",,,,,,,,
R,U,"[5, 6]",1.0,1.0,0.3202979564666748,2.9643759727478027,0.4029882922279448,11.0,111.0,0.0
R,U,"[4, 6]",0.0,1.0,0.21069812774658203,1.8942639827728271,0.6803999688236879,11.0,112.0,0.0
G,D,"[5, 6]",0.0,1.0,0.26226091384887695,1.7282910346984863,0.45889216718525805,11.0,113.0,0.0
Y,R,"[5, 7]",1.0,2.0,0.23010015487670898,1.547255039215088,0.3229707285549613,11.0,114.0,0.0
Y,R,"[5, 8]",1.0,3.0,0.2500641345977783,1.793410062789917,0.5493949486505292,11.0,115.0,0.0
Y,R,"[5, 9]",0.0,3.0,0.17523694038391113,1.8642001152038574,0.6800817330222403,11.0,116.0,0.0
B,L,"[5, 8]",0.0,3.0,0.17298412322998047,1.5936188697814941,0.42392590548256953,11.0,117.0,0.0
G,D,"[6, 8]",1.0,4.0,0.1991438865661621,1.5604588985443115,0.36778695094349617,11.0,118.0,0.0
G,D,"[7, 8]",0.0,4.0,0.24944519996643066,1.707655906677246,0.4586632063784464,11.0,119.0,0.0
G,D,"[8, 8]",0.0,4.0,0.17534708976745605,1.8907759189605713,0.7156893441998246,11.0,120.0,0.0
,,"(6, 6)",,,,,,,,
R,U,"[5, 6]",1.0,1.0,0.4370150566101074,3.166682004928589,0.6491314922860527,12.0,121.0,0.0
Y,R,"[5, 7]",1.0,2.0,0.17267298698425293,1.4778800010681152,0.29400458874501617,12.0,122.0,0.0
Y,R,"[5, 8]",1.0,3.0,0.34894800186157227,1.7362220287322998,0.39677327122573613,12.0,123.0,0.0
Y,R,"[5, 9]",0.0,3.0,0.24637985229492188,1.710280179977417,0.45697006633529613,12.0,124.0,0.0
R,U,"[4, 9]",1.0,4.0,0.2759261131286621,1.8651649951934814,0.5886259279095729,12.0,125.0,0.0
B,L,"[4, 8]",0.0,4.0,0.18831896781921387,1.76491117477417,0.5869609020077957,12.0,126.0,0.0
G,D,"[5, 8]",0.0,4.0,0.17836403846740723,1.8910610675811768,0.7110065157617511,12.0,127.0,0.0
R,U,"[4, 8]",-1.0,4.0,0.0497899055480957,5.817224979400635,0.7119842549771626,12.0,128.0,0.0
G,D,"[5, 8]",0.0,4.0,0.27051496505737305,1.7912709712982178,0.5362780313304674,12.0,129.0,0.0
R,U,"[4, 8]",0.0,4.0,0.19649887084960938,1.4488670825958252,0.2520095594394806,12.0,130.0,0.0
,,"(6, 6)",,,,,,,,
R,U,"[5, 6]",1.0,1.0,0.5014581680297852,3.512079954147339,0.6803206315772745,13.0,131.0,0.0
Y,R,"[5, 7]",1.0,2.0,0.19482898712158203,1.5758469104766846,0.37316330652168916,13.0,132.0,0.0
Y,R,"[5, 8]",1.0,3.0,0.3261120319366455,1.7002708911895752,0.3733804597757097,13.0,133.0,0.0
B,L,"[5, 7]",0.0,3.0,0.3381009101867676,1.6104068756103516,0.2838018442095052,13.0,134.0,0.0
R,U,"[4, 7]",0.0,3.0,0.33048510551452637,1.605302095413208,0.2724227098040088,13.0,135.0,0.0
G,D,"[5, 7]",0.0,3.0,0.292402982711792,1.9424810409545898,0.6477996984885099,13.0,136.0,0.0
B,L,"[5, 6]",0.0,3.0,0.18241596221923828,1.4379940032958984,0.2528283879469678,13.0,137.0,0.0
R,U,"[4, 6]",0.0,3.0,0.3320329189300537,1.9680659770965576,0.6371934439006288,13.0,138.0,0.0
Y,R,"[4, 7]",0.0,3.0,0.20345497131347656,1.7004849910736084,0.5044811652397795,13.0,139.0,0.0
B,L,"[4, 6]",0.0,3.0,0.22539901733398438,1.6961939334869385,0.4673557081895768,13.0,140.0,0.0
,,"(6, 6)",,,,,,,,
R,U,"[5, 6]",1.0,1.0,0.4384191036224365,3.4144339561462402,0.7148460369612623,14.0,141.0,0.0
Y,R,"[5, 7]",1.0,2.0,0.20273303985595703,1.5482430458068848,0.3466988881773122,14.0,142.0,0.0
Y,R,"[5, 8]",1.0,3.0,0.3009068965911865,1.899557113647461,0.5959973247697675,14.0,143.0,0.0
G,D,"[6, 8]",1.0,4.0,0.2566649913787842,1.6341848373413086,0.36372618401550844,14.0,144.0,0.0
G,D,"[7, 8]",0.0,4.0,0.28630518913269043,1.9958770275115967,0.7092395150117524,14.0,145.0,0.0
B,L,"[7, 7]",0.0,4.0,0.16990399360656738,1.7080740928649902,0.5507666772962573,14.0,146.0,0.0
Y,R,"[7, 8]",0.0,4.0,0.16031098365783691,1.894129991531372,0.7280243772579441,14.0,147.0,0.0
R,U,"[6, 8]",0.0,4.0,0.19593286514282227,1.6033148765563965,0.4149616814656269,14.0,148.0,0.0
G,D,"[7, 8]",0.0,4.0,0.29227590560913086,1.8217628002166748,0.5198548581705482,14.0,149.0,0.0
B,L,"[7, 7]",0.0,4.0,0.2156059741973877,1.8002500534057617,0.5866189524514167,14.0,150.0,0.0
,,"(6, 6)",,,,,,,,
R,U,"[5, 6]",1.0,1.0,0.6474909782409668,3.2938449382781982,0.3973081683875491,15.0,151.0,0.0
Y,R,"[5, 7]",1.0,2.0,0.2496628761291504,1.658141851425171,0.4054156234777311,15.0,152.0,0.0
G,D,"[6, 7]",0.0,2.0,0.2557530403137207,1.5537469387054443,0.29258124112020145,15.0,153.0,0.0
R,U,"[5, 7]",0.0,2.0,0.3445429801940918,1.8192110061645508,0.47817985775571364,15.0,154.0,0.0
B,L,"[5, 6]",0.0,2.0,0.18557405471801758,1.8576910495758057,0.6857688888227413,15.0,155.0,0.0
Y,R,"[5, 7]",0.0,2.0,0.19119906425476074,1.456031084060669,0.25872657616359684,15.0,156.0,0.0
G,D,"[6, 7]",0.0,2.0,0.3380451202392578,1.640355110168457,0.3157155702732678,15.0,157.0,0.0
R,U,"[5, 7]",0.0,2.0,0.2964301109313965,1.6046950817108154,0.303745530843138,15.0,158.0,0.0
B,L,"[5, 6]",0.0,2.0,0.2743518352508545,1.5674781799316406,0.287898775097152,15.0,159.0,0.0
R,U,"[4, 6]",0.0,2.0,0.29173994064331055,1.9213361740112305,0.6255643232660046,15.0,160.0,0.0
,,"(6, 6)",,,,,,,,
R,U,"[5, 6]",1.0,1.0,0.33572816848754883,2.9350249767303467,0.32748112467198365,16.0,161.0,0.0
Y,R,"[5, 7]",1.0,2.0,0.2574961185455322,1.636193037033081,0.3801728069003289,16.0,162.0,0.0
Y,R,"[5, 8]",1.0,3.0,0.2404041290283203,1.653144121170044,0.3998784610373706,16.0,163.0,0.0
G,D,"[6, 8]",1.0,4.0,0.25339794158935547,1.636780023574829,0.38667522875847793,16.0,164.0,0.0
B,L,"[6, 7]",0.0,4.0,0.2710840702056885,1.5197970867156982,0.2567049689267371,16.0,165.0,0.0
R,U,"[5, 7]",0.0,4.0,0.390366792678833,2.104146957397461,0.7106240460203985,16.0,166.0,0.0
Y,R,"[5, 8]",-1.0,4.0,0.025902986526489258,5.487202167510986,0.4142872395240925,16.0,167.0,0.0
B,L,"[5, 7]",0.0,4.0,0.3713810443878174,1.745556116104126,0.35996477719337683,16.0,168.0,0.0
Y,R,"[5, 8]",0.0,4.0,0.28794002532958984,1.991225004196167,0.7174806279582902,16.0,169.0,0.0
G,D,"[6, 8]",0.0,4.0,0.38094496726989746,1.7134170532226562,0.331204965918385,16.0,170.0,0.0
,,"(6, 6)",,,,,,,,
R,U,"[5, 6]",1.0,1.0,0.3692200183868408,3.456281900405884,0.620507240387339,17.0,171.0,0.0
Y,R,"[5, 7]",1.0,2.0,0.21431708335876465,1.6845130920410156,0.4717675723720431,17.0,172.0,0.0
Y,R,"[5, 8]",1.0,3.0,0.2069249153137207,1.7783770561218262,0.5667231619053572,17.0,173.0,0.0
G,D,"[6, 8]",1.0,4.0,0.23062705993652344,1.6331448554992676,0.4000360311495474,17.0,174.0,0.0
R,U,"[5, 8]",0.0,4.0,0.31125307083129883,1.8253669738769531,0.5085549326709179,17.0,175.0,0.0
B,L,"[5, 7]",0.0,4.0,0.27953290939331055,1.7560551166534424,0.4812356660449093,17.0,176.0,0.0
Y,R,"[5, 8]",0.0,4.0,0.11487913131713867,1.4432270526885986,0.3244950690468036,17.0,177.0,0.0
G,D,"[6, 8]",0.0,4.0,0.30854201316833496,1.9270398616790771,0.6180004013528131,17.0,178.0,0.0
R,U,"[5, 8]",-1.0,4.0,0.041780948638916016,5.36874794960022,0.2702009672101627,17.0,179.0,0.0
Y,R,"[5, 9]",0.0,4.0,0.5565190315246582,2.256343126296997,0.6928758539998892,17.0,180.0,0.0
,,"(6, 6)",,,,,,,,
R,U,"[5, 6]",1.0,1.0,0.3755338191986084,3.0455710887908936,0.5219283109839914,18.0,181.0,0.0
Y,R,"[5, 7]",1.0,2.0,0.20200681686401367,1.9362661838531494,0.7412391588672274,18.0,182.0,0.0
Y,R,"[5, 8]",1.0,3.0,0.15706300735473633,1.7573959827423096,0.6154271683421849,18.0,183.0,0.0
G,D,"[6, 8]",1.0,4.0,0.2304220199584961,1.9323780536651611,0.6976468721192939,18.0,184.0,0.0
B,L,"[6, 7]",0.0,4.0,0.15906190872192383,1.810737133026123,0.6418346659921681,18.0,185.0,0.0
Y,R,"[6, 8]",0.0,4.0,0.11808300018310547,1.4605109691619873,0.35254776343882016,18.0,186.0,0.0
G,D,"[7, 8]",0.0,4.0,0.47945404052734375,1.8394830226898193,0.358770329306372,18.0,187.0,0.0
R,U,"[6, 8]",0.0,4.0,0.3560209274291992,2.041748046875,0.6838287347452836,18.0,188.0,0.0
Y,R,"[6, 9]",1.0,5.0,0.20204710960388184,1.4713900089263916,0.27169306308213065,18.0,189.0,0.0
B,L,"[6, 8]",0.0,5.0,0.290194034576416,1.9576361179351807,0.6622429271101391,18.0,190.0,0.0
,,"(6, 6)",,,,,,,,
R,U,"[5, 6]",1.0,1.0,0.4768650531768799,3.384700059890747,0.6469877467260948,19.0,191.0,0.0
Y,R,"[5, 7]",1.0,2.0,0.20835494995117188,1.77903413772583,0.5593208816549486,19.0,192.0,0.0
Y,R,"[5, 8]",1.0,3.0,0.16869401931762695,1.815263032913208,0.6577314308130615,19.0,193.0,0.0
G,D,"[6, 8]",1.0,4.0,0.20290207862854004,1.8698959350585938,0.6776771291640779,19.0,194.0,0.0
G,D,"[7, 8]",0.0,4.0,0.18330907821655273,1.7183990478515625,0.546120137387574,19.0,195.0,0.0
B,L,"[7, 7]",0.0,4.0,0.29993605613708496,1.8788740634918213,0.5749664418963605,19.0,196.0,0.0
Y,R,"[7, 8]",0.0,4.0,0.18925690650939941,1.719174861907959,0.5275573200543883,19.0,197.0,0.0
R,U,"[6, 8]",0.0,4.0,0.22564315795898438,1.6372668743133545,0.414871199664735,19.0,198.0,0.0
B,L,"[6, 7]",0.0,4.0,0.22158384323120117,1.4889049530029297,0.2705661177654234,19.0,199.0,0.0
G,D,"[7, 7]",0.0,4.0,0.29422998428344727,1.953333854675293,0.6567859642108852,19.0,200.0,0.0
,,"(6, 6)",,,,,,,,
R,U,"[5, 6]",1.0,1.0,0.529041051864624,2.935288906097412,0.32560162910707163,20.0,201.0,0.0
Y,R,"[5, 7]",1.0,2.0,0.24679803848266602,1.6049728393554688,0.3639434095944469,20.0,202.0,0.0
Y,R,"[5, 8]",1.0,3.0,0.11517810821533203,1.7085840702056885,0.5889586385911827,20.0,203.0,0.0
G,D,"[6, 8]",1.0,4.0,0.20145082473754883,1.9227399826049805,0.7285699195512036,20.0,204.0,0.0
R,U,"[5, 8]",0.0,4.0,0.20079803466796875,1.667802095413208,0.47973193269278774,20.0,205.0,0.0
B,L,"[5, 7]",0.0,4.0,0.21843409538269043,1.4830999374389648,0.2627282447899871,20.0,206.0,0.0
G,D,"[6, 7]",0.0,4.0,0.31894397735595703,1.992475986480713,0.6715536104478855,20.0,207.0,0.0
R,U,"[5, 7]",-1.0,4.0,0.09650206565856934,5.461138963699341,0.29959093996234,20.0,208.0,0.0
Y,R,"[5, 8]",0.0,4.0,0.2557799816131592,1.8277931213378906,0.5770894754313709,20.0,209.0,0.0
B,L,"[5, 7]",0.0,4.0,0.309995174407959,1.627255916595459,0.32113537594001923,20.0,210.0,0.0
,,"(6, 6)",,,,,,,,
R,U,"[5, 6]",1.0,1.0,0.6552050113677979,3.2100510597229004,0.2978926270941212,21.0,211.0,0.0
Y,R,"[5, 7]",1.0,2.0,0.3180229663848877,1.5768229961395264,0.25805906588014155,21.0,212.0,0.0
Y,R,"[5, 8]",1.0,3.0,0.30458712577819824,1.6077430248260498,0.29899583496557214,21.0,213.0,0.0
G,D,"[6, 8]",1.0,4.0,0.33771610260009766,1.6793088912963867,0.3449677298801293,21.0,214.0,0.0
Y,R,"[6, 9]",1.0,5.0,0.2732419967651367,1.9017760753631592,0.6296703491931979,21.0,215.0,0.0
B,L,"[6, 8]",-1.0,5.0,0.057730913162231445,5.78735089302063,0.6503022422683458,21.0,216.0,0.0
G,D,"[7, 8]",0.0,5.0,0.24293208122253418,1.910106897354126,0.6607332055755055,21.0,217.0,0.0
B,L,"[7, 7]",0.0,5.0,0.2252209186553955,1.6761229038238525,0.4535301591288773,21.0,218.0,0.0
G,D,"[8, 7]",0.0,5.0,0.3029899597167969,1.568897008895874,0.27231460163469584,21.0,219.0,0.0
B,L,"[8, 6]",0.0,5.0,0.32397913932800293,2.0411908626556396,0.7130343906138693,21.0,220.0,0.0
,,"(6, 6)",,,,,,,,
R,U,"[5, 6]",1.0,1.0,0.44269394874572754,3.251326084136963,0.5145540380756677,22.0,221.0,0.0
Y,R,"[5, 7]",1.0,2.0,0.2224748134613037,1.4847760200500488,0.2660839580473112,22.0,222.0,0.0
Y,R,"[5, 8]",1.0,3.0,0.39275288581848145,1.844836950302124,0.4442066420434693,22.0,223.0,0.0
G,D,"[6, 8]",1.0,4.0,0.3112068176269531,1.8585410118103027,0.5525127551644737,22.0,224.0,0.0
Y,R,"[6, 9]",1.0,5.0,0.25356578826904297,1.9558379650115967,0.708217981611416,22.0,225.0,0.0
Y,R,"[6, 10]",1.0,6.0,0.1585378646850586,1.8824551105499268,0.7240707378070323,22.0,226.0,0.0
B,L,"[6, 9]",0.0,6.0,0.16511082649230957,1.8549199104309082,0.6955313120528571,22.0,227.0,0.0
G,D,"[7, 9]",0.0,6.0,0.17345190048217773,1.6599228382110596,0.4723280419378798,22.0,228.0,0.0
R,U,"[6, 9]",0.0,6.0,0.36948299407958984,1.654627799987793,0.2937754193903269,22.0,229.0,0.0
B,L,"[6, 8]",0.0,6.0,0.4334452152252197,1.9816269874572754,0.5583340564374267,22.0,230.0,0.0
,,"(6, 6)",,,,,,,,
R,U,"[5, 6]",1.0,1.0,0.5084381103515625,3.544551134109497,0.5529250308151588,23.0,231.0,0.0
Y,R,"[5, 7]",1.0,2.0,0.21710705757141113,1.7192158699035645,0.5055099993550765,23.0,232.0,0.0
Y,R,"[5, 8]",1.0,3.0,0.24438905715942383,1.6695380210876465,0.4250585215850109,23.0,233.0,0.0
G,D,"[6, 8]",1.0,4.0,0.27773404121398926,1.7127110958099365,0.43761942602646176,23.0,234.0,0.0
Y,R,"[6, 9]",1.0,5.0,0.2730751037597656,1.8563570976257324,0.5772037636681889,23.0,235.0,0.0
Y,R,"[6, 10]",1.0,6.0,0.16004586219787598,1.4151771068572998,0.25931991658319997,23.0,236.0,0.0
B,L,"[6, 9]",0.0,6.0,0.38558316230773926,1.9123270511627197,0.5380471047599484,23.0,237.0,0.0
G,D,"[7, 9]",0.0,6.0,0.32291102409362793,1.7305951118469238,0.4020535871816884,23.0,238.0,0.0
R,U,"[6, 9]",0.0,6.0,0.29633188247680664,1.9958300590515137,0.6975829799334721,23.0,239.0,0.0
B,L,"[6, 8]",0.0,6.0,0.19235587120056152,1.8799731731414795,0.6775275554930418,23.0,240.0,0.0
,,"(6, 6)",,,,,,,,
R,U,"[5, 6]",1.0,1.0,0.5265200138092041,3.0382819175720215,0.33280451436944763,24.0,241.0,0.0
Y,R,"[5, 7]",1.0,2.0,0.2689170837402344,1.6595120429992676,0.39219490745938435,24.0,242.0,0.0
Y,R,"[5, 8]",1.0,3.0,0.2528409957885742,1.8480010032653809,0.6065309080529699,24.0,243.0,0.0
G,D,"[6, 8]",1.0,4.0,0.2398359775543213,1.714493989944458,0.4711838913773585,24.0,244.0,0.0
Y,R,"[6, 9]",1.0,5.0,0.2897639274597168,1.913011074066162,0.6173412885275769,24.0,245.0,0.0
Y,R,"[6, 10]",1.0,6.0,0.13934612274169922,1.5391740798950195,0.4067476504437347,24.0,246.0,0.0
G,D,"[7, 10]",0.0,6.0,0.3249521255493164,1.6314969062805176,0.30498381038830247,24.0,247.0,0.0
B,L,"[7, 9]",0.0,6.0,0.37656211853027344,1.7501130104064941,0.3716932499503894,24.0,248.0,0.0
R,U,"[6, 9]",0.0,6.0,0.2884671688079834,1.619624137878418,0.34130561795867786,24.0,249.0,0.0
Y,R,"[6, 10]",0.0,6.0,0.25185203552246094,1.6541950702667236,0.41201888602888487,24.0,250.0,0.0
,,"(6, 6)",,,,,,,,
R,U,"[5, 6]",1.0,1.0,0.49597597122192383,2.7887630462646484,0.25096194312941783,25.0,251.0,0.0
Y,R,"[5, 7]",1.0,2.0,0.28688788414001465,1.9351649284362793,0.6522941136115094,25.0,252.0,0.0
Y,R,"[5, 8]",1.0,3.0,0.10550594329833984,1.3847441673278809,0.2873889972471168,25.0,253.0,0.0
G,D,"[6, 8]",1.0,4.0,0.3951380252838135,1.934041976928711,0.5377184013617969,25.0,254.0,0.0
Y,R,"[6, 9]",1.0,5.0,0.19066405296325684,1.6401679515838623,0.4446868198205025,25.0,255.0,0.0
Y,R,"[6, 10]",1.0,6.0,0.21888995170593262,1.4910190105438232,0.28586981501891795,25.0,256.0,0.0
R,U,"[5, 10]",1.0,7.0,0.4034750461578369,1.9665238857269287,0.5687425059156284,25.0,257.0,0.0
G,D,"[6, 10]",0.0,7.0,0.2427830696105957,1.6854779720306396,0.43762223232107,25.0,258.0,0.0
B,L,"[6, 9]",0.0,7.0,0.3184490203857422,1.960886001586914,0.6481531798089087,25.0,259.0,0.0
Y,R,"[6, 10]",0.0,7.0,0.1537630558013916,1.730936050415039,0.579289073845127,25.0,260.0,0.0
,,"(6, 6)",,,,,,,,
R,U,"[5, 6]",1.0,1.0,0.4930119514465332,2.928637981414795,0.3412192727246442,26.0,261.0,0.0
Y,R,"[5, 7]",1.0,2.0,0.313709020614624,1.8903498649597168,0.5817642560920712,26.0,262.0,0.0
Y,R,"[5, 8]",1.0,3.0,0.20085406303405762,1.817288875579834,0.6152426715692759,26.0,263.0,0.0
G,D,"[6, 8]",1.0,4.0,0.21702814102172852,1.8004679679870605,0.5824177163852531,26.0,264.0,0.0
Y,R,"[6, 9]",1.0,5.0,0.22707414627075195,1.7421340942382812,0.5083108236449418,26.0,265.0,0.0
Y,R,"[6, 10]",1.0,6.0,0.21171188354492188,1.5765440464019775,0.36796155203905406,26.0,266.0,0.0
R,U,"[5, 10]",1.0,7.0,0.3583519458770752,1.623788833618164,0.2584887618263213,26.0,267.0,0.0
B,L,"[5, 9]",0.0,7.0,0.4268040657043457,1.7179219722747803,0.29304382725606887,26.0,268.0,0.0
Y,R,"[5, 10]",0.0,7.0,0.4999570846557617,1.805199146270752,0.3148587874834731,26.0,269.0,0.0
R,U,"[4, 10]",1.0,8.0,0.3223609924316406,2.0673530101776123,0.7316124254568868,26.0,270.0,0.0
,,"(6, 6)",,,,,,,,
R,U,"[5, 6]",1.0,1.0,0.5536019802093506,3.979724168777466,0.7279485347152433,27.0,271.0,0.0
Y,R,"[5, 7]",-1.0,1.0,0.030452966690063477,5.550708055496216,0.46212157492262357,27.0,272.0,0.0
Y,R,"[5, 8]",1.0,2.0,0.2901301383972168,1.6301720142364502,0.3258461976101566,27.0,273.0,0.0
G,D,"[6, 8]",1.0,3.0,0.3945300579071045,1.922071933746338,0.5310254570089767,27.0,274.0,0.0
Y,R,"[6, 9]",1.0,4.0,0.23015999794006348,1.9625051021575928,0.7268479240378414,27.0,275.0,0.0
Y,R,"[6, 10]",1.0,5.0,0.17017197608947754,1.8639860153198242,0.7072750206047094,27.0,276.0,0.0
R,U,"[5, 10]",1.0,6.0,0.20447993278503418,1.7388548851013184,0.5461559952045487,27.0,277.0,0.0
B,L,"[5, 9]",0.0,6.0,0.2635190486907959,1.8861641883850098,0.6156736350925063,27.0,278.0,0.0
Y,R,"[5, 10]",0.0,6.0,0.24308991432189941,1.9662868976593018,0.7150651783991613,27.0,279.0,0.0
G,D,"[6, 10]",0.0,6.0,0.2324390411376953,1.5076658725738525,0.2730716341344064,27.0,280.0,0.0
,,"(6, 6)",,,,,,,,
R,U,"[5, 6]",1.0,1.0,0.6222970485687256,3.109968900680542,0.28302002555133027,28.0,281.0,0.0
Y,R,"[5, 7]",1.0,2.0,0.27175307273864746,1.8660719394683838,0.5988157264253624,28.0,282.0,0.0
Y,R,"[5, 8]",1.0,3.0,0.2410449981689453,1.9111690521240234,0.6597946405026247,28.0,283.0,0.0
G,D,"[6, 8]",1.0,4.0,0.25125885009765625,1.7532968521118164,0.5132816607036441,28.0,284.0,0.0
Y,R,"[6, 9]",1.0,5.0,0.2203991413116455,1.6451208591461182,0.425154415285816,28.0,285.0,0.0
Y,R,"[6, 10]",1.0,6.0,0.21034002304077148,1.9415760040283203,0.733038363843973,28.0,286.0,0.0
R,U,"[5, 10]",1.0,7.0,0.19808387756347656,1.5448811054229736,0.3448332592539015,28.0,287.0,0.0
R,U,"[4, 10]",1.0,8.0,0.2877321243286133,1.6129460334777832,0.34120251924346395,28.0,288.0,0.0
B,L,"[4, 9]",1.0,9.0,0.3090081214904785,1.5983178615570068,0.289480733988833,28.0,289.0,0.0
R,U,"[3, 9]",1.0,10.0,0.2919769287109375,1.5618698596954346,0.26805454798496076,28.0,290.0,0.0
,,"(6, 6)",,,,,,,,
R,U,"[5, 6]",1.0,1.0,0.3747878074645996,5.636693000793457,0.5210527999826411,29.0,291.0,0.0
Y,R,"[5, 7]",1.0,2.0,0.19682598114013672,1.8716139793395996,0.6758220173681085,29.0,292.0,0.0
Y,R,"[5, 8]",1.0,3.0,0.209306001663208,1.8222110271453857,0.614693256179349,29.0,293.0,0.0
G,D,"[6, 8]",1.0,4.0,0.20586705207824707,1.9523448944091797,0.7334759096210385,29.0,294.0,0.0
Y,R,"[6, 9]",1.0,5.0,0.1948840618133545,1.7831909656524658,0.5834527382710732,29.0,295.0,0.0
Y,R,"[6, 10]",1.0,6.0,0.23156189918518066,1.8285348415374756,0.595422362473605,29.0,296.0,0.0
R,U,"[5, 10]",1.0,7.0,0.24918889999389648,1.946626901626587,0.6917939667876691,29.0,297.0,0.0
R,U,"[4, 10]",-1.0,7.0,0.07373905181884766,5.6985650062561035,0.5571485723128631,29.0,298.0,0.0
B,L,"[4, 9]",1.0,8.0,0.31089305877685547,2.0500450134277344,0.7402806253100365,29.0,299.0,0.0
R,U,"[3, 9]",1.0,9.0,0.22490310668945312,1.841231107711792,0.6149209665080633,29.0,300.0,0.0
,,"(6, 6)",,,,,,,,
R,U,"[5, 6]",1.0,1.0,0.5396420955657959,3.80782413482666,0.7057795867995877,30.0,301.0,0.0
Y,R,"[5, 7]",1.0,2.0,0.22973394393920898,1.5876679420471191,0.36045114485331436,30.0,302.0,0.0
Y,R,"[5, 8]",1.0,3.0,0.30750298500061035,1.9413819313049316,0.6349601470653038,30.0,303.0,0.0
G,D,"[6, 8]",1.0,4.0,0.27047300338745117,1.7610728740692139,0.4961327094815555,30.0,304.0,0.0
Y,R,"[6, 9]",1.0,5.0,0.2528700828552246,1.695356845855713,0.44149916006737144,30.0,305.0,0.0
Y,R,"[6, 10]",1.0,6.0,0.23342490196228027,1.7613749504089355,0.5360817618228562,30.0,306.0,0.0
R,U,"[5, 10]",1.0,7.0,0.3097219467163086,1.684786081314087,0.3709984825244572,30.0,307.0,0.0
R,U,"[4, 10]",1.0,8.0,0.4734029769897461,1.7892229557037354,0.3103600891126264,30.0,308.0,0.0
B,L,"[4, 9]",1.0,9.0,0.372114896774292,2.1006789207458496,0.7271821514867216,30.0,309.0,0.0
R,U,"[3, 9]",1.0,10.0,0.20606398582458496,1.4769370555877686,0.28783377087890605,30.0,310.0,0.0
,,"(6, 6)",,,,,,,,
R,U,"[5, 6]",1.0,1.0,0.37273693084716797,4.243633031845093,0.4810884795368972,31.0,311.0,0.0
Y,R,"[5, 7]",1.0,2.0,0.27965593338012695,1.7183599472045898,0.43288398567068215,31.0,312.0,0.0
G,D,"[6, 7]",0.0,2.0,0.2990090847015381,1.8253121376037598,0.5246787295651203,31.0,313.0,0.0
Y,R,"[6, 8]",1.0,3.0,0.2732689380645752,1.9870049953460693,0.7114717876133978,31.0,314.0,0.0
G,D,"[7, 8]",0.0,3.0,0.21292805671691895,1.8216371536254883,0.6165990139021822,31.0,315.0,0.0
R,U,"[6, 8]",0.0,3.0,0.22673583030700684,1.8519461154937744,0.6184451379103941,31.0,316.0,0.0
B,L,"[6, 7]",0.0,3.0,0.23372793197631836,1.5800180435180664,0.34856576906640735,31.0,317.0,0.0
Y,R,"[6, 8]",0.0,3.0,0.28530192375183105,1.5345449447631836,0.2500169645926206,31.0,318.0,0.0
G,D,"[7, 8]",0.0,3.0,0.33189988136291504,1.652527093887329,0.3191001814288231,31.0,319.0,0.0
B,L,"[7, 7]",0.0,3.0,0.33385205268859863,1.66316819190979,0.33220433952692846,31.0,320.0,0.0
,,"(6, 6)",,,,,,,,
R,U,"[5, 6]",1.0,1.0,0.4393301010131836,3.1418299674987793,0.35724885051138927,32.0,321.0,0.0
Y,R,"[5, 7]",1.0,2.0,0.3059680461883545,2.0011770725250244,0.6912831851427832,32.0,322.0,0.0
Y,R,"[5, 8]",1.0,3.0,0.19583487510681152,1.7287218570709229,0.5369233580783981,32.0,323.0,0.0
G,D,"[6, 8]",1.0,4.0,0.321699857711792,1.8904950618743896,0.5774696028815309,32.0,324.0,0.0
Y,R,"[6, 9]",1.0,5.0,0.28818702697753906,1.9970290660858154,0.7075461162632084,32.0,325.0,0.0
Y,R,"[6, 10]",1.0,6.0,0.1901249885559082,1.6183578968048096,0.44268720298904823,32.0,326.0,0.0
R,U,"[5, 10]",1.0,7.0,0.362454891204834,1.7239158153533936,0.3666610297619425,32.0,327.0,0.0
R,U,"[4, 10]",1.0,8.0,0.2761270999908447,1.5448799133300781,0.2618182371500718,32.0,328.0,0.0
B,L,"[4, 9]",1.0,9.0,0.34182095527648926,1.7551360130310059,0.41666248623194346,32.0,329.0,0.0
R,U,"[3, 9]",1.0,10.0,0.2901008129119873,1.6544618606567383,0.3544621196082061,32.0,330.0,0.0
,,"(6, 6)",,,,,,,,
R,U,"[5, 6]",1.0,1.0,0.9089531898498535,3.7135109901428223,0.30125874415273346,33.0,331.0,0.0
Y,R,"[5, 7]",1.0,2.0,0.38938307762145996,1.7806620597839355,0.39846321460369777,33.0,332.0,0.0
Y,R,"[5, 8]",1.0,3.0,0.3430509567260742,1.8772130012512207,0.5255795731767388,33.0,333.0,0.0
G,D,"[6, 8]",1.0,4.0,0.31233787536621094,1.6401660442352295,0.3324664971742174,33.0,334.0,0.0
Y,R,"[6, 9]",1.0,5.0,0.3703420162200928,1.92513108253479,0.5574316418721412,33.0,335.0,0.0
Y,R,"[6, 10]",1.0,6.0,0.29264211654663086,1.8686280250549316,0.5759830392325638,33.0,336.0,0.0
R,U,"[5, 10]",1.0,7.0,0.27289295196533203,1.6405539512634277,0.3668330226180954,33.0,337.0,0.0
R,U,"[4, 10]",1.0,8.0,0.3990211486816406,1.947878122329712,0.5477215728474005,33.0,338.0,0.0
B,L,"[4, 9]",1.0,9.0,0.22617506980895996,1.673703908920288,0.43816663816738916,33.0,339.0,0.0
R,U,"[3, 9]",1.0,10.0,0.38051915168762207,1.926604986190796,0.5479357222000832,33.0,340.0,0.0
,,"(6, 6)",,,,,,,,
R,U,"[5, 6]",1.0,1.0,0.5889561176300049,4.747777938842773,0.6621155155957834,34.0,341.0,0.0
Y,R,"[5, 7]",1.0,2.0,0.2527439594268799,1.8837559223175049,0.6291278514849583,34.0,342.0,0.0
Y,R,"[5, 8]",1.0,3.0,0.2485511302947998,1.8950779438018799,0.6408952124633127,34.0,343.0,0.0
G,D,"[6, 8]",1.0,4.0,0.3592488765716553,1.762406826019287,0.4035151601864348,34.0,344.0,0.0
Y,R,"[6, 9]",1.0,5.0,0.28464508056640625,1.978883981704712,0.6985920241452594,34.0,345.0,0.0
Y,R,"[6, 10]",1.0,6.0,0.17773199081420898,1.7364740371704102,0.5519492300479245,34.0,346.0,0.0
R,U,"[5, 10]",1.0,7.0,0.296875,1.932136058807373,0.6338869489783686,34.0,347.0,0.0
R,U,"[4, 10]",1.0,8.0,0.25774097442626953,1.6747989654541016,0.40888178090771615,34.0,348.0,0.0
B,L,"[4, 9]",1.0,9.0,0.42679500579833984,1.8893120288848877,0.4648347470476637,34.0,349.0,0.0
R,U,"[3, 9]",1.0,10.0,0.30693793296813965,1.8041980266571045,0.4856102183724742,34.0,350.0,0.0
,,"(6, 6)",,,,,,,,
R,U,"[5, 6]",1.0,1.0,0.5409290790557861,3.193061113357544,0.511929100506767,35.0,351.0,0.0
Y,R,"[5, 7]",1.0,2.0,0.2890491485595703,1.7842540740966797,0.4961533511204704,35.0,352.0,0.0
Y,R,"[5, 8]",1.0,3.0,0.20044493675231934,1.4732050895690918,0.2695407671724099,35.0,353.0,0.0
G,D,"[6, 8]",1.0,4.0,0.6537878513336182,1.897871971130371,0.2507634565227727,35.0,354.0,0.0
Y,R,"[6, 9]",1.0,5.0,0.38576197624206543,1.8837189674377441,0.5011056273387341,35.0,355.0,0.0
Y,R,"[6, 10]",1.0,6.0,0.2193589210510254,1.498197078704834,0.28237904036248573,35.0,356.0,0.0
R,U,"[5, 10]",1.0,7.0,0.3676631450653076,2.0502729415893555,0.6826136797259665,35.0,357.0,0.0
R,U,"[4, 10]",1.0,8.0,0.2353529930114746,1.7772560119628906,0.5429988657827303,35.0,358.0,0.0
B,L,"[4, 9]",1.0,9.0,0.3156759738922119,2.0073401927948,0.7001487155267004,35.0,359.0,0.0
R,U,"[3, 9]",1.0,10.0,0.27404189109802246,1.993468999862671,0.7102548752435427,35.0,360.0,0.0
,,"(6, 6)",,,,,,,,
R,U,"[5, 6]",1.0,1.0,0.3659169673919678,3.376336097717285,0.45332972580107217,36.0,361.0,0.0
Y,R,"[5, 7]",1.0,2.0,0.2557668685913086,1.6154820919036865,0.3521861071801922,36.0,362.0,0.0
Y,R,"[5, 8]",1.0,3.0,0.33866095542907715,1.6031289100646973,0.2720609313858027,36.0,363.0,0.0
G,D,"[6, 8]",1.0,4.0,0.5366859436035156,2.223034143447876,0.6946252175688008,36.0,364.0,0.0
Y,R,"[6, 9]",1.0,5.0,0.22897911071777344,1.8169491291046143,0.5950053091715399,36.0,365.0,0.0
Y,R,"[6, 10]",1.0,6.0,0.2872650623321533,1.9094700813293457,0.6380357244900827,36.0,366.0,0.0
R,U,"[5, 10]",1.0,7.0,0.34245800971984863,1.8670620918273926,0.521550807108524,36.0,367.0,0.0
R,U,"[4, 10]",1.0,8.0,0.2729041576385498,1.938697099685669,0.6767062702340804,36.0,368.0,0.0
B,L,"[4, 9]",1.0,9.0,0.2514951229095459,1.5335028171539307,0.2938744879135126,36.0,369.0,0.0
R,U,"[3, 9]",1.0,10.0,0.3591899871826172,1.7532539367675781,0.39692363939456954,36.0,370.0,0.0
,,"(6, 6)",,,,,,,,
R,U,"[5, 6]",1.0,1.0,0.6017508506774902,2.3834149837493896,0.3971244571277371,37.0,371.0,0.0
Y,R,"[5, 7]",1.0,2.0,0.29919004440307617,1.7843589782714844,0.48124671296297106,37.0,372.0,0.0
Y,R,"[5, 8]",1.0,3.0,0.27785706520080566,1.748363971710205,0.4628565867530884,37.0,373.0,0.0
G,D,"[6, 8]",1.0,4.0,0.3648200035095215,1.7774720191955566,0.4070523180314486,37.0,374.0,0.0
Y,R,"[6, 9]",1.0,5.0,0.33222198486328125,1.7897260189056396,0.46332686575756665,37.0,375.0,0.0
Y,R,"[6, 10]",1.0,6.0,0.25415897369384766,1.693237066268921,0.4397991553230134,37.0,376.0,0.0
R,U,"[5, 10]",1.0,7.0,0.4177539348602295,2.012179136276245,0.6017988677593022,37.0,377.0,0.0
R,U,"[4, 10]",1.0,8.0,0.303178071975708,1.5739130973815918,0.2760650994507183,37.0,378.0,0.0
B,L,"[4, 9]",1.0,9.0,0.5004870891571045,1.799800157546997,0.30915954415379493,37.0,379.0,0.0
R,U,"[3, 9]",1.0,10.0,0.44341087341308594,1.958193063735962,0.5169729946883732,37.0,380.0,0.0
,,"(6, 6)",,,,,,,,
R,U,"[5, 6]",1.0,1.0,0.4386601448059082,2.862200975418091,0.2960708764213118,38.0,381.0,0.0
Y,R,"[5, 7]",1.0,2.0,0.29007983207702637,1.7868008613586426,0.4826714937436161,38.0,382.0,0.0
Y,R,"[5, 8]",1.0,3.0,0.22170305252075195,1.8341398239135742,0.6165578402307614,38.0,383.0,0.0
G,D,"[6, 8]",1.0,4.0,0.25734400749206543,1.775282859802246,0.5085265032871713,38.0,384.0,0.0
Y,R,"[6, 9]",1.0,5.0,0.2437138557434082,1.9676048755645752,0.7259051389108286,38.0,385.0,0.0
Y,R,"[6, 10]",1.0,6.0,0.1899890899658203,1.56072998046875,0.3869875841116009,38.0,386.0,0.0
R,U,"[5, 10]",1.0,7.0,0.3683278560638428,1.984309196472168,0.6209398421023835,38.0,387.0,0.0
R,U,"[4, 10]",1.0,8.0,0.2678971290588379,1.6590681076049805,0.39693821107829164,38.0,388.0,0.0
B,L,"[4, 9]",1.0,9.0,0.25248098373413086,1.5580179691314697,0.30502418289118677,38.0,389.0,0.0
R,U,"[3, 9]",1.0,10.0,0.41347789764404297,2.122999906539917,0.7108745046446617,38.0,390.0,0.0
,,"(6, 6)",,,,,,,,
R,U,"[5, 6]",1.0,1.0,0.4691781997680664,2.444911003112793,0.5558788037859714,39.0,391.0,0.0
Y,R,"[5, 7]",1.0,2.0,0.2116711139678955,1.869946002960205,0.6589355297672279,39.0,392.0,0.0
Y,R,"[5, 8]",-1.0,2.0,0.0872039794921875,5.761971950531006,0.6209192641594081,39.0,393.0,0.0
G,D,"[6, 8]",1.0,3.0,0.30765295028686523,1.9301731586456299,0.6177508009486997,39.0,394.0,0.0
Y,R,"[6, 9]",1.0,4.0,0.3069188594818115,1.8017189502716064,0.4860684972033341,39.0,395.0,0.0
Y,R,"[6, 10]",1.0,5.0,0.23086285591125488,1.8529689311981201,0.622265383002334,39.0,396.0,0.0
R,U,"[5, 10]",1.0,6.0,0.2918989658355713,1.6358301639556885,0.3416803811597046,39.0,397.0,0.0
R,U,"[4, 10]",1.0,7.0,0.24957799911499023,1.5770800113677979,0.33537920897649975,39.0,398.0,0.0
B,L,"[4, 9]",1.0,8.0,0.39520788192749023,1.9985318183898926,0.6002115423815941,39.0,399.0,0.0
R,U,"[3, 9]",1.0,9.0,0.24611592292785645,1.8141648769378662,0.5644417081970439,39.0,400.0,0.0
,,"(6, 6)",,,,,,,,
R,U,"[5, 6]",1.0,1.0,0.5115799903869629,3.187403917312622,0.2686767068261523,40.0,401.0,0.0
Y,R,"[5, 7]",1.0,2.0,0.3731818199157715,1.7303378582000732,0.3489605411091925,40.0,402.0,0.0
Y,R,"[5, 8]",1.0,3.0,0.24506497383117676,1.6021308898925781,0.3510178442412961,40.0,403.0,0.0
G,D,"[6, 8]",1.0,4.0,0.2618889808654785,1.7118759155273438,0.44603289459365403,40.0,404.0,0.0
Y,R,"[6, 9]",1.0,5.0,0.25913095474243164,1.7230010032653809,0.45244701276004756,40.0,405.0,0.0
Y,R,"[6, 10]",1.0,6.0,0.23239493370056152,1.5946459770202637,0.36378293007849366,40.0,406.0,0.0
R,U,"[5, 10]",1.0,7.0,0.28539299964904785,1.769486904144287,0.48307958978619164,40.0,407.0,0.0
R,U,"[4, 10]",1.0,8.0,0.22368788719177246,1.8115978240966797,0.5778870329232428,40.0,408.0,0.0
B,L,"[4, 9]",1.0,9.0,0.24969887733459473,1.5422399044036865,0.30362800284206914,40.0,409.0,0.0
R,U,"[3, 9]",1.0,10.0,0.31471896171569824,1.5714178085327148,0.25845480065542037,40.0,410.0,0.0
,,"(6, 6)",,,,,,,,
R,U,"[5, 6]",1.0,1.0,0.7247400283813477,3.9992799758911133,0.44081201185831975,41.0,411.0,0.0
Y,R,"[5, 7]",1.0,2.0,0.22318696975708008,1.4847488403320312,0.2590329257614289,41.0,412.0,0.0
Y,R,"[5, 8]",1.0,3.0,0.41889405250549316,1.9942638874053955,0.586225250518688,41.0,413.0,0.0
G,D,"[6, 8]",1.0,4.0,0.20083999633789062,1.5645058155059814,0.3675911097680379,41.0,414.0,0.0
Y,R,"[6, 9]",1.0,5.0,0.2909281253814697,2.01857590675354,0.7357991912359703,41.0,415.0,0.0
Y,R,"[6, 10]",1.0,6.0,0.1547861099243164,1.7334189414978027,0.5859808515404507,41.0,416.0,0.0
R,U,"[5, 10]",1.0,7.0,0.1599130630493164,1.7941679954528809,0.6299550234461457,41.0,417.0,0.0
B,L,"[5, 9]",0.0,7.0,0.2809460163116455,1.6497058868408203,0.3632746879750372,41.0,418.0,0.0
R,U,"[4, 9]",1.0,8.0,0.26491403579711914,1.545192003250122,0.27516113595574015,41.0,419.0,0.0
R,U,"[3, 9]",1.0,9.0,0.48757481575012207,1.751230001449585,0.27640505640875945,41.0,420.0,0.0
,,"(6, 6)",,,,,,,,
R,U,"[5, 6]",1.0,1.0,0.39624500274658203,3.938419818878174,0.6810569909423976,42.0,421.0,0.0
Y,R,"[5, 7]",1.0,2.0,0.28357696533203125,1.5494470596313477,0.26404571516530717,42.0,422.0,0.0
Y,R,"[5, 8]",1.0,3.0,0.32692599296569824,1.6958808898925781,0.35990880774573497,42.0,423.0,0.0
G,D,"[6, 8]",1.0,4.0,0.3201620578765869,1.835909128189087,0.5289260806193379,42.0,424.0,0.0
Y,R,"[6, 9]",1.0,5.0,0.28614115715026855,1.821169137954712,0.5336123210367492,42.0,425.0,0.0
Y,R,"[6, 10]",1.0,6.0,0.20249009132385254,1.5783510208129883,0.37866309215491817,42.0,426.0,0.0
R,U,"[5, 10]",1.0,7.0,0.272568941116333,1.713838815689087,0.4422419455535985,42.0,427.0,0.0
B,L,"[5, 9]",0.0,7.0,0.2341001033782959,1.9076950550079346,0.6829716481753201,42.0,428.0,0.0
R,U,"[4, 9]",1.0,8.0,0.24753379821777344,1.7712428569793701,0.5210692307469944,42.0,429.0,0.0
R,U,"[3, 9]",1.0,9.0,0.25672411918640137,1.7231969833374023,0.460946857194378,42.0,430.0,0.0
,,"(6, 6)",,,,,,,,
G,D,"[7, 6]",0.0,0.0,0.37650585174560547,2.8455750942230225,0.28990589306553727,43.0,431.0,0.0
B,L,"[7, 5]",0.0,0.0,0.2530689239501953,1.6342830657958984,0.39072928284873115,43.0,432.0,0.0
R,U,"[6, 5]",0.0,0.0,0.23537611961364746,1.8209280967712402,0.5947851292462465,43.0,433.0,0.0
Y,R,"[6, 6]",-1.0,0.0,0.035401105880737305,5.44395112991333,0.35546993339204014,43.0,434.0,0.0
Y,R,"[6, 7]",0.0,0.0,0.5269927978515625,2.0650269985198975,0.5369342544832114,43.0,435.0,0.0
R,U,"[5, 7]",1.0,1.0,0.38530778884887695,1.6795339584350586,0.29997746937300607,43.0,436.0,0.0
R,U,"[4, 7]",0.0,1.0,0.3219490051269531,1.6909620761871338,0.3575144285033638,43.0,437.0,0.0
B,L,"[4, 6]",0.0,1.0,0.37963008880615234,2.093994140625,0.717801984518178,43.0,438.0,0.0
G,D,"[5, 6]",1.0,2.0,0.22784900665283203,1.5244369506835938,0.2924914915269342,43.0,439.0,0.0
Y,R,"[5, 7]",0.0,2.0,0.31199097633361816,2.0566418170928955,0.7487182347633463,43.0,440.0,0.0
,,"(6, 6)",,,,,,,,
B,L,"[6, 5]",0.0,0.0,0.5190958976745605,3.930849075317383,0.7128566563004148,44.0,441.0,0.0
G,D,"[7, 5]",0.0,0.0,0.20688199996948242,1.912329912185669,0.6917796160312943,44.0,442.0,0.0
Y,R,"[7, 6]",0.0,0.0,0.2559199333190918,1.6258459091186523,0.3679620805081622,44.0,443.0,0.0
R,U,"[6, 6]",0.0,0.0,0.3585529327392578,2.104444980621338,0.7385980679955914,44.0,444.0,0.0
B,L,"[6, 5]",0.0,0.0,0.3254880905151367,1.9479780197143555,0.6200775887787584,44.0,445.0,0.0
G,D,"[7, 5]",0.0,0.0,0.2884790897369385,1.5907158851623535,0.310925714816515,44.0,446.0,0.0
B,L,"[7, 4]",0.0,0.0,0.5161910057067871,2.2280800342559814,0.7219509495766503,44.0,447.0,0.0
B,L,"[7, 3]",0.0,0.0,0.23982906341552734,1.763537883758545,0.5193095582265441,44.0,448.0,0.0
B,L,"[7, 2]",0.0,0.0,0.3601868152618408,1.742020845413208,0.37776900528498897,44.0,449.0,0.0
B,L,"[7, 1]",0.0,0.0,0.3378031253814697,1.717484951019287,0.37848659878995067,44.0,450.0,0.0
,,"(6, 6)",,,,,,,,
G,D,"[7, 6]",-2.0,0.0,1.0626389980316162,6.266245126724243,0.5777986949537668,45.0,451.0,0.0
R,U,"[6, 6]",0.0,0.0,0.2953979969024658,1.6070809364318848,0.31836163319934496,45.0,452.0,0.0
Y,R,"[6, 7]",0.0,0.0,0.18884801864624023,1.522294044494629,0.3240411496950338,45.0,453.0,0.0
B,L,"[6, 6]",0.0,0.0,0.2381119728088379,1.7980329990386963,0.571834333143829,45.0,454.0,0.0
G,D,"[7, 6]",0.0,0.0,0.23704004287719727,1.7925388813018799,0.5643108778757384,45.0,455.0,0.0
Y,R,"[7, 7]",0.0,0.0,0.19804596900939941,1.5280828475952148,0.3259203710822125,45.0,456.0,0.0
Y,R,"[7, 8]",0.0,0.0,0.1951460838317871,1.6689889430999756,0.4780156834123519,45.0,457.0,0.0
B,L,"[7, 7]",0.0,0.0,0.437716007232666,1.782938003540039,0.34439619536165567,45.0,458.0,0.0
G,D,"[8, 7]",0.0,0.0,0.4193458557128906,1.8368639945983887,0.43110888216274384,45.0,459.0,0.0
Y,R,"[8, 8]",0.0,0.0,0.30054211616516113,2.002113103866577,0.6996063704027049,45.0,460.0,0.0
,,"(6, 6)",,,,,,,,
G,D,"[7, 6]",0.0,0.0,0.4225630760192871,2.7846028804779053,0.6008766736268639,46.0,461.0,0.0
B,L,"[7, 5]",0.0,0.0,0.2168750762939453,1.9566891193389893,0.7406651474918039,46.0,462.0,0.0
R,U,"[6, 5]",0.0,0.0,0.418903112411499,1.7731871604919434,0.3641532726805481,46.0,463.0,0.0
Y,R,"[6, 6]",0.0,0.0,0.33764004707336426,1.7306630611419678,0.39473745162315577,46.0,464.0,0.0
B,L,"[6, 5]",0.0,0.0,0.30690789222717285,1.7120840549468994,0.406799991977272,46.0,465.0,0.0
Y,R,"[6, 6]",0.0,0.0,0.35438108444213867,1.7385680675506592,0.39539773710352755,46.0,466.0,0.0
G,D,"[7, 6]",0.0,0.0,0.3135640621185303,1.6274480819702148,0.32280590462932657,46.0,467.0,0.0
R,U,"[6, 6]",0.0,0.0,0.34650516510009766,1.663254976272583,0.3194628345366219,46.0,468.0,0.0
B,L,"[6, 5]",0.0,0.0,0.2638370990753174,1.8428430557250977,0.5785525260672233,46.0,469.0,0.0
G,D,"[7, 5]",0.0,0.0,0.20884490013122559,1.8150739669799805,0.5936640827939441,46.0,470.0,0.0
,,"(6, 6)",,,,,,,,
B,L,"[6, 5]",0.0,0.0,0.4504377841949463,2.6540870666503906,0.5476665767082106,47.0,471.0,0.0
G,D,"[7, 5]",0.0,0.0,0.23524713516235352,1.6715819835662842,0.43607965422636175,47.0,472.0,0.0
Y,R,"[7, 6]",0.0,0.0,0.28648996353149414,1.5596938133239746,0.27914042225493224,47.0,473.0,0.0
B,L,"[7, 5]",0.0,0.0,0.4547879695892334,2.098146915435791,0.6436360863379591,47.0,474.0,0.0
Y,R,"[7, 6]",0.0,0.0,0.1994779109954834,1.712615966796875,0.5229325109992,47.0,475.0,0.0
R,U,"[6, 6]",0.0,0.0,0.20780611038208008,1.9378080368041992,0.7271389094710652,47.0,476.0,0.0
G,D,"[7, 6]",0.0,0.0,0.21142005920410156,1.4806227684020996,0.2747660755489233,47.0,477.0,0.0
B,L,"[7, 5]",0.0,0.0,0.5710949897766113,1.8814470767974854,0.30627927193922166,47.0,478.0,0.0
G,D,"[8, 5]",0.0,0.0,0.38871097564697266,1.703840970993042,0.31015045971648686,47.0,479.0,0.0
Y,R,"[8, 6]",0.0,0.0,0.2657299041748047,1.9108150005340576,0.6539685008917198,47.0,480.0,0.0
,,"(6, 6)",,,,,,,,
R,U,"[5, 6]",1.0,1.0,0.3399229049682617,2.9666800498962402,0.5872045526978042,48.0,481.0,0.0
Y,R,"[5, 7]",1.0,2.0,0.19236087799072266,1.6978600025177002,0.5017307033884473,48.0,482.0,0.0
Y,R,"[5, 8]",1.0,3.0,0.25541090965270996,1.981187105178833,0.7160177990465082,48.0,483.0,0.0
G,D,"[6, 8]",1.0,4.0,0.35907602310180664,1.9514129161834717,0.5842413418559151,48.0,484.0,0.0
Y,R,"[6, 9]",1.0,5.0,0.1849679946899414,1.916795015335083,0.7341180429699085,48.0,485.0,0.0
Y,R,"[6, 10]",1.0,6.0,0.260343074798584,1.8310890197753906,0.5653649076043603,48.0,486.0,0.0
R,U,"[5, 10]",1.0,7.0,0.4470040798187256,1.9720091819763184,0.5206769318005926,48.0,487.0,0.0
R,U,"[4, 10]",1.0,8.0,0.45232486724853516,2.0813660621643066,0.6351192983018505,48.0,488.0,0.0
B,L,"[4, 9]",1.0,9.0,0.210097074508667,1.5646610260009766,0.35012423791906305,48.0,489.0,0.0
R,U,"[3, 9]",1.0,10.0,0.3432769775390625,1.6205220222473145,0.27059467566685436,48.0,490.0,0.0
,,"(6, 6)",,,,,,,,
R,U,"[5, 6]",1.0,1.0,0.5975131988525391,2.806234121322632,0.26018290604431077,49.0,491.0,0.0
B,L,"[5, 5]",0.0,1.0,0.3735840320587158,1.8980190753936768,0.524480539282702,49.0,492.0,0.0
Y,R,"[5, 6]",0.0,1.0,0.4467740058898926,2.029160976409912,0.587260723333066,49.0,493.0,0.0
G,D,"[6, 6]",0.0,1.0,0.3392460346221924,1.8089799880981445,0.4627269214718885,49.0,494.0,0.0
R,U,"[5, 6]",0.0,1.0,0.4286949634552002,1.9768540859222412,0.5394259548468244,49.0,495.0,0.0
B,L,"[5, 5]",0.0,1.0,0.5098299980163574,2.1866331100463867,0.6760904886935051,49.0,496.0,0.0
G,D,"[6, 5]",0.0,1.0,0.340548038482666,2.046308994293213,0.7053528109485112,49.0,497.0,0.0
Y,R,"[6, 6]",-1.0,1.0,0.07559895515441895,5.660867929458618,0.5163431454510713,49.0,498.0,0.0
Y,R,"[6, 7]",0.0,1.0,0.2919018268585205,1.7595880031585693,0.45929350193625695,49.0,499.0,0.0
B,L,"[6, 6]",0.0,1.0,0.30678796768188477,1.6598341464996338,0.3526684865944132,49.0,500.0,0.0
,,"(6, 6)",,,,,,,,
G,D,"[7, 6]",0.0,0.0,0.12792706489562988,3.1104400157928467,0.7124193221349528,50.0,501.0,0.0
B,L,"[7, 5]",0.0,0.0,0.21841192245483398,1.507563829421997,0.28716704499100415,50.0,502.0,0.0
R,U,"[6, 5]",0.0,0.0,0.4113590717315674,1.9733059406280518,0.5601154851454291,50.0,503.0,0.0
G,D,"[7, 5]",0.0,0.0,0.29570794105529785,1.835900068283081,0.5459313059487808,50.0,504.0,0.0
Y,R,"[7, 6]",0.0,0.0,0.2912271022796631,1.6789720058441162,0.3917725326882234,50.0,505.0,0.0
G,D,"[8, 6]",0.0,0.0,0.27838921546936035,1.5598859786987305,0.2850282578889248,50.0,506.0,0.0
B,L,"[8, 5]",0.0,0.0,0.3713970184326172,1.8551430702209473,0.4733757806619999,50.0,507.0,0.0
Y,R,"[8, 6]",0.0,0.0,0.3023099899291992,2.011686086654663,0.7185274479826147,50.0,508.0,0.0
R,U,"[7, 6]",0.0,0.0,0.9582309722900391,2.7141950130462646,0.7487450664572328,50.0,509.0,0.0
G,D,"[8, 6]",0.0,0.0,0.2559700012207031,1.88720703125,0.6361273181753043,50.0,510.0,0.0
,,"(6, 6)",,,,,,,,
B,L,"[6, 5]",0.0,0.0,0.6009759902954102,3.8894031047821045,0.5752882932681804,51.0,511.0,0.0
R,U,"[5, 5]",0.0,0.0,0.4183080196380615,1.9059910774230957,0.4981574595124998,51.0,512.0,0.0
Y,R,"[5, 6]",1.0,1.0,0.3826150894165039,2.1088621616363525,0.7235846599522792,51.0,513.0,0.0
Y,R,"[5, 7]",1.0,2.0,0.2295551300048828,1.8341929912567139,0.6076694389427897,51.0,514.0,0.0
G,D,"[6, 7]",0.0,2.0,0.40517115592956543,2.0541040897369385,0.6621598719797582,51.0,515.0,0.0
Y,R,"[6, 8]",1.0,3.0,0.23395681381225586,1.6331608295440674,0.411613180891624,51.0,516.0,0.0
Y,R,"[6, 9]",1.0,4.0,0.18684101104736328,1.6537787914276123,0.48195318175815216,51.0,517.0,0.0
Y,R,"[6, 10]",-1.0,4.0,0.09935402870178223,5.666265964508057,0.4981840224750274,51.0,518.0,0.0
B,L,"[6, 9]",0.0,4.0,0.34151315689086914,2.072108030319214,0.7205175951192211,51.0,519.0,0.0
R,U,"[5, 9]",0.0,4.0,0.2307889461517334,1.8955159187316895,0.6655748909462833,51.0,520.0,0.0
,,"(6, 6)",,,,,,,,
G,D,"[7, 6]",0.0,0.0,0.2168729305267334,4.904455900192261,0.5865976324012148,52.0,521.0,0.0
R,U,"[6, 6]",0.0,0.0,0.39199399948120117,2.1037049293518066,0.7068452893075285,52.0,522.0,0.0
B,L,"[6, 5]",-2.0,0.0,1.495772123336792,2.9263880252838135,0.46671129898596025,52.0,523.0,0.0
Y,R,"[6, 6]",0.0,0.0,0.2855548858642578,1.5706160068511963,0.2874631902715642,52.0,524.0,0.0
G,D,"[7, 6]",0.0,0.0,0.2507650852203369,1.542341947555542,0.29637219908180584,52.0,525.0,0.0
B,L,"[7, 5]",0.0,0.0,0.36071109771728516,1.8615550994873047,0.49111113727932826,52.0,526.0,0.0
R,U,"[6, 5]",0.0,0.0,0.4256591796875,1.7535760402679443,0.32812749986728795,52.0,527.0,0.0
Y,R,"[6, 6]",0.0,0.0,0.9546880722045898,2.4195377826690674,0.48085073925994964,52.0,528.0,0.0
B,L,"[6, 5]",0.0,0.0,0.570361852645874,2.0163309574127197,0.447049498604776,52.0,529.0,0.0
Y,R,"[6, 6]",0.0,0.0,0.30571484565734863,1.649933099746704,0.34709070950807736,52.0,530.0,0.0
,,"(6, 6)",,,,,,,,
G,D,"[7, 6]",0.0,0.0,0.23615407943725586,2.9304771423339844,0.6105047221680371,53.0,531.0,0.0
R,U,"[6, 6]",0.0,0.0,0.21300196647644043,1.9502379894256592,0.7440103509181608,53.0,532.0,0.0
B,L,"[6, 5]",0.0,0.0,0.18396401405334473,1.741940975189209,0.5694142002833984,53.0,533.0,0.0
G,D,"[7, 5]",0.0,0.0,0.2679481506347656,1.879328966140747,0.6151939655005427,53.0,534.0,0.0
Y,R,"[7, 6]",0.0,0.0,0.307528018951416,2.0352020263671875,0.7170354236865144,53.0,535.0,0.0
B,L,"[7, 5]",0.0,0.0,0.2895059585571289,1.8882079124450684,0.6052399141304502,53.0,536.0,0.0
Y,R,"[7, 6]",0.0,0.0,0.32886195182800293,1.8024940490722656,0.4745743107120009,53.0,537.0,0.0
B,L,"[7, 5]",0.0,0.0,0.3872389793395996,2.0203659534454346,0.6447310048108426,53.0,538.0,0.0
Y,R,"[7, 6]",0.0,0.0,0.2701849937438965,1.661850929260254,0.40664494075685925,53.0,539.0,0.0
B,L,"[7, 5]",0.0,0.0,0.26656198501586914,1.937727928161621,0.6774712319685061,53.0,540.0,0.0
,,"(6, 6)",,,,,,,,
Y,R,"[6, 7]",0.0,0.0,0.27490997314453125,2.4193668365478516,0.3137769233679852,54.0,541.0,0.0
B,L,"[6, 6]",0.0,0.0,0.3838491439819336,1.9859199523925781,0.5994802253009415,54.0,542.0,0.0
Y,R,"[6, 7]",0.0,0.0,0.2424778938293457,1.7499990463256836,0.4993675976617654,54.0,543.0,0.0
B,L,"[6, 6]",0.0,0.0,0.2904648780822754,1.7056889533996582,0.4051191640450781,54.0,544.0,0.0
Y,R,"[6, 7]",0.0,0.0,0.40446996688842773,1.6615869998931885,0.266899005011059,54.0,545.0,0.0
B,L,"[6, 6]",0.0,0.0,0.3497629165649414,2.048598051071167,0.6983271145928561,54.0,546.0,0.0
Y,R,"[6, 7]",0.0,0.0,0.2277538776397705,1.794036865234375,0.5591684796997207,54.0,547.0,0.0
B,L,"[6, 6]",0.0,0.0,0.1974501609802246,1.4545490741729736,0.26397033264057584,54.0,548.0,0.0
Y,R,"[6, 7]",0.0,0.0,0.3454310894012451,2.066748857498169,0.7139979576748832,54.0,549.0,0.0
B,L,"[6, 6]",0.0,0.0,0.22212505340576172,1.5519039630889893,0.3157107223322298,54.0,550.0,0.0
,,"(6, 6)",,,,,,,,
G,D,"[7, 6]",0.0,0.0,0.7200710773468018,3.643918037414551,0.44287562142490333,55.0,551.0,0.0
B,L,"[7, 5]",0.0,0.0,0.39573001861572266,2.0427279472351074,0.6520603927183308,55.0,552.0,0.0
G,D,"[8, 5]",0.0,0.0,0.27878618240356445,1.7202370166778564,0.43911985098528183,55.0,553.0,0.0
G,D,"[9, 5]",0.0,0.0,0.2709159851074219,1.911553144454956,0.6503887995323648,55.0,554.0,0.0
R,U,"[8, 5]",0.0,0.0,0.4043450355529785,1.9008140563964844,0.5012887629141594,55.0,555.0,0.0
G,D,"[9, 5]",0.0,0.0,0.33826708793640137,1.7871811389923096,0.4387551665370298,55.0,556.0,0.0
R,U,"[8, 5]",0.0,0.0,0.3709080219268799,1.7363200187683105,0.3581942609308742,55.0,557.0,0.0
G,D,"[9, 5]",0.0,0.0,0.31858015060424805,2.0503900051116943,0.7414368067801346,55.0,558.0,0.0
G,D,"[10, 5]",-2.0,0.0,1.0626611709594727,2.6251540184020996,0.6000504629663616,55.0,559.0,0.0
B,L,"[10, 4]",0.0,0.0,0.3022928237915039,2.011176824569702,0.7111097720473918,55.0,560.0,0.0
,,"(6, 6)",,,,,,,,
R,U,"[5, 6]",1.0,1.0,0.325685977935791,3.299104928970337,0.37714854018928057,56.0,561.0,0.0
G,D,"[6, 6]",0.0,1.0,0.2432239055633545,1.9656250476837158,0.7257245388506293,56.0,562.0,0.0
B,L,"[6, 5]",0.0,1.0,0.22106695175170898,1.765354871749878,0.557752804833294,56.0,563.0,0.0
Y,R,"[6, 6]",0.0,1.0,0.23813891410827637,1.698430061340332,0.4563542219424603,56.0,564.0,0.0
R,U,"[5, 6]",0.0,1.0,0.5438148975372314,1.919572114944458,0.37593927682270356,56.0,565.0,0.0
Y,R,"[5, 7]",1.0,2.0,0.20814013481140137,1.5712370872497559,0.3637441019462718,56.0,566.0,0.0
R,U,"[4, 7]",-1.0,2.0,0.061303138732910156,5.699939012527466,0.5633966215094628,56.0,567.0,0.0
G,D,"[5, 7]",0.0,2.0,0.2647838592529297,1.6789100170135498,0.40916411532303976,56.0,568.0,0.0
B,L,"[5, 6]",0.0,2.0,0.4360990524291992,1.6893489360809326,0.2652303035540857,56.0,569.0,0.0
R,U,"[4, 6]",0.0,2.0,0.43708205223083496,1.7209489345550537,0.2861877078131944,56.0,570.0,0.0
,,"(6, 6)",,,,,,,,
R,U,"[5, 6]",1.0,1.0,0.703751802444458,3.6961910724639893,0.6485621395914479,57.0,571.0,0.0
Y,R,"[5, 7]",1.0,2.0,0.21842193603515625,1.8260939121246338,0.6079600061053279,57.0,572.0,0.0
Y,R,"[5, 8]",1.0,3.0,0.2877171039581299,1.6908259391784668,0.3989908248858682,57.0,573.0,0.0
G,D,"[6, 8]",1.0,4.0,0.321789026260376,1.6183950901031494,0.28402295783397224,57.0,574.0,0.0
Y,R,"[6, 9]",1.0,5.0,0.37906789779663086,1.7478270530700684,0.36517830587214234,57.0,575.0,0.0
Y,R,"[6, 10]",1.0,6.0,0.29224205017089844,1.8571929931640625,0.5555258012968642,57.0,576.0,0.0
R,U,"[5, 10]",1.0,7.0,0.26796507835388184,1.7795460224151611,0.5183186395386812,57.0,577.0,0.0
R,U,"[4, 10]",1.0,8.0,0.23562216758728027,1.9347481727600098,0.7028569825807448,57.0,578.0,0.0
B,L,"[4, 9]",1.0,9.0,0.2934439182281494,1.7810440063476562,0.4840718619040936,57.0,579.0,0.0
Y,R,"[4, 10]",0.0,9.0,0.2669408321380615,1.6687638759613037,0.4028832672043556,57.0,580.0,0.0
,,"(6, 6)",,,,,,,,
R,U,"[5, 6]",1.0,1.0,0.5989229679107666,3.195227861404419,0.2648577105845445,58.0,581.0,0.0
Y,R,"[5, 7]",1.0,2.0,0.2984750270843506,1.822916030883789,0.5206963456385656,58.0,582.0,0.0
Y,R,"[5, 8]",1.0,3.0,0.2235400676727295,1.5392189025878906,0.31022358752735923,58.0,583.0,0.0
G,D,"[6, 8]",1.0,4.0,0.37940001487731934,1.8758769035339355,0.502480949285699,58.0,584.0,0.0
Y,R,"[6, 9]",1.0,5.0,0.33788013458251953,1.6239490509033203,0.2932384580855314,58.0,585.0,0.0
Y,R,"[6, 10]",1.0,6.0,0.3752608299255371,1.8171989917755127,0.4435220738367219,58.0,586.0,0.0
R,U,"[5, 10]",1.0,7.0,0.30353283882141113,1.8166489601135254,0.5268276783084572,58.0,587.0,0.0
R,U,"[4, 10]",1.0,8.0,0.2508571147918701,1.5594651699066162,0.31981539681450294,58.0,588.0,0.0
B,L,"[4, 9]",1.0,9.0,0.3152201175689697,1.6811470985412598,0.3674524504720068,58.0,589.0,0.0
R,U,"[3, 9]",1.0,10.0,0.2700521945953369,1.8737170696258545,0.6075349337877314,58.0,590.0,0.0
,,"(6, 6)",,,,,,,,
G,D,"[7, 6]",-2.0,0.0,1.0050392150878906,3.8979032039642334,0.472225807235802,59.0,591.0,0.0
B,L,"[7, 5]",0.0,0.0,0.22410202026367188,1.8674581050872803,0.6399309429314003,59.0,592.0,0.0
Y,R,"[7, 6]",0.0,0.0,0.3144721984863281,2.0600500106811523,0.749391676362025,59.0,593.0,0.0
R,U,"[6, 6]",0.0,0.0,0.24477505683898926,1.7783451080322266,0.5278513184621536,59.0,594.0,0.0
B,L,"[6, 5]",0.0,0.0,0.1986069679260254,1.5260260105133057,0.3374402473557372,59.0,595.0,0.0
G,D,"[7, 5]",0.0,0.0,0.35598206520080566,1.806100845336914,0.44338564565384603,59.0,596.0,0.0
R,U,"[6, 5]",0.0,0.0,0.2267460823059082,1.8788650035858154,0.6553235402487743,59.0,597.0,0.0
R,U,"[5, 5]",0.0,0.0,0.18851613998413086,1.5089128017425537,0.31445864945480234,59.0,598.0,0.0
G,D,"[6, 5]",0.0,0.0,0.3876979351043701,1.7674059867858887,0.3819075866543413,59.0,599.0,0.0
B,L,"[6, 4]",0.0,0.0,0.5601320266723633,1.9134471416473389,0.34527963862061567,59.0,600.0,0.0
,,"(6, 6)",,,,,,,,
G,D,"[7, 6]",0.0,0.0,0.539125919342041,3.6600470542907715,0.48836407597512227,60.0,601.0,0.0
R,U,"[6, 6]",0.0,0.0,0.31029391288757324,1.7194628715515137,0.4079333983750116,60.0,602.0,0.0
B,L,"[6, 5]",0.0,0.0,0.3017280101776123,1.5525929927825928,0.26058425821375186,60.0,603.0,0.0
G,D,"[7, 5]",0.0,0.0,0.29187917709350586,1.9987409114837646,0.7089488799481103,60.0,604.0,0.0
Y,R,"[7, 6]",0.0,0.0,0.19967389106750488,1.5970120429992676,0.4062240534012933,60.0,605.0,0.0
R,U,"[6, 6]",0.0,0.0,0.11672592163085938,1.571655035018921,0.4610633102654894,60.0,606.0,0.0
G,D,"[7, 6]",0.0,0.0,0.28198814392089844,1.9811179637908936,0.7085225648188735,60.0,607.0,0.0
B,L,"[7, 5]",0.0,0.0,0.17162299156188965,1.588780164718628,0.430956024299256,60.0,608.0,0.0
Y,R,"[7, 6]",0.0,0.0,0.3075828552246094,1.8158299922943115,0.49663111899093354,60.0,609.0,0.0
R,U,"[6, 6]",0.0,0.0,0.29090285301208496,1.9897379875183105,0.6861951174124883,60.0,610.0,0.0
,,"(6, 6)",,,,,,,,
G,D,"[7, 6]",0.0,0.0,0.4775278568267822,3.1745991706848145,0.4775974694654679,61.0,611.0,0.0
R,U,"[6, 6]",0.0,0.0,0.2421889305114746,1.49155592918396,0.2525576295626156,61.0,612.0,0.0
B,L,"[6, 5]",0.0,0.0,0.4698629379272461,2.1989190578460693,0.7343013585283522,61.0,613.0,0.0
Y,R,"[6, 6]",0.0,0.0,0.3698389530181885,1.7789039611816406,0.41357013243081037,61.0,614.0,0.0
G,D,"[7, 6]",0.0,0.0,0.35552287101745605,2.0612668991088867,0.6911349028179568,61.0,615.0,0.0
R,U,"[6, 6]",0.0,0.0,0.23645806312561035,1.6262860298156738,0.40104492111323115,61.0,616.0,0.0
Y,R,"[6, 7]",0.0,0.0,0.3111758232116699,2.0556111335754395,0.7395979366525878,61.0,617.0,0.0
B,L,"[6, 6]",0.0,0.0,0.1262040138244629,1.399583101272583,0.27294188353735543,61.0,618.0,0.0
G,D,"[7, 6]",0.0,0.0,0.5911109447479248,2.0547749996185303,0.460812689480039,61.0,619.0,0.0
B,L,"[7, 5]",0.0,0.0,0.27634286880493164,1.59476900100708,0.32239480793767455,61.0,620.0,0.0
,,"(6, 6)",,,,,,,,
G,D,"[7, 6]",0.0,0.0,0.28617095947265625,3.7294809818267822,0.5681039815887803,62.0,621.0,0.0
R,U,"[6, 6]",0.0,0.0,0.2548248767852783,1.7038850784301758,0.438738337756236,62.0,622.0,0.0
R,U,"[5, 6]",-1.0,0.0,0.09374094009399414,5.830744028091431,0.6525094921344314,62.0,623.0,0.0
B,L,"[5, 5]",0.0,0.0,0.32436513900756836,1.9816741943359375,0.6508167512308763,62.0,624.0,0.0
G,D,"[6, 5]",0.0,0.0,0.250079870223999,1.9445459842681885,0.695321405404816,62.0,625.0,0.0
Y,R,"[6, 6]",0.0,0.0,0.25221800804138184,1.9497058391571045,0.6948807403325248,62.0,626.0,0.0
R,U,"[5, 6]",0.0,0.0,0.2982749938964844,1.7275419235229492,0.4394328798273934,62.0,627.0,0.0
Y,R,"[5, 7]",1.0,1.0,0.33526611328125,1.7774319648742676,0.45007635544027175,62.0,628.0,0.0
G,D,"[6, 7]",0.0,1.0,0.4090139865875244,1.7279629707336426,0.311438351984998,62.0,629.0,0.0
R,U,"[5, 7]",0.0,1.0,0.4685938358306885,1.9322218894958496,0.47691237653290575,62.0,630.0,0.0
,,"(6, 6)",,,,,,,,
Y,R,"[6, 7]",0.0,0.0,0.6728188991546631,3.53888201713562,0.5655835381255739,63.0,631.0,0.0
G,D,"[7, 7]",0.0,0.0,0.5169589519500732,1.83846116065979,0.3208729147069462,63.0,632.0,0.0
B,L,"[7, 6]",0.0,0.0,0.5214800834655762,2.208432912826538,0.6956037374032367,63.0,633.0,0.0
Y,R,"[7, 7]",0.0,0.0,0.3408479690551758,1.6497910022735596,0.29575570801015144,63.0,634.0,0.0
R,U,"[6, 7]",0.0,0.0,0.40387582778930664,2.115591049194336,0.7110985856665961,63.0,635.0,0.0
G,D,"[7, 7]",-1.0,0.0,0.03246784210205078,5.760563850402832,0.6713712449775509,63.0,636.0,0.0
Y,R,"[7, 8]",0.0,0.0,0.44222307205200195,1.7533550262451172,0.3083752584035992,63.0,637.0,0.0
B,L,"[7, 7]",0.0,0.0,0.5341830253601074,2.229189872741699,0.7037803414621459,63.0,638.0,0.0
G,D,"[8, 7]",0.0,0.0,0.2228069305419922,1.6478290557861328,0.41856132558717946,63.0,639.0,0.0
R,U,"[7, 7]",0.0,0.0,0.4107820987701416,1.9449241161346436,0.5299252987076588,63.0,640.0,0.0
,,"(6, 6)",,,,,,,,
Y,R,"[6, 7]",0.0,0.0,0.5539231300354004,3.417358875274658,0.6137233806384716,64.0,641.0,0.0
R,U,"[5, 7]",1.0,1.0,0.2910881042480469,1.9123458862304688,0.6094969614313892,64.0,642.0,0.0
R,U,"[4, 7]",0.0,1.0,0.36103105545043945,1.9202449321746826,0.5630544357715086,64.0,643.0,0.0
R,U,"[3, 7]",0.0,1.0,0.288740873336792,2.0449349880218506,0.7410687498548421,64.0,644.0,0.0
R,U,"[2, 7]",-1.0,1.0,0.08700108528137207,5.7814459800720215,0.6391668933151389,64.0,645.0,0.0
R,U,"[1, 7]",0.0,1.0,0.4440269470214844,2.048344850540161,0.6041152499071162,64.0,646.0,0.0
R,U,"[2, 7]",-3.0,1.0,0.25902295112609863,1.7519268989562988,0.48945405155057503,64.0,647.0,0.0
R,U,"[1, 7]",0.0,1.0,0.3039829730987549,1.9021711349487305,0.6081908468265086,64.0,648.0,0.0
R,U,"[2, 7]",-3.0,1.0,0.19501996040344238,1.5808939933776855,0.38922037162707773,64.0,649.0,0.0
R,U,"[1, 7]",0.0,1.0,0.2696380615234375,1.5327019691467285,0.27198297849298425,64.0,650.0,0.0
,,"(6, 6)",,,,,,,,
R,U,"[5, 6]",1.0,1.0,0.4749448299407959,3.927051067352295,0.5487474928081473,65.0,651.0,0.0
Y,R,"[5, 7]",1.0,2.0,0.2853100299835205,1.7514028549194336,0.4668292636006627,65.0,652.0,0.0
Y,R,"[5, 8]",1.0,3.0,0.2702817916870117,1.6570110321044922,0.39060799007748753,65.0,653.0,0.0
G,D,"[6, 8]",1.0,4.0,0.276871919631958,1.7486369609832764,0.47236444542192235,65.0,654.0,0.0
Y,R,"[6, 9]",1.0,5.0,0.289870023727417,1.9770090579986572,0.6825070591546996,65.0,655.0,0.0
Y,R,"[6, 10]",1.0,6.0,0.24249887466430664,1.5748791694641113,0.3242626010091751,65.0,656.0,0.0
R,U,"[5, 10]",1.0,7.0,0.33385300636291504,1.9974260330200195,0.671376697611867,65.0,657.0,0.0
B,L,"[5, 9]",0.0,7.0,0.3028879165649414,1.9894790649414062,0.694162587580088,65.0,658.0,0.0
Y,R,"[5, 10]",-2.0,7.0,5.6725969314575195,7.073341131210327,0.4341798612714432,65.0,659.0,0.0
Y,R,"[5, 11]",-2.0,7.0,1.0323421955108643,2.461143970489502,0.46196787805688955,65.0,660.0,0.0
,,"(6, 6)",,,,,,,,
Y,R,"[6, 7]",0.0,0.0,0.5456268787384033,4.943528890609741,0.47206837404983293,66.0,661.0,0.0
G,D,"[7, 7]",-2.0,0.0,1.0990560054779053,2.772951126098633,0.7118258572018398,66.0,662.0,0.0
B,L,"[7, 6]",0.0,0.0,0.7557780742645264,2.441118001937866,0.6858214354921357,66.0,663.0,0.0
R,U,"[6, 6]",-2.0,0.0,1.05873703956604,2.6801259517669678,0.6491443433910327,66.0,664.0,0.0
R,U,"[5, 6]",1.0,1.0,0.17602300643920898,1.6248810291290283,0.44096672082732297,66.0,665.0,0.0
Y,R,"[5, 7]",1.0,2.0,0.2823030948638916,1.6601591110229492,0.38441602920766954,66.0,666.0,0.0
G,D,"[6, 7]",0.0,2.0,0.27175092697143555,1.9089012145996094,0.643087676960761,66.0,667.0,0.0
B,L,"[6, 6]",0.0,2.0,0.4808018207550049,1.7303400039672852,0.25708615440796145,66.0,668.0,0.0
R,U,"[5, 6]",0.0,2.0,0.8713381290435791,2.275587797164917,0.3991199821295401,66.0,669.0,0.0
Y,R,"[5, 7]",0.0,2.0,0.31499218940734863,2.0181000232696533,0.7001789499962954,66.0,670.0,0.0
,,"(6, 6)",,,,,,,,
R,U,"[5, 6]",1.0,1.0,0.8021750450134277,3.7181661128997803,0.35188322703458996,67.0,671.0,0.0
Y,R,"[5, 7]",1.0,2.0,0.36463499069213867,2.0679471492767334,0.7028929059537634,67.0,672.0,0.0
Y,R,"[5, 8]",1.0,3.0,0.17589282989501953,1.8779749870300293,0.6975093254062696,67.0,673.0,0.0
G,D,"[6, 8]",1.0,4.0,0.21363019943237305,1.6656899452209473,0.44674230479611204,67.0,674.0,0.0
Y,R,"[6, 9]",1.0,5.0,0.27783989906311035,1.7647778987884521,0.4781450084698251,67.0,675.0,0.0
Y,R,"[6, 10]",1.0,6.0,0.22586488723754883,1.6682891845703125,0.4463824884499105,67.0,676.0,0.0
R,U,"[5, 10]",1.0,7.0,0.24158501625061035,1.9523630142211914,0.6984742916232731,67.0,677.0,0.0
R,U,"[4, 10]",1.0,8.0,0.3345189094543457,1.9857888221740723,0.6509555968509082,67.0,678.0,0.0
B,L,"[4, 9]",1.0,9.0,0.2941710948944092,1.9952590465545654,0.6961612645471742,67.0,679.0,0.0
R,U,"[3, 9]",1.0,10.0,0.15616703033447266,1.5297939777374268,0.3595301870183782,67.0,680.0,0.0
,,"(6, 6)",,,,,,,,
R,U,"[5, 6]",1.0,1.0,0.5388009548187256,5.97904896736145,0.5715859550129242,68.0,681.0,0.0
B,L,"[5, 5]",0.0,1.0,0.28513193130493164,1.926457166671753,0.6479480676903675,68.0,682.0,0.0
Y,R,"[5, 6]",0.0,1.0,0.3547501564025879,2.0251901149749756,0.6735149460359073,68.0,683.0,0.0
G,D,"[6, 6]",0.0,1.0,0.26011085510253906,1.756653070449829,0.4965443678403472,68.0,684.0,0.0
B,L,"[6, 5]",0.0,1.0,0.2504310607910156,1.6088330745697021,0.35537683992485103,68.0,685.0,0.0
Y,R,"[6, 6]",0.0,1.0,0.7143840789794922,2.170516014099121,0.45920748414875373,68.0,686.0,0.0
G,D,"[7, 6]",0.0,1.0,0.25669288635253906,1.7191460132598877,0.4615757647377969,68.0,687.0,0.0
B,L,"[7, 5]",0.0,1.0,0.22524595260620117,1.7440900802612305,0.5223671059760114,68.0,688.0,0.0
R,U,"[6, 5]",0.0,1.0,0.2700519561767578,1.9220800399780273,0.6607663922462137,68.0,689.0,0.0
Y,R,"[6, 6]",0.0,1.0,0.2263040542602539,1.9266571998596191,0.7043041113247748,68.0,690.0,0.0
,,"(6, 6)",,,,,,,,
B,L,"[6, 5]",0.0,0.0,0.5906620025634766,3.5551278591156006,0.7424451009783426,69.0,691.0,0.0
B,L,"[6, 4]",0.0,0.0,0.25189208984375,1.9860670566558838,0.7450397135908415,69.0,692.0,0.0
B,L,"[6, 3]",0.0,0.0,0.27222204208374023,1.8972039222717285,0.6257308982339467,69.0,693.0,0.0
B,L,"[6, 2]",0.0,0.0,0.27462196350097656,1.725816011428833,0.45165752689281,69.0,694.0,0.0
B,L,"[6, 1]",0.0,0.0,0.2754509449005127,1.616312026977539,0.3346870999763713,69.0,695.0,0.0
B,L,"[6, 2]",-3.0,0.0,0.2495419979095459,1.7861180305480957,0.5371746637091335,69.0,696.0,0.0
G,D,"[7, 2]",0.0,0.0,0.18924999237060547,1.7626659870147705,0.5664203528581951,69.0,697.0,0.0
Y,R,"[7, 3]",0.0,0.0,0.254594087600708,1.8421919345855713,0.5922630043721386,69.0,698.0,0.0
R,U,"[6, 3]",0.0,0.0,0.27016210556030273,1.7398858070373535,0.4820083760558445,69.0,699.0,0.0
G,D,"[7, 3]",0.0,0.0,0.3655240535736084,1.629262924194336,0.2613354299341185,69.0,700.0,0.0
,,"(6, 6)",,,,,,,,
Y,R,"[6, 7]",0.0,0.0,0.659912109375,4.560967206954956,0.48855704943481687,70.0,701.0,0.0
B,L,"[6, 6]",0.0,0.0,0.414963960647583,1.9397530555725098,0.5282518178794039,70.0,702.0,0.0
G,D,"[7, 6]",0.0,0.0,0.4072110652923584,1.7651889324188232,0.3602481055729246,70.0,703.0,0.0
G,D,"[8, 6]",0.0,0.0,0.39481091499328613,1.8726158142089844,0.48270452693008464,70.0,704.0,0.0
B,L,"[8, 5]",0.0,0.0,0.28641295433044434,1.9384410381317139,0.6543523563375535,70.0,705.0,0.0
R,U,"[7, 5]",0.0,0.0,0.2798600196838379,1.889477014541626,0.6103356004816933,70.0,706.0,0.0
Y,R,"[7, 6]",0.0,0.0,0.2877929210662842,1.7879180908203125,0.5151060418265674,70.0,707.0,0.0
B,L,"[7, 5]",0.0,0.0,0.2867259979248047,1.7261168956756592,0.4412811744425324,70.0,708.0,0.0
G,D,"[8, 5]",0.0,0.0,0.30798816680908203,1.7407910823822021,0.43204837523774026,70.0,709.0,0.0
B,L,"[8, 4]",0.0,0.0,0.4383981227874756,2.061569929122925,0.626629956643719,70.0,710.0,0.0
,,"(6, 6)",,,,,,,,
Y,R,"[6, 7]",0.0,0.0,0.5161929130554199,3.181363105773926,0.4914843401455631,71.0,711.0,0.0
G,D,"[7, 7]",0.0,0.0,0.15666604042053223,1.4498322010040283,0.2913974779866874,71.0,712.0,0.0
R,U,"[6, 7]",0.0,0.0,0.34575700759887695,2.087878942489624,0.7454537219890044,71.0,713.0,0.0
B,L,"[6, 6]",-1.0,0.0,0.028090953826904297,5.469995975494385,0.3823541068901181,71.0,714.0,0.0
R,U,"[5, 6]",1.0,1.0,0.4099409580230713,1.8750009536743164,0.4573236108917605,71.0,715.0,0.0
B,L,"[5, 5]",0.0,1.0,0.25426292419433594,1.5935750007629395,0.3509856831613776,71.0,716.0,0.0
G,D,"[6, 5]",0.0,1.0,0.6563050746917725,2.0230469703674316,0.3573180067017329,71.0,717.0,0.0
Y,R,"[6, 6]",0.0,1.0,0.4828610420227051,2.218747854232788,0.742188037237926,71.0,718.0,0.0
B,L,"[6, 5]",0.0,1.0,0.24788784980773926,1.5321710109710693,0.2915368027192903,71.0,719.0,0.0
G,D,"[7, 5]",0.0,1.0,0.5380370616912842,2.0955331325531006,0.570068227233466,71.0,720.0,0.0
,,"(6, 6)",,,,,,,,
Y,R,"[6, 7]",0.0,0.0,0.8408558368682861,4.485658168792725,0.7391354669722912,72.0,721.0,0.0
R,U,"[5, 7]",1.0,1.0,0.32714414596557617,1.789180040359497,0.461546072445204,72.0,722.0,0.0
R,U,"[4, 7]",0.0,1.0,0.4991288185119629,2.1502339839935303,0.6615365540497837,72.0,723.0,0.0
B,L,"[4, 6]",0.0,1.0,0.43808889389038086,2.122936964035034,0.6843385252055162,72.0,724.0,0.0
R,U,"[3, 6]",0.0,1.0,0.3824329376220703,1.9574239253997803,0.5752551351261492,72.0,725.0,0.0
R,U,"[2, 6]",0.0,1.0,0.3594348430633545,1.7862811088562012,0.428177852400526,72.0,726.0,0.0
Y,R,"[2, 7]",0.0,1.0,0.5031130313873291,1.9293620586395264,0.4409463779512704,72.0,727.0,0.0
Y,R,"[2, 8]",0.0,1.0,0.4362061023712158,1.704848051071167,0.2792116742428961,72.0,728.0,0.0
G,D,"[3, 8]",0.0,1.0,0.692086935043335,2.328343152999878,0.6238744547302502,72.0,729.0,0.0
Y,R,"[3, 9]",1.0,2.0,0.32132482528686523,1.8205711841583252,0.5110818935285885,72.0,730.0,0.0
,,"(6, 6)",,,,,,,,
R,U,"[5, 6]",1.0,1.0,0.8919858932495117,5.730458974838257,0.624702866449518,73.0,731.0,0.0
Y,R,"[5, 7]",1.0,2.0,0.31964802742004395,1.667949914932251,0.35969307416724955,73.0,732.0,0.0
B,L,"[5, 6]",0.0,2.0,0.388808012008667,1.9570560455322266,0.5663759689765975,73.0,733.0,0.0
G,D,"[6, 6]",0.0,2.0,0.3161289691925049,1.8035688400268555,0.48665699911577975,73.0,734.0,0.0
B,L,"[6, 5]",0.0,2.0,0.294025182723999,1.9283909797668457,0.631491211481972,73.0,735.0,0.0
Y,R,"[6, 6]",0.0,2.0,0.2586960792541504,1.9617648124694824,0.6932517253980723,73.0,736.0,0.0
G,D,"[7, 6]",0.0,2.0,0.25861287117004395,1.8038339614868164,0.5471075060662023,73.0,737.0,0.0
B,L,"[7, 5]",0.0,2.0,0.2999138832092285,1.6191978454589844,0.3164832926583225,73.0,738.0,0.0
G,D,"[8, 5]",0.0,2.0,0.62021803855896,2.2714409828186035,0.6541494382789397,73.0,739.0,0.0
R,U,"[7, 5]",0.0,2.0,0.23189496994018555,1.924522876739502,0.6952653799969162,73.0,740.0,0.0
,,"(6, 6)",,,,,,,,
B,L,"[6, 5]",0.0,0.0,0.7662289142608643,3.683518886566162,0.5288471784380188,74.0,741.0,0.0
Y,R,"[6, 6]",0.0,0.0,0.27385401725769043,1.7102429866790771,0.43913657527836353,74.0,742.0,0.0
G,D,"[7, 6]",0.0,0.0,0.6268777847290039,2.114622116088867,0.48701759705820463,74.0,743.0,0.0
B,L,"[7, 5]",0.0,0.0,0.40523195266723633,1.7208261489868164,0.30806680628271726,74.0,744.0,0.0
B,L,"[7, 4]",0.0,0.0,0.47173094749450684,2.128704071044922,0.653026495355602,74.0,745.0,0.0
G,D,"[8, 4]",-2.0,0.0,1.0436840057373047,2.696287155151367,0.682567609118634,74.0,746.0,0.0
G,D,"[9, 4]",0.0,0.0,0.38820409774780273,2.1194000244140625,0.7186058635617434,74.0,747.0,0.0
Y,R,"[9, 5]",0.0,0.0,0.2804548740386963,1.9236929416656494,0.6426944837005386,74.0,748.0,0.0
B,L,"[9, 4]",0.0,0.0,0.2517280578613281,1.9302730560302734,0.6890655769583935,74.0,749.0,0.0
Y,R,"[9, 5]",0.0,0.0,0.26244306564331055,2.0061328411102295,0.7452116123118353,74.0,750.0,0.0
,,"(6, 6)",,,,,,,,
G,D,"[7, 6]",0.0,0.0,0.5641720294952393,3.252403974533081,0.5143988339622281,75.0,751.0,0.0
R,U,"[6, 6]",0.0,0.0,0.3577420711517334,1.6720390319824219,0.3033246198069632,75.0,752.0,0.0
B,L,"[6, 5]",0.0,0.0,0.3790891170501709,2.1258270740509033,0.7453183876720488,75.0,753.0,0.0
Y,R,"[6, 6]",0.0,0.0,0.24271297454833984,1.6017000675201416,0.3473892071853386,75.0,754.0,0.0
B,L,"[6, 5]",0.0,0.0,0.3977041244506836,1.8017199039459229,0.3989243388409749,75.0,755.0,0.0
G,D,"[7, 5]",0.0,0.0,0.4707210063934326,1.950646162033081,0.48286142128666154,75.0,756.0,0.0
Y,R,"[7, 6]",0.0,0.0,0.4266810417175293,2.121993064880371,0.6878981142743071,75.0,757.0,0.0
B,L,"[7, 5]",0.0,0.0,0.31310200691223145,1.7427191734313965,0.43085137558574804,75.0,758.0,0.0
R,U,"[6, 5]",0.0,0.0,0.41751694679260254,2.103971004486084,0.6845927287806512,75.0,759.0,0.0
B,L,"[6, 4]",0.0,0.0,0.2172398567199707,1.5610010623931885,0.34581594752358286,75.0,760.0,0.0
,,"(6, 6)",,,,,,,,
G,D,"[7, 6]",0.0,0.0,0.5003221035003662,3.321805000305176,0.46745369938601666,76.0,761.0,0.0
B,L,"[7, 5]",0.0,0.0,0.2956559658050537,1.87581205368042,0.576454453615058,76.0,762.0,0.0
Y,R,"[7, 6]",0.0,0.0,0.3249077796936035,1.9706099033355713,0.6470228734123558,76.0,763.0,0.0
B,L,"[7, 5]",-1.0,0.0,0.06237602233886719,5.7924299240112305,0.6391736126111265,76.0,764.0,0.0
B,L,"[7, 4]",0.0,0.0,0.8822200298309326,2.131974220275879,0.2548026615721259,76.0,765.0,0.0
Y,R,"[7, 5]",0.0,0.0,0.5527520179748535,2.003103017807007,0.4576584696869389,76.0,766.0,0.0
G,D,"[8, 5]",0.0,0.0,0.5551340579986572,2.2872002124786377,0.7446905340933747,76.0,767.0,0.0
B,L,"[8, 4]",0.0,0.0,0.30847883224487305,1.7999420166015625,0.49474204870155275,76.0,768.0,0.0
R,U,"[7, 4]",0.0,0.0,0.4555199146270752,1.7156801223754883,0.26050867620017615,76.0,769.0,0.0
B,L,"[7, 3]",0.0,0.0,0.49080491065979004,2.1452550888061523,0.6554779427970936,76.0,770.0,0.0
,,"(6, 6)",,,,,,,,
B,L,"[6, 5]",0.0,0.0,0.8634219169616699,4.3555989265441895,0.6443219071503208,77.0,771.0,0.0
G,D,"[7, 5]",0.0,0.0,0.43877506256103516,1.783715009689331,0.36162914339640895,77.0,772.0,0.0
Y,R,"[7, 6]",0.0,0.0,0.5774259567260742,1.9024279117584229,0.33065482352981296,77.0,773.0,0.0
G,D,"[8, 6]",0.0,0.0,0.5048909187316895,2.0834779739379883,0.5638921269623963,77.0,774.0,0.0
B,L,"[8, 5]",0.0,0.0,0.4776439666748047,1.8058550357818604,0.3198480662386471,77.0,775.0,0.0
Y,R,"[8, 6]",0.0,0.0,0.4293489456176758,1.712839126586914,0.2827935403656666,77.0,776.0,0.0
G,D,"[9, 6]",0.0,0.0,0.7236859798431396,2.1707119941711426,0.43683577551131175,77.0,777.0,0.0
G,D,"[10, 6]",0.0,0.0,0.4861159324645996,2.015894889831543,0.5356768294799163,77.0,778.0,0.0
B,L,"[10, 5]",0.0,0.0,0.21045684814453125,1.6070311069488525,0.39272881291141154,77.0,779.0,0.0
B,L,"[10, 4]",0.0,0.0,0.39647579193115234,1.7961909770965576,0.405666630825253,77.0,780.0,0.0
,,"(6, 6)",,,,,,,,
R,U,"[5, 6]",1.0,1.0,0.9166650772094727,3.568856954574585,0.3411922860508104,78.0,781.0,0.0
G,D,"[6, 6]",0.0,1.0,0.44083714485168457,2.177095890045166,0.7345214110556186,78.0,782.0,0.0
Y,R,"[6, 7]",0.0,1.0,0.2622809410095215,1.7940411567687988,0.5287197340670091,78.0,783.0,0.0
B,L,"[6, 6]",0.0,1.0,0.24919915199279785,1.8344340324401855,0.5797057776927569,78.0,784.0,0.0
G,D,"[7, 6]",0.0,1.0,0.29096293449401855,1.8007168769836426,0.49705878235657275,78.0,785.0,0.0
B,L,"[7, 5]",0.0,1.0,0.22122502326965332,1.6457908153533936,0.42629434462011256,78.0,786.0,0.0
R,U,"[6, 5]",0.0,1.0,0.4235689640045166,2.1407999992370605,0.7167396946517065,78.0,787.0,0.0
Y,R,"[6, 6]",-1.0,1.0,0.0278780460357666,5.336377143859863,0.2533433537346503,78.0,788.0,0.0
Y,R,"[6, 7]",0.0,1.0,0.5706892013549805,2.0970380306243896,0.533564164435951,78.0,789.0,0.0
B,L,"[6, 6]",0.0,1.0,0.32717418670654297,1.9181668758392334,0.5849404394642888,78.0,790.0,0.0
,,"(6, 6)",,,,,,,,
G,D,"[7, 6]",0.0,0.0,0.5410408973693848,3.486614942550659,0.7047290072119627,79.0,791.0,0.0
B,L,"[7, 5]",0.0,0.0,0.2312180995941162,1.6934430599212646,0.464988246606072,79.0,792.0,0.0
R,U,"[6, 5]",0.0,0.0,0.30715084075927734,1.8788609504699707,0.5603994329174411,79.0,793.0,0.0
Y,R,"[6, 6]",0.0,0.0,0.32445812225341797,1.6740100383758545,0.3511502710065715,79.0,794.0,0.0
B,L,"[6, 5]",0.0,0.0,0.7617619037628174,2.450780153274536,0.6849758588967992,79.0,795.0,0.0
G,D,"[7, 5]",0.0,0.0,0.36219096183776855,1.8926291465759277,0.5276839084024307,79.0,796.0,0.0
R,U,"[6, 5]",0.0,0.0,0.35173511505126953,1.7256879806518555,0.38681037365933985,79.0,797.0,0.0
B,L,"[6, 4]",0.0,0.0,0.459489107131958,1.8002870082855225,0.3370375420472697,79.0,798.0,0.0
Y,R,"[6, 5]",0.0,0.0,0.332395076751709,1.896087884902954,0.5663005265378844,79.0,799.0,0.0
G,D,"[7, 5]",0.0,0.0,0.39780592918395996,1.839440107345581,0.4390163436727077,79.0,800.0,0.0
,,"(6, 6)",,,,,,,,
G,D,"[7, 6]",0.0,0.0,0.9676640033721924,4.313661813735962,0.5360347309343645,80.0,801.0,0.0
B,L,"[7, 5]",0.0,0.0,0.30831193923950195,1.7869129180908203,0.4727715309105861,80.0,802.0,0.0
G,D,"[8, 5]",0.0,0.0,0.44998979568481445,1.805994987487793,0.3622637720672807,80.0,803.0,0.0
R,U,"[7, 5]",-2.0,0.0,1.0202908515930176,2.735300064086914,0.7471740688338253,80.0,804.0,0.0
Y,R,"[7, 6]",0.0,0.0,0.3939688205718994,1.7910640239715576,0.3885239124207162,80.0,805.0,0.0
B,L,"[7, 5]",0.0,0.0,0.7231330871582031,2.135202169418335,0.42357069850232276,80.0,806.0,0.0
B,L,"[7, 4]",0.0,0.0,0.5552630424499512,2.036614179611206,0.49339129827758155,80.0,807.0,0.0
Y,R,"[7, 5]",0.0,0.0,0.3789339065551758,1.964684009552002,0.5913517967634827,80.0,808.0,0.0
B,L,"[7, 4]",0.0,0.0,0.24424481391906738,1.545910120010376,0.3040599873615702,80.0,809.0,0.0
R,U,"[6, 4]",0.0,0.0,0.3804190158843994,2.0758180618286133,0.6962540722616034,80.0,810.0,0.0
,,"(6, 6)",,,,,,,,
G,D,"[7, 6]",0.0,0.0,0.8137900829315186,3.9811599254608154,0.3442412807597064,81.0,811.0,0.0
R,U,"[6, 6]",0.0,0.0,0.2511780261993408,1.9816031455993652,0.7421736549237679,81.0,812.0,0.0
B,L,"[6, 5]",-2.0,0.0,1.2438499927520752,2.5689589977264404,0.36138086041788203,81.0,813.0,0.0
Y,R,"[6, 6]",-2.0,0.0,1.4762251377105713,2.7176408767700195,0.2790377843124839,81.0,814.0,0.0
G,D,"[7, 6]",-2.0,0.0,1.0848641395568848,2.51004695892334,0.45558597422122865,81.0,815.0,0.0
R,U,"[6, 6]",0.0,0.0,0.4298241138458252,2.060788154602051,0.6327709318912658,81.0,816.0,0.0
B,L,"[6, 5]",0.0,0.0,0.4141089916229248,2.116856098175049,0.6995739118038258,81.0,817.0,0.0
G,D,"[7, 5]",0.0,0.0,0.4184441566467285,2.0099780559539795,0.5929616244364484,81.0,818.0,0.0
R,U,"[6, 5]",0.0,0.0,0.2813701629638672,1.7224969863891602,0.44893988578518174,81.0,819.0,0.0
B,L,"[6, 4]",0.0,0.0,0.510063886642456,2.24857497215271,0.7304928543248979,81.0,820.0,0.0
,,"(6, 6)",,,,,,,,
Y,R,"[6, 7]",0.0,0.0,0.5213601589202881,3.8342819213867188,0.5481772230754149,82.0,821.0,0.0
B,L,"[6, 6]",0.0,0.0,0.3036940097808838,1.8137199878692627,0.5119129690314922,82.0,822.0,0.0
G,D,"[7, 6]",0.0,0.0,0.28923797607421875,1.6328799724578857,0.36151053735058103,82.0,823.0,0.0
B,L,"[7, 5]",0.0,0.0,0.31230902671813965,1.7641699314117432,0.45896645715924317,82.0,824.0,0.0
R,U,"[6, 5]",0.0,0.0,0.37463903427124023,1.8702208995819092,0.49565980676758553,82.0,825.0,0.0
G,D,"[7, 5]",0.0,0.0,0.380342960357666,1.6665101051330566,0.2791278047621673,82.0,826.0,0.0
B,L,"[7, 4]",0.0,0.0,0.4781808853149414,2.234233856201172,0.7461608353156872,82.0,827.0,0.0
B,L,"[7, 3]",0.0,0.0,0.5282938480377197,1.8857388496398926,0.348913254660442,82.0,828.0,0.0
Y,R,"[7, 4]",0.0,0.0,0.7379469871520996,2.0001769065856934,0.2657107288805086,82.0,829.0,0.0
B,L,"[7, 3]",0.0,0.0,0.46092891693115234,1.7210228443145752,0.2535035906270938,82.0,830.0,0.0
,,"(6, 6)",,,,,,,,
Y,R,"[6, 7]",0.0,0.0,0.33394694328308105,3.1773698329925537,0.7136229451448279,83.0,831.0,0.0
R,U,"[5, 7]",1.0,1.0,0.2708919048309326,1.9935979843139648,0.7238169236009322,83.0,832.0,0.0
Y,R,"[5, 8]",1.0,2.0,0.21250104904174805,1.9096579551696777,0.700591929068297,83.0,833.0,0.0
B,L,"[5, 7]",-1.0,2.0,0.04318714141845703,5.589730978012085,0.48984361847324304,83.0,834.0,0.0
R,U,"[4, 7]",0.0,2.0,0.633491039276123,2.1320838928222656,0.505330603025995,83.0,835.0,0.0
R,U,"[3, 7]",0.0,2.0,0.42513585090637207,1.8625659942626953,0.43459395417058594,83.0,836.0,0.0
Y,R,"[3, 8]",0.0,2.0,0.2654728889465332,1.6060500144958496,0.3405866831354604,83.0,837.0,0.0
G,D,"[4, 8]",0.0,2.0,0.39242100715637207,1.730269193649292,0.33764044797689724,83.0,838.0,0.0
B,L,"[4, 7]",0.0,2.0,0.30307817459106445,1.728450059890747,0.43256668083790895,83.0,839.0,0.0
B,L,"[4, 6]",0.0,2.0,0.363753080368042,2.067556142807007,0.7001129897548275,83.0,840.0,0.0
,,"(6, 6)",,,,,,,,
R,U,"[5, 6]",1.0,1.0,0.3553791046142578,3.182535171508789,0.682304385940106,84.0,841.0,0.0
Y,R,"[5, 7]",1.0,2.0,0.2666909694671631,1.6824390888214111,0.41495611688508055,84.0,842.0,0.0
Y,R,"[5, 8]",1.0,3.0,0.27738189697265625,1.703873872756958,0.41886100100706536,84.0,843.0,0.0
G,D,"[6, 8]",1.0,4.0,0.29340600967407227,1.8123390674591064,0.5143138838319645,84.0,844.0,0.0
Y,R,"[6, 9]",1.0,5.0,0.21168208122253418,1.623081922531128,0.4042325080749733,84.0,845.0,0.0
Y,R,"[6, 10]",1.0,6.0,0.4140620231628418,1.7554559707641602,0.3430168825190702,84.0,846.0,0.0
R,U,"[5, 10]",1.0,7.0,0.39930295944213867,1.8305799961090088,0.44007586275172345,84.0,847.0,0.0
B,L,"[5, 9]",0.0,7.0,0.23272204399108887,1.8885869979858398,0.6616666007519048,84.0,848.0,0.0
R,U,"[4, 9]",-1.0,7.0,0.07733297348022461,5.6934449672698975,0.5551999732070505,84.0,849.0,0.0
R,U,"[3, 9]",1.0,8.0,0.24327492713928223,1.9113860130310059,0.6664188630195254,84.0,850.0,0.0
,,"(6, 6)",,,,,,,,
G,D,"[7, 6]",0.0,0.0,0.4323279857635498,9.024219989776611,0.45736909739150766,85.0,851.0,0.0
B,L,"[7, 5]",0.0,0.0,0.34998607635498047,1.6151878833770752,0.27266464287652054,85.0,852.0,0.0
Y,R,"[7, 6]",0.0,0.0,0.7731490135192871,2.0918989181518555,0.31448086627900096,85.0,853.0,0.0
B,L,"[7, 5]",0.0,0.0,0.7031681537628174,2.1579041481018066,0.4555887619385402,85.0,854.0,0.0
G,D,"[8, 5]",0.0,0.0,0.2692239284515381,1.9972422122955322,0.7357069015115186,85.0,855.0,0.0
B,L,"[8, 4]",0.0,0.0,0.17427492141723633,1.7897660732269287,0.608977875479823,85.0,856.0,0.0
R,U,"[7, 4]",0.0,0.0,0.28880786895751953,1.7536048889160156,0.4626804350268416,85.0,857.0,0.0
B,L,"[7, 3]",0.0,0.0,0.3250880241394043,2.0160179138183594,0.678349526849292,85.0,858.0,0.0
R,U,"[6, 3]",0.0,0.0,0.11193394660949707,1.5814158916473389,0.45995207486302286,85.0,859.0,0.0
G,D,"[7, 3]",0.0,0.0,0.28171706199645996,1.7134900093078613,0.4402058508145843,85.0,860.0,0.0
,,"(6, 6)",,,,,,,,
Y,R,"[6, 7]",0.0,0.0,0.575563907623291,3.4794669151306152,0.619822232057269,86.0,861.0,0.0
B,L,"[6, 6]",0.0,0.0,0.36976194381713867,1.911829948425293,0.5479329622474897,86.0,862.0,0.0
Y,R,"[6, 7]",0.0,0.0,0.28904104232788086,1.9931490421295166,0.6908100013763129,86.0,863.0,0.0
G,D,"[7, 7]",0.0,0.0,0.2607870101928711,1.9823358058929443,0.7231460039969364,86.0,864.0,0.0
B,L,"[7, 6]",0.0,0.0,0.25931811332702637,1.7725999355316162,0.5125640621949382,86.0,865.0,0.0
R,U,"[6, 6]",0.0,0.0,0.3483550548553467,1.8284358978271484,0.4743498633951433,86.0,866.0,0.0
G,D,"[7, 6]",0.0,0.0,0.2783088684082031,1.8006398677825928,0.5249469990077127,86.0,867.0,0.0
Y,R,"[7, 7]",0.0,0.0,0.26157498359680176,1.9411489963531494,0.6824257045352708,86.0,868.0,0.0
B,L,"[7, 6]",0.0,0.0,0.2352919578552246,1.9116771221160889,0.6775205778230464,86.0,869.0,0.0
G,D,"[8, 6]",0.0,0.0,0.3162858486175537,2.03381609916687,0.7278966290966817,86.0,870.0,0.0
,,"(6, 6)",,,,,,,,
Y,R,"[6, 7]",0.0,0.0,0.6569850444793701,3.1823270320892334,0.29395523965880155,87.0,871.0,0.0
R,U,"[5, 7]",1.0,1.0,0.2766258716583252,1.8117029666900635,0.5387251728383605,87.0,872.0,0.0
G,D,"[6, 7]",-1.0,1.0,0.04441690444946289,5.45505690574646,0.343787312413558,87.0,873.0,0.0
G,D,"[7, 7]",0.0,1.0,0.35527896881103516,2.0461928844451904,0.6894951435644256,87.0,874.0,0.0
G,D,"[8, 7]",0.0,1.0,0.20286297798156738,1.8385591506958008,0.6447107331168465,87.0,875.0,0.0
B,L,"[8, 6]",0.0,1.0,0.28951096534729004,1.8779699802398682,0.5894823703213785,87.0,876.0,0.0
Y,R,"[8, 7]",0.0,1.0,0.45017313957214355,1.83278489112854,0.38910998061252583,87.0,877.0,0.0
B,L,"[8, 6]",0.0,1.0,0.6437811851501465,2.3601949214935303,0.7155782887421603,87.0,878.0,0.0
G,D,"[9, 6]",0.0,1.0,0.3111119270324707,1.9232571125030518,0.6056136849191275,87.0,879.0,0.0
R,U,"[8, 6]",0.0,1.0,0.877500057220459,2.2666819095611572,0.3889946761455253,87.0,880.0,0.0
,,"(6, 6)",,,,,,,,
G,D,"[7, 6]",0.0,0.0,0.9635469913482666,3.8805010318756104,0.3860997741182817,88.0,881.0,0.0
B,L,"[7, 5]",0.0,0.0,0.626380205154419,1.9020848274230957,0.2716621145442118,88.0,882.0,0.0
Y,R,"[7, 6]",0.0,0.0,0.522057056427002,2.216075897216797,0.703956098831315,88.0,883.0,0.0
R,U,"[6, 6]",0.0,0.0,0.34368300437927246,1.8361990451812744,0.49022166880777335,88.0,884.0,0.0
G,D,"[7, 6]",0.0,0.0,0.3223459720611572,1.6968960762023926,0.3706087886215131,88.0,885.0,0.0
B,L,"[7, 5]",0.0,0.0,0.699368953704834,2.3956410884857178,0.6994812426108966,88.0,886.0,0.0
Y,R,"[7, 6]",0.0,0.0,0.3053410053253174,2.041496992111206,0.7411831929392869,88.0,887.0,0.0
G,D,"[8, 6]",0.0,0.0,0.4232168197631836,1.7369649410247803,0.31136806950776214,88.0,888.0,0.0
B,L,"[8, 5]",0.0,0.0,0.43065905570983887,2.0907721519470215,0.6686571782343782,88.0,889.0,0.0
B,L,"[8, 4]",-1.0,0.0,0.0211489200592041,5.7525410652160645,0.6707878221163982,88.0,890.0,0.0
,,"(6, 6)",,,,,,,,
G,D,"[7, 6]",0.0,0.0,0.5309708118438721,5.232378005981445,0.6030642045042378,89.0,891.0,0.0
B,L,"[7, 5]",0.0,0.0,0.1982419490814209,1.721911907196045,0.5249578359796446,89.0,892.0,0.0
G,D,"[8, 5]",0.0,0.0,0.6385998725891113,2.239438056945801,0.5977088366307652,89.0,893.0,0.0
Y,R,"[8, 6]",0.0,0.0,0.39354610443115234,1.661158800125122,0.25906812578617516,89.0,894.0,0.0
G,D,"[9, 6]",0.0,0.0,0.6445322036743164,1.9278249740600586,0.28685777817529395,89.0,895.0,0.0
B,L,"[9, 5]",0.0,0.0,0.38716602325439453,2.1147689819335938,0.7344685062692533,89.0,896.0,0.0
G,D,"[10, 5]",0.0,0.0,0.5378458499908447,2.2439210414886475,0.71174949596639,89.0,897.0,0.0
R,U,"[9, 5]",0.0,0.0,0.2977309226989746,1.8130431175231934,0.5249991994504456,89.0,898.0,0.0
B,L,"[9, 4]",0.0,0.0,0.30246901512145996,1.791534185409546,0.4998054896712195,89.0,899.0,0.0
Y,R,"[9, 5]",0.0,0.0,0.4194300174713135,1.8053991794586182,0.3886505443083879,89.0,900.0,0.0
,,"(6, 6)",,,,,,,,
R,U,"[5, 6]",1.0,1.0,0.5539939403533936,6.833936929702759,0.6888115156556509,90.0,901.0,0.0
G,D,"[6, 6]",0.0,1.0,0.30935192108154297,1.7126340866088867,0.4016164788667731,90.0,902.0,0.0
B,L,"[6, 5]",0.0,1.0,0.47836780548095703,1.9981188774108887,0.5162889861826458,90.0,903.0,0.0
G,D,"[7, 5]",0.0,1.0,0.40838003158569336,1.9236321449279785,0.5065553218287003,90.0,904.0,0.0
B,L,"[7, 4]",0.0,1.0,0.49670982360839844,1.9123411178588867,0.418956910749702,90.0,905.0,0.0
Y,R,"[7, 5]",0.0,1.0,0.5470180511474609,2.163426160812378,0.6153889162504234,90.0,906.0,0.0
G,D,"[8, 5]",0.0,1.0,0.4083850383758545,1.719135046005249,0.301446622549176,90.0,907.0,0.0
B,L,"[8, 4]",0.0,1.0,0.6709058284759521,2.1670022010803223,0.5015191606135265,90.0,908.0,0.0
R,U,"[7, 4]",0.0,1.0,0.4160759449005127,1.7535290718078613,0.3386678371507115,90.0,909.0,0.0
G,D,"[8, 4]",-2.0,1.0,2.873487949371338,4.403378009796143,0.5416917536161645,90.0,910.0,0.0
,,"(6, 6)",,,,,,,,
R,U,"[5, 6]",-2.0,0.0,1.0646910667419434,3.1767399311065674,0.2686120429091376,91.0,911.0,0.0
G,D,"[6, 6]",0.0,0.0,0.411207914352417,1.8198177814483643,0.4048444469284525,91.0,912.0,0.0
B,L,"[6, 5]",0.0,0.0,0.432873010635376,2.138139009475708,0.7094486822329111,91.0,913.0,0.0
Y,R,"[6, 6]",0.0,0.0,0.3334991931915283,1.7771971225738525,0.45349854288349034,91.0,914.0,0.0
Y,R,"[6, 7]",-1.0,0.0,0.07781100273132324,5.808032989501953,0.661229676559137,91.0,915.0,0.0
G,D,"[7, 7]",0.0,0.0,0.23607301712036133,1.6411769390106201,0.41915939415843695,91.0,916.0,0.0
R,U,"[6, 7]",0.0,0.0,0.6601941585540771,2.2274978160858154,0.563139058185371,91.0,917.0,0.0
B,L,"[6, 6]",0.0,0.0,0.5110721588134766,1.7762408256530762,0.25639093071214764,91.0,918.0,0.0
G,D,"[7, 6]",0.0,0.0,0.5874528884887695,2.203037977218628,0.6257040103146292,91.0,919.0,0.0
B,L,"[7, 5]",0.0,0.0,0.315093994140625,1.7979621887207031,0.49042518773882265,91.0,920.0,0.0
,,"(6, 6)",,,,,,,,
R,U,"[5, 6]",1.0,1.0,0.46375608444213867,4.497502088546753,0.7208363006964076,92.0,921.0,0.0
G,D,"[6, 6]",0.0,1.0,0.22793889045715332,1.925800085067749,0.6966812054158613,92.0,922.0,0.0
R,U,"[5, 6]",0.0,1.0,0.47089600563049316,1.7943382263183594,0.32468057598045963,92.0,923.0,0.0
G,D,"[6, 6]",0.0,1.0,0.8325960636138916,2.30964994430542,0.4841279253394393,92.0,924.0,0.0
R,U,"[5, 6]",0.0,1.0,0.4060020446777344,2.162355899810791,0.7462070703399121,92.0,925.0,0.0
G,D,"[6, 6]",0.0,1.0,0.39336395263671875,1.966331958770752,0.5627892095860298,92.0,926.0,0.0
R,U,"[5, 6]",0.0,1.0,0.4703540802001953,1.9256258010864258,0.4550844517537212,92.0,927.0,0.0
G,D,"[6, 6]",0.0,1.0,0.425692081451416,1.7023308277130127,0.2741557299833105,92.0,928.0,0.0
R,U,"[5, 6]",0.0,1.0,0.500648021697998,1.7991969585418701,0.306581373722883,92.0,929.0,0.0
G,D,"[6, 6]",0.0,1.0,0.422670841217041,1.7169110774993896,0.3067398981162111,92.0,930.0,0.0
,,"(6, 6)",,,,,,,,
R,U,"[5, 6]",1.0,1.0,0.589285135269165,3.3902580738067627,0.4635441681536079,93.0,931.0,0.0
G,D,"[6, 6]",0.0,1.0,0.657904863357544,2.0006680488586426,0.3309452103894266,93.0,932.0,0.0
G,D,"[7, 6]",0.0,1.0,0.6239190101623535,2.122875928878784,0.4869664642884731,93.0,933.0,0.0
R,U,"[6, 6]",0.0,1.0,0.9451899528503418,2.2675788402557373,0.3213540116557479,93.0,934.0,0.0
G,D,"[7, 6]",0.0,1.0,0.27737903594970703,2.0140738487243652,0.7348581538268453,93.0,935.0,0.0
B,L,"[7, 5]",0.0,1.0,0.2928941249847412,1.9297618865966797,0.6313774969272486,93.0,936.0,0.0
G,D,"[8, 5]",0.0,1.0,0.5285189151763916,2.232222080230713,0.6968475592122012,93.0,937.0,0.0
G,D,"[9, 5]",0.0,1.0,0.21021699905395508,1.5470879077911377,0.32767220625564303,93.0,938.0,0.0
R,U,"[8, 5]",0.0,1.0,0.387969970703125,1.8203608989715576,0.4477708528277489,93.0,939.0,0.0
B,L,"[8, 4]",0.0,1.0,0.8814880847930908,2.5281519889831543,0.6424642025070577,93.0,940.0,0.0
,,"(6, 6)",,,,,,,,
R,U,"[5, 6]",1.0,1.0,0.7081499099731445,5.288718938827515,0.4645396051662902,94.0,941.0,0.0
G,D,"[6, 6]",0.0,1.0,0.6987869739532471,1.9876270294189453,0.2855055765398285,94.0,942.0,0.0
R,U,"[5, 6]",0.0,1.0,0.6414580345153809,2.0121381282806396,0.36423939071743716,94.0,943.0,0.0
G,D,"[6, 6]",0.0,1.0,0.7767860889434814,2.2137880325317383,0.42817663192576577,94.0,944.0,0.0
R,U,"[5, 6]",0.0,1.0,0.40774106979370117,1.9782991409301758,0.5727653499888106,94.0,945.0,0.0
R,U,"[4, 6]",0.0,1.0,0.265470027923584,1.9831500053405762,0.7224140665707464,94.0,946.0,0.0
G,D,"[5, 6]",-1.0,1.0,0.08708715438842773,5.853634834289551,0.7091953731787871,94.0,947.0,0.0
G,D,"[6, 6]",0.0,1.0,0.6630411148071289,1.9779078960418701,0.32085090520874976,94.0,948.0,0.0
R,U,"[5, 6]",0.0,1.0,0.7968699932098389,2.170830011367798,0.3749177926577823,94.0,949.0,0.0
G,D,"[6, 6]",0.0,1.0,0.5449578762054443,2.1043930053710938,0.562392199930992,94.0,950.0,0.0
,,"(6, 6)",,,,,,,,
G,D,"[7, 6]",0.0,0.0,0.5284011363983154,4.753413200378418,0.6323040451283404,95.0,951.0,0.0
R,U,"[6, 6]",0.0,0.0,0.3273890018463135,1.6927778720855713,0.3587000819480331,95.0,952.0,0.0
R,U,"[5, 6]",1.0,1.0,0.6310899257659912,2.0047450065612793,0.380021420868327,95.0,953.0,0.0
G,D,"[6, 6]",0.0,1.0,0.5022728443145752,1.8234210014343262,0.32013896994511176,95.0,954.0,0.0
B,L,"[6, 5]",0.0,1.0,0.47458600997924805,1.9766600131988525,0.4965576292858897,95.0,955.0,0.0
Y,R,"[6, 6]",0.0,1.0,0.6242048740386963,2.066164970397949,0.42927536484546197,95.0,956.0,0.0
G,D,"[7, 6]",0.0,1.0,0.5286037921905518,2.0381791591644287,0.5007191983570921,95.0,957.0,0.0
G,D,"[8, 6]",-2.0,1.0,3.3802731037139893,4.881596088409424,0.5322352751257187,95.0,958.0,0.0
G,D,"[9, 6]",0.0,1.0,0.34788084030151367,1.6791911125183105,0.3282598175454035,95.0,959.0,0.0
R,U,"[8, 6]",-2.0,1.0,1.033160924911499,2.6418371200561523,0.6529554025800692,95.0,960.0,0.0
,,"(6, 6)",,,,,,,,
Y,R,"[6, 7]",0.0,0.0,0.4715690612792969,3.932711124420166,0.4525406881269094,96.0,961.0,0.0
B,L,"[6, 6]",0.0,0.0,0.35205888748168945,1.673868179321289,0.32651435264644146,96.0,962.0,0.0
R,U,"[5, 6]",1.0,1.0,0.28725099563598633,1.9849400520324707,0.7110455360593955,96.0,963.0,0.0
G,D,"[6, 6]",0.0,1.0,0.20471882820129395,1.4670979976654053,0.27852794127927943,96.0,964.0,0.0
B,L,"[6, 5]",0.0,1.0,0.35806798934936523,1.659512996673584,0.30465954573649845,96.0,965.0,0.0
Y,R,"[6, 6]",0.0,1.0,0.5172431468963623,1.9785981178283691,0.4663793651876536,96.0,966.0,0.0
G,D,"[7, 6]",0.0,1.0,0.2950401306152344,1.7055630683898926,0.4053143414718512,96.0,967.0,0.0
B,L,"[7, 5]",0.0,1.0,0.37220287322998047,1.8550431728363037,0.47688196743958,96.0,968.0,0.0
R,U,"[6, 5]",-1.0,1.0,0.03649497032165527,5.369791030883789,0.2800777592132601,96.0,969.0,0.0
R,U,"[5, 5]",-2.0,1.0,1.1776609420776367,2.8098719120025635,0.6561490488007042,96.0,970.0,0.0
,,"(6, 6)",,,,,,,,
G,D,"[7, 6]",0.0,0.0,0.7377691268920898,3.6559078693389893,0.645400776738243,97.0,971.0,0.0
Y,R,"[7, 7]",0.0,0.0,0.2079319953918457,1.4950401782989502,0.2740416741478798,97.0,972.0,0.0
R,U,"[6, 7]",0.0,0.0,0.6258361339569092,2.2247159481048584,0.5983803207170767,97.0,973.0,0.0
G,D,"[7, 7]",0.0,0.0,0.2751588821411133,1.7216358184814453,0.43687665803593373,97.0,974.0,0.0
B,L,"[7, 6]",0.0,0.0,0.4065830707550049,1.9077680110931396,0.49453395615558454,97.0,975.0,0.0
Y,R,"[7, 7]",0.0,0.0,0.2866809368133545,1.9513351917266846,0.6788766009111478,97.0,976.0,0.0
G,D,"[8, 7]",0.0,0.0,0.23485898971557617,1.8012909889221191,0.5636990270759807,97.0,977.0,0.0
B,L,"[8, 6]",0.0,0.0,0.27784013748168945,1.812333106994629,0.5259886176442663,97.0,978.0,0.0
R,U,"[7, 6]",0.0,0.0,0.3448038101196289,1.5969150066375732,0.2565207853720703,97.0,979.0,0.0
R,U,"[6, 6]",0.0,0.0,0.43376612663269043,1.790860891342163,0.36393418186237564,97.0,980.0,0.0
,,"(6, 6)",,,,,,,,
B,L,"[6, 5]",0.0,0.0,0.29576706886291504,3.8407280445098877,0.35446788764195153,98.0,981.0,0.0
G,D,"[7, 5]",0.0,0.0,0.41837120056152344,1.9365930557250977,0.5242433421421406,98.0,982.0,0.0
B,L,"[7, 4]",0.0,0.0,0.27413511276245117,1.9817531108856201,0.7057100855690062,98.0,983.0,0.0
Y,R,"[7, 5]",0.0,0.0,0.22133398056030273,1.8908741474151611,0.6804033089086682,98.0,984.0,0.0
B,L,"[7, 4]",0.0,0.0,0.24594402313232422,1.9663760662078857,0.7129294990714327,98.0,985.0,0.0
R,U,"[6, 4]",-1.0,0.0,0.0004470348358154297,5.462149143218994,0.3919310723855599,98.0,986.0,0.0
R,U,"[5, 4]",-2.0,0.0,1.0220718383789062,2.3429970741271973,0.35155821181858704,98.0,987.0,0.0
Y,R,"[5, 5]",0.0,0.0,0.5410299301147461,2.0722739696502686,0.5237067128226625,98.0,988.0,0.0
B,L,"[5, 4]",-2.0,0.0,1.3263440132141113,2.8359899520874023,0.5428273932625212,98.0,989.0,0.0
R,U,"[4, 4]",0.0,0.0,0.4816868305206299,2.047492027282715,0.573691709821553,98.0,990.0,0.0
,,"(6, 6)",,,,,,,,
B,L,"[6, 5]",0.0,0.0,0.7667989730834961,6.238248109817505,0.6954328947892794,99.0,991.0,0.0
Y,R,"[6, 6]",0.0,0.0,0.40418100357055664,2.0067172050476074,0.6184444290657856,99.0,992.0,0.0
R,U,"[5, 6]",1.0,1.0,0.7669610977172852,2.344848155975342,0.5799726096875026,99.0,993.0,0.0
G,D,"[6, 6]",0.0,1.0,0.4139101505279541,1.9905638694763184,0.5704458756979948,99.0,994.0,0.0
Y,R,"[6, 7]",0.0,1.0,0.3326380252838135,1.9511749744415283,0.6215272350919232,99.0,995.0,0.0
B,L,"[6, 6]",0.0,1.0,0.3594779968261719,1.6884310245513916,0.3268091402338949,99.0,996.0,0.0
R,U,"[5, 6]",0.0,1.0,0.2821340560913086,1.9132390022277832,0.6399524960341323,99.0,997.0,0.0
G,D,"[6, 6]",0.0,1.0,0.23152494430541992,1.669795036315918,0.4429835235712763,99.0,998.0,0.0
Y,R,"[6, 7]",0.0,1.0,0.2737879753112793,1.666295051574707,0.39279723300472597,99.0,999.0,0.0
R,U,"[5, 7]",1.0,2.0,0.2711670398712158,1.6571018695831299,0.3998410297376367,99.0,1000.0,0.0
