button_choice,action_choice,coordinate_choice,reward,cumulative_reward,rt,total_trial_time,iti,block_n,trial_n,trial_type
R,U,"[5, 6]",1.0,1.0,0.39444899559020996,2.1436519622802734,0.6441958551291813,0.0,1.0,0.0
Y,R,"[5, 7]",1.0,2.0,0.2348010540008545,1.8334879875183105,0.5111701728584329,0.0,2.0,0.0
Y,R,"[5, 8]",1.0,3.0,0.20633411407470703,1.9144048690795898,0.6088880485110719,0.0,3.0,0.0
G,D,"[6, 8]",1.0,4.0,0.1439201831817627,1.93766188621521,0.6966107319603194,0.0,4.0,0.0
Y,R,"[6, 9]",1.0,5.0,0.19311904907226562,1.601167917251587,0.2982004186681328,0.0,5.0,0.0
Y,R,"[6, 10]",1.0,6.0,0.29289889335632324,1.9534058570861816,0.5514219373321214,0.0,6.0,0.0
R,U,"[5, 10]",1.0,7.0,0.1939380168914795,1.7362558841705322,0.4377575447956016,0.0,7.0,0.0
R,U,"[4, 10]",1.0,8.0,0.1964249610900879,1.8185720443725586,0.5229373641918236,0.0,8.0,0.0
B,L,"[4, 9]",1.0,9.0,0.20009398460388184,2.015796184539795,0.7219208982996784,0.0,9.0,0.0
R,U,"[3, 9]",1.0,10.0,0.21062016487121582,1.7175891399383545,0.4065352946039004,0.0,10.0,0.0
,,"(6, 6)",,,,,,,,
R,U,"[5, 6]",1.0,1.0,0.22342419624328613,6.145133972167969,0.7015811016960518,1.0,11.0,0.0
Y,R,"[5, 7]",1.0,2.0,0.21169710159301758,1.9066128730773926,0.5917297077711438,1.0,12.0,0.0
Y,R,"[5, 8]",1.0,3.0,0.18741512298583984,1.981518030166626,0.706407976914788,1.0,13.0,0.0
G,D,"[6, 8]",1.0,4.0,0.17289304733276367,1.6320421695709229,0.3555796951475285,1.0,14.0,0.0
Y,R,"[6, 9]",1.0,5.0,0.20079779624938965,1.930614948272705,0.6362694221816451,1.0,15.0,0.0
Y,R,"[6, 10]",-1.0,5.0,0.09366202354431152,5.937834024429321,0.6904727119671366,1.0,16.0,0.0
Y,R,"[6, 11]",0.0,5.0,0.3883829116821289,2.01213002204895,0.5362624675797795,1.0,17.0,0.0
R,U,"[5, 11]",0.0,5.0,0.18079185485839844,1.960927963256836,0.6804049533206111,1.0,18.0,0.0
R,U,"[4, 11]",0.0,5.0,0.18795084953308105,1.5667221546173096,0.2809838814359803,1.0,19.0,0.0
B,L,"[4, 10]",1.0,6.0,0.21236705780029297,2.0674240589141846,0.7478917568227814,1.0,20.0,0.0
,,"(6, 6)",,,,,,,,
R,U,"[5, 6]",1.0,1.0,0.36841320991516113,4.1805479526519775,0.7120754611678513,2.0,21.0,0.0
Y,R,"[5, 7]",1.0,2.0,0.34126901626586914,1.9924941062927246,0.5546541518327135,2.0,22.0,0.0
Y,R,"[5, 8]",1.0,3.0,0.20452094078063965,1.920186996459961,0.6083283561916814,2.0,23.0,0.0
G,D,"[6, 8]",1.0,4.0,0.20074796676635742,1.839702844619751,0.5480280181195811,2.0,24.0,0.0
Y,R,"[6, 9]",1.0,5.0,0.18968892097473145,1.6249239444732666,0.3230504147096669,2.0,25.0,0.0
Y,R,"[6, 10]",1.0,6.0,0.22519302368164062,1.6808500289916992,0.35415437837264274,2.0,26.0,0.0
R,U,"[5, 10]",1.0,7.0,0.2173318862915039,1.9062011241912842,0.59348535393561,2.0,27.0,0.0
R,U,"[4, 10]",1.0,8.0,0.18612194061279297,1.9032161235809326,0.6300843081439647,2.0,28.0,0.0
B,L,"[4, 9]",1.0,9.0,0.19684696197509766,2.036149024963379,0.7326733155300157,2.0,29.0,0.0
R,U,"[3, 9]",1.0,10.0,0.18307781219482422,1.687927007675171,0.40434009011002464,2.0,30.0,0.0
,,"(6, 6)",,,,,,,,
R,U,"[5, 6]",1.0,1.0,0.6566710472106934,2.49944806098938,0.4037042232209386,3.0,31.0,0.0
Y,R,"[5, 7]",1.0,2.0,0.38712382316589355,1.8721201419830322,0.39273091215113265,3.0,32.0,0.0
Y,R,"[5, 8]",1.0,3.0,0.2013401985168457,1.7530889511108398,0.46249725457295265,3.0,33.0,0.0
G,D,"[6, 8]",1.0,4.0,0.17050504684448242,1.5249381065368652,0.27101111405521,3.0,34.0,0.0
Y,R,"[6, 9]",1.0,5.0,0.4851949214935303,1.9681620597839355,0.389217592519499,3.0,35.0,0.0
Y,R,"[6, 10]",1.0,6.0,0.5145440101623535,2.090970039367676,0.48000093404909516,3.0,36.0,0.0
R,U,"[5, 10]",1.0,7.0,0.22566604614257812,1.6341991424560547,0.2979372340714878,3.0,37.0,0.0
R,U,"[4, 10]",1.0,8.0,0.2074580192565918,1.8263280391693115,0.5074641790114209,3.0,38.0,0.0
B,L,"[4, 9]",1.0,9.0,0.19275498390197754,1.5642287731170654,0.27184082195446896,3.0,39.0,0.0
R,U,"[3, 9]",1.0,10.0,0.26193904876708984,1.6401898860931396,0.27873620076577554,3.0,40.0,0.0
,,"(6, 6)",,,,,,,,
R,U,"[5, 6]",1.0,1.0,0.32066988945007324,2.315603017807007,0.5604693396549754,4.0,41.0,0.0
Y,R,"[5, 7]",1.0,2.0,0.17727208137512207,1.8130731582641602,0.5406922194772185,4.0,42.0,0.0
Y,R,"[5, 8]",1.0,3.0,0.1735551357269287,1.622610092163086,0.34681448490704975,4.0,43.0,0.0
G,D,"[6, 8]",1.0,4.0,0.21425700187683105,1.6304728984832764,0.3106078420954136,4.0,44.0,0.0
Y,R,"[6, 9]",1.0,5.0,0.20781517028808594,1.8453161716461182,0.5392490257191385,4.0,45.0,0.0
Y,R,"[6, 10]",1.0,6.0,0.16504406929016113,1.52213716506958,0.26171223455980036,4.0,46.0,0.0
R,U,"[5, 10]",1.0,7.0,0.25509119033813477,1.635209083557129,0.2969203897091588,4.0,47.0,0.0
R,U,"[4, 10]",1.0,8.0,0.20115399360656738,1.6198070049285889,0.3167664931301387,4.0,48.0,0.0
B,L,"[4, 9]",1.0,9.0,0.2415478229522705,1.9160969257354736,0.5659362425114565,4.0,49.0,0.0
R,U,"[3, 9]",1.0,10.0,0.16695690155029297,1.546264886856079,0.2792597053367475,4.0,50.0,0.0
,,"(6, 6)",,,,,,,,
R,U,"[5, 6]",1.0,1.0,0.32315778732299805,2.3031060695648193,0.5322002075873213,5.0,51.0,0.0
Y,R,"[5, 7]",1.0,2.0,0.203233003616333,1.704707145690918,0.40376969808472435,5.0,52.0,0.0
Y,R,"[5, 8]",1.0,3.0,0.21784090995788574,1.7816519737243652,0.46866812388791723,5.0,53.0,0.0
G,D,"[6, 8]",1.0,4.0,0.19301414489746094,1.6006550788879395,0.3029348526073419,5.0,54.0,0.0
Y,R,"[6, 9]",1.0,5.0,0.21190309524536133,1.7135329246520996,0.39967180745538045,5.0,55.0,0.0
Y,R,"[6, 10]",1.0,6.0,0.2093820571899414,1.820396900177002,0.5032966657398563,5.0,56.0,0.0
R,U,"[5, 10]",1.0,7.0,0.1704878807067871,2.0049638748168945,0.7415656961622125,5.0,57.0,0.0
R,U,"[4, 10]",1.0,8.0,0.1827390193939209,1.7148830890655518,0.4400812768123307,5.0,58.0,0.0
B,L,"[4, 9]",1.0,9.0,0.20858383178710938,1.7108559608459473,0.40111484454080826,5.0,59.0,0.0
R,U,"[3, 9]",1.0,10.0,0.1975400447845459,1.7342710494995117,0.43521927864294807,5.0,60.0,0.0
,,"(6, 6)",,,,,,,,
R,U,"[5, 6]",1.0,1.0,0.3377830982208252,2.185213088989258,0.4373139487677014,6.0,61.0,0.0
Y,R,"[5, 7]",1.0,2.0,0.1977829933166504,1.8735930919647217,0.5775061532041007,6.0,62.0,0.0
Y,R,"[5, 8]",1.0,3.0,0.15842008590698242,1.9123520851135254,0.6561341767872357,6.0,63.0,0.0
G,D,"[6, 8]",1.0,4.0,0.1257939338684082,1.9083881378173828,0.6813484655825465,6.0,64.0,0.0
Y,R,"[6, 9]",1.0,5.0,0.15041089057922363,1.9609220027923584,0.7090563144773812,6.0,65.0,0.0
Y,R,"[6, 10]",1.0,6.0,0.16066598892211914,1.5266380310058594,0.26934056061905504,6.0,66.0,0.0
R,U,"[5, 10]",1.0,7.0,0.20102500915527344,1.833240032196045,0.535418833097409,6.0,67.0,0.0
R,U,"[4, 10]",1.0,8.0,0.18380188941955566,1.9272699356079102,0.6461715550126401,6.0,68.0,0.0
B,L,"[4, 9]",1.0,9.0,0.1735830307006836,1.734928846359253,0.4480437979387357,6.0,69.0,0.0
R,U,"[3, 9]",1.0,10.0,0.1693129539489746,1.8201689720153809,0.5513611877615804,6.0,70.0,0.0
,,"(6, 6)",,,,,,,,
R,U,"[5, 6]",1.0,1.0,0.37172913551330566,2.065885066986084,0.31746772214186636,7.0,71.0,0.0
Y,R,"[5, 7]",1.0,2.0,0.1730518341064453,1.9654879570007324,0.6825710901917375,7.0,72.0,0.0
Y,R,"[5, 8]",1.0,3.0,0.16252708435058594,1.5848801136016846,0.31799964369598704,7.0,73.0,0.0
G,D,"[6, 8]",1.0,4.0,0.26486897468566895,1.7531969547271729,0.3877549986973025,7.0,74.0,0.0
B,L,"[6, 7]",0.0,4.0,0.21343302726745605,1.8580760955810547,0.5455504082887244,7.0,75.0,0.0
Y,R,"[6, 8]",-2.0,4.0,1.3004059791564941,2.9688870906829834,0.647683690137221,7.0,76.0,0.0
R,U,"[5, 8]",0.0,4.0,0.2412550449371338,1.745629072189331,0.3935998739837439,7.0,77.0,0.0
B,L,"[5, 7]",0.0,4.0,0.21376991271972656,1.6826012134552002,0.3762899091816448,7.0,78.0,0.0
G,D,"[6, 7]",0.0,4.0,0.19270992279052734,1.5712530612945557,0.2810126404095082,7.0,79.0,0.0
Y,R,"[6, 8]",0.0,4.0,0.15712904930114746,1.5706181526184082,0.30170142875568196,7.0,80.0,0.0
,,"(6, 6)",,,,,,,,
R,U,"[5, 6]",1.0,1.0,0.33567118644714355,3.7978429794311523,0.6158644137792203,8.0,81.0,0.0
Y,R,"[5, 7]",1.0,2.0,0.2049880027770996,1.747779130935669,0.4303684433903815,8.0,82.0,0.0
Y,R,"[5, 8]",1.0,3.0,0.1998739242553711,1.9176430702209473,0.614492529832845,8.0,83.0,0.0
G,D,"[6, 8]",1.0,4.0,0.18709802627563477,1.7645142078399658,0.4791060083084793,8.0,84.0,0.0
Y,R,"[6, 9]",1.0,5.0,0.17160606384277344,1.8094570636749268,0.5219583911810761,8.0,85.0,0.0
Y,R,"[6, 10]",1.0,6.0,0.1937260627746582,1.7985568046569824,0.5039616720964518,8.0,86.0,0.0
R,U,"[5, 10]",1.0,7.0,0.215285062789917,1.8646960258483887,0.5518696695698321,8.0,87.0,0.0
R,U,"[4, 10]",1.0,8.0,0.1870260238647461,1.5638809204101562,0.28267410112642144,8.0,88.0,0.0
B,L,"[4, 9]",1.0,9.0,0.23459792137145996,1.6810970306396484,0.3470668199063957,8.0,89.0,0.0
R,U,"[3, 9]",1.0,10.0,0.22810888290405273,1.802022933959961,0.4656964704881558,8.0,90.0,0.0
,,"(6, 6)",,,,,,,,
R,U,"[5, 6]",1.0,1.0,0.36597704887390137,2.9131898880004883,0.7119651249986017,9.0,91.0,0.0
Y,R,"[5, 7]",1.0,2.0,0.1854259967803955,1.6317439079284668,0.36072917456514464,9.0,92.0,0.0
Y,R,"[5, 8]",1.0,3.0,0.2001020908355713,1.8603830337524414,0.5710257695238242,9.0,93.0,0.0
G,D,"[6, 8]",1.0,4.0,0.16544198989868164,1.7643370628356934,0.5020981318784721,9.0,94.0,0.0
Y,R,"[6, 9]",1.0,5.0,0.17498397827148438,2.0090229511260986,0.727679547313079,9.0,95.0,0.0
Y,R,"[6, 10]",1.0,6.0,0.17442917823791504,1.5256061553955078,0.2535898365777009,9.0,96.0,0.0
R,U,"[5, 10]",1.0,7.0,0.2634620666503906,2.094593048095703,0.7310759935124272,9.0,97.0,0.0
R,U,"[4, 10]",1.0,8.0,0.181657075881958,1.827725887298584,0.5423140888493844,9.0,98.0,0.0
B,L,"[4, 9]",1.0,9.0,0.22116494178771973,1.7758080959320068,0.4683037532320679,9.0,99.0,0.0
R,U,"[3, 9]",1.0,10.0,0.17776203155517578,1.6020128726959229,0.32051875723764767,9.0,100.0,0.0
,,"(6, 6)",,,,,,,,
R,U,"[5, 6]",1.0,1.0,0.32863306999206543,3.159273862838745,0.36306126635572394,10.0,101.0,0.0
B,L,"[5, 5]",0.0,1.0,0.131364107131958,1.614400863647461,0.3773851421794053,10.0,102.0,0.0
Y,R,"[5, 6]",0.0,1.0,0.19159483909606934,1.7630350589752197,0.4737770255496914,10.0,103.0,0.0
G,D,"[6, 6]",0.0,1.0,0.1794719696044922,1.9790430068969727,0.7025627209764256,10.0,104.0,0.0
Y,R,"[6, 7]",-2.0,1.0,1.2456068992614746,2.6290600299835205,0.34875720826527035,10.0,105.0,0.0
Y,R,"[6, 8]",1.0,2.0,0.38729286193847656,2.037966012954712,0.5531320095411323,10.0,106.0,0.0
Y,R,"[6, 9]",1.0,3.0,0.22009491920471191,1.6151118278503418,0.3018523068499209,10.0,107.0,0.0
R,U,"[5, 9]",0.0,3.0,0.3032829761505127,2.0019121170043945,0.6035749621337505,10.0,108.0,0.0
R,U,"[4, 9]",1.0,4.0,0.16925597190856934,1.6604769229888916,0.39755289644678116,10.0,109.0,0.0
B,L,"[4, 8]",0.0,4.0,0.218919038772583,1.8982410430908203,0.5789428810381203,10.0,110.0,0.0
,,"(6, 6)",,,,,,,,
R,U,"[5, 6]",1.0,1.0,0.360400915145874,4.628918170928955,0.7411173308256513,11.0,111.0,0.0
Y,R,"[5, 7]",1.0,2.0,0.21349620819091797,1.6363790035247803,0.32788370023893443,11.0,112.0,0.0
Y,R,"[5, 8]",1.0,3.0,0.27515721321105957,1.8998019695281982,0.5275493594804546,11.0,113.0,0.0
G,D,"[6, 8]",1.0,4.0,0.1873760223388672,1.6534957885742188,0.3812027637099405,11.0,114.0,0.0
Y,R,"[6, 9]",1.0,5.0,0.20351219177246094,2.0446300506591797,0.7421603175378619,11.0,115.0,0.0
Y,R,"[6, 10]",1.0,6.0,0.18424010276794434,1.9820082187652588,0.7074300285901456,11.0,116.0,0.0
R,U,"[5, 10]",1.0,7.0,0.18617606163024902,1.6895101070404053,0.41405594826436143,11.0,117.0,0.0
R,U,"[4, 10]",1.0,8.0,0.17116308212280273,1.6904191970825195,0.4211260707959526,11.0,118.0,0.0
B,L,"[4, 9]",1.0,9.0,0.3148159980773926,1.797652006149292,0.3855316136090313,11.0,119.0,0.0
R,U,"[3, 9]",1.0,10.0,0.18028616905212402,1.8823189735412598,0.6010527370790497,11.0,120.0,0.0
,,"(6, 6)",,,,,,,,
R,U,"[5, 6]",1.0,1.0,0.34859609603881836,2.4049930572509766,0.689331623793916,12.0,121.0,0.0
Y,R,"[5, 7]",1.0,2.0,0.1337890625,1.645430088043213,0.41849629843666203,12.0,122.0,0.0
Y,R,"[5, 8]",1.0,3.0,0.17683100700378418,1.7565851211547852,0.47493149359145065,12.0,123.0,0.0
G,D,"[6, 8]",1.0,4.0,0.1638660430908203,1.8272671699523926,0.5689131643225935,12.0,124.0,0.0
Y,R,"[6, 9]",1.0,5.0,0.17952609062194824,2.009850025177002,0.7286101215407688,12.0,125.0,0.0
Y,R,"[6, 10]",1.0,6.0,0.17856502532958984,1.7502398490905762,0.4790154357351317,12.0,126.0,0.0
R,U,"[5, 10]",1.0,7.0,0.18177509307861328,1.992431879043579,0.7211206955049101,12.0,127.0,0.0
R,U,"[4, 10]",1.0,8.0,0.1630859375,1.636383056640625,0.37468197861078323,12.0,128.0,0.0
B,L,"[4, 9]",1.0,9.0,0.22342896461486816,1.586517095565796,0.2613752159008975,12.0,129.0,0.0
R,U,"[3, 9]",1.0,10.0,0.17442798614501953,1.7489731311798096,0.4767163138928109,12.0,130.0,0.0
,,"(6, 6)",,,,,,,,
R,U,"[5, 6]",1.0,1.0,0.3775758743286133,2.427934169769287,0.6212956027000103,13.0,131.0,0.0
Y,R,"[5, 7]",1.0,2.0,0.1799468994140625,1.5461969375610352,0.2679711413275096,13.0,132.0,0.0
Y,R,"[5, 8]",1.0,3.0,0.1829538345336914,1.7750039100646973,0.4928053178361329,13.0,133.0,0.0
G,D,"[6, 8]",1.0,4.0,0.17046284675598145,1.8251948356628418,0.567839981758068,13.0,134.0,0.0
Y,R,"[6, 9]",1.0,5.0,0.17909789085388184,2.012873888015747,0.7305393584308892,13.0,135.0,0.0
Y,R,"[6, 10]",1.0,6.0,0.16158294677734375,1.92905592918396,0.659754390558188,13.0,136.0,0.0
R,U,"[5, 10]",1.0,7.0,0.16780710220336914,1.9893169403076172,0.7326177730444292,13.0,137.0,0.0
R,U,"[4, 10]",1.0,8.0,0.1910550594329834,1.5637898445129395,0.2633163653713893,13.0,138.0,0.0
B,L,"[4, 9]",1.0,9.0,0.24128293991088867,1.641300916671753,0.2877281943025707,13.0,139.0,0.0
R,U,"[3, 9]",1.0,10.0,0.3147289752960205,2.019763946533203,0.6075018121268878,13.0,140.0,0.0
,,"(6, 6)",,,,,,,,
R,U,"[5, 6]",1.0,1.0,0.3532989025115967,2.254398822784424,0.6452601688252412,14.0,141.0,0.0
Y,R,"[5, 7]",1.0,2.0,0.1355760097503662,1.9245328903198242,0.7028674256251052,14.0,142.0,0.0
Y,R,"[5, 8]",1.0,3.0,0.18303990364074707,1.9315319061279297,0.6513823058306467,14.0,143.0,0.0
G,D,"[6, 8]",1.0,4.0,0.1598830223083496,1.9838929176330566,0.7184850173165996,14.0,144.0,0.0
Y,R,"[6, 9]",1.0,5.0,0.1491091251373291,1.8248648643493652,0.5768194401678817,14.0,145.0,0.0
Y,R,"[6, 10]",1.0,6.0,0.17726898193359375,1.696552038192749,0.4235947651418386,14.0,146.0,0.0
R,U,"[5, 10]",1.0,7.0,0.1812911033630371,1.5762510299682617,0.3001631517987685,14.0,147.0,0.0
R,U,"[4, 10]",1.0,8.0,0.17982101440429688,2.0281739234924316,0.7444899940219691,14.0,148.0,0.0
B,L,"[4, 9]",1.0,9.0,0.1855781078338623,1.5646371841430664,0.29285845857849546,14.0,149.0,0.0
R,U,"[3, 9]",1.0,10.0,0.19668292999267578,1.5972471237182617,0.306583602980826,14.0,150.0,0.0
,,"(6, 6)",,,,,,,,
R,U,"[5, 6]",1.0,1.0,0.31859302520751953,2.4891340732574463,0.5459218106540364,15.0,151.0,0.0
R,U,"[4, 6]",0.0,1.0,0.19859099388122559,1.6122689247131348,0.32498638029737253,15.0,152.0,0.0
Y,R,"[4, 7]",-1.0,1.0,0.09996509552001953,5.708522081375122,0.4834099307869197,15.0,153.0,0.0
Y,R,"[4, 8]",0.0,1.0,0.20424199104309082,1.8475639820098877,0.5475793980870268,15.0,154.0,0.0
G,D,"[5, 8]",1.0,2.0,0.16864800453186035,1.8585028648376465,0.5894484056585376,15.0,155.0,0.0
Y,R,"[5, 9]",0.0,2.0,0.8757400512695312,2.2949650287628174,0.31793294810133194,15.0,156.0,0.0
Y,R,"[5, 10]",1.0,3.0,0.2957308292388916,1.8053419589996338,0.4066674912882861,15.0,157.0,0.0
R,U,"[4, 10]",1.0,4.0,0.22054195404052734,2.018862009048462,0.7086450499711606,15.0,158.0,0.0
R,U,"[3, 10]",0.0,4.0,0.18245601654052734,1.7140779495239258,0.4398249582600109,15.0,159.0,0.0
B,L,"[3, 9]",1.0,5.0,0.21840596199035645,1.9894838333129883,0.6790906388120557,15.0,160.0,0.0
,,"(6, 6)",,,,,,,,
R,U,"[5, 6]",1.0,1.0,0.387890100479126,4.235712051391602,0.5483402019370376,16.0,161.0,0.0
Y,R,"[5, 7]",1.0,2.0,0.20831012725830078,1.6583189964294434,0.3401434983715728,16.0,162.0,0.0
Y,R,"[5, 8]",1.0,3.0,0.19336915016174316,1.6106250286102295,0.31760328531436927,16.0,163.0,0.0
G,D,"[6, 8]",1.0,4.0,0.20384788513183594,1.7741320133209229,0.474833244892844,16.0,164.0,0.0
Y,R,"[6, 9]",1.0,5.0,0.16911602020263672,1.6084048748016357,0.35021118947469615,16.0,165.0,0.0
Y,R,"[6, 10]",1.0,6.0,0.1827220916748047,2.0079219341278076,0.7244387388991298,16.0,166.0,0.0
R,U,"[5, 10]",1.0,7.0,0.4466969966888428,2.2502760887145996,0.7080407069186827,16.0,167.0,0.0
R,U,"[4, 10]",1.0,8.0,0.19664812088012695,1.6472508907318115,0.35569724662020913,16.0,168.0,0.0
B,L,"[4, 9]",1.0,9.0,0.1879138946533203,1.9276468753814697,0.6331159766133503,16.0,169.0,0.0
R,U,"[3, 9]",-1.0,9.0,0.06270098686218262,5.59253191947937,0.3926683703828418,16.0,170.0,0.0
,,"(6, 6)",,,,,,,,
R,U,"[5, 6]",1.0,1.0,0.36038780212402344,7.381933927536011,0.474773868966143,17.0,171.0,0.0
Y,R,"[5, 7]",1.0,2.0,0.255418062210083,1.907646894454956,0.5490338854258059,17.0,172.0,0.0
Y,R,"[5, 8]",1.0,3.0,0.17656207084655762,1.756227970123291,0.4720432836879244,17.0,173.0,0.0
G,D,"[6, 8]",1.0,4.0,0.18500781059265137,1.62528395652771,0.3474842227972472,17.0,174.0,0.0
Y,R,"[6, 9]",1.0,5.0,0.19521284103393555,2.0482470989227295,0.7453309771220552,17.0,175.0,0.0
Y,R,"[6, 10]",1.0,6.0,0.17513799667358398,1.6559641361236572,0.38501114881376136,17.0,176.0,0.0
R,U,"[5, 10]",1.0,7.0,0.17944002151489258,1.9458179473876953,0.6638624661536014,17.0,177.0,0.0
R,U,"[4, 10]",1.0,8.0,0.1746208667755127,1.7596070766448975,0.4737706822029442,17.0,178.0,0.0
B,L,"[4, 9]",1.0,9.0,0.1795520782470703,1.9042611122131348,0.6278547378522381,17.0,179.0,0.0
R,U,"[3, 9]",1.0,10.0,0.17768192291259766,1.7601821422576904,0.48813044742555556,17.0,180.0,0.0
,,"(6, 6)",,,,,,,,
R,U,"[5, 6]",1.0,1.0,0.33738088607788086,2.7555720806121826,0.543826152924218,18.0,181.0,0.0
Y,R,"[5, 7]",1.0,2.0,0.16812992095947266,1.9402129650115967,0.6840330696806758,18.0,182.0,0.0
Y,R,"[5, 8]",1.0,3.0,0.16423797607421875,1.7828490734100342,0.5169556551745405,18.0,183.0,0.0
G,D,"[6, 8]",1.0,4.0,0.16222000122070312,1.6420671939849854,0.3759316430452375,18.0,184.0,0.0
Y,R,"[6, 9]",1.0,5.0,0.17666912078857422,1.6955320835113525,0.4215680317127151,18.0,185.0,0.0
Y,R,"[6, 10]",1.0,6.0,0.44401979446411133,2.1713171005249023,0.6260112288575915,18.0,186.0,0.0
R,U,"[5, 10]",1.0,7.0,0.21226096153259277,1.8525779247283936,0.5453165035968519,18.0,187.0,0.0
R,U,"[4, 10]",1.0,8.0,0.18495488166809082,1.7450571060180664,0.4738033811993581,18.0,188.0,0.0
B,L,"[4, 9]",1.0,9.0,0.2233591079711914,2.023308038711548,0.6970399760392021,18.0,189.0,0.0
R,U,"[3, 9]",1.0,10.0,0.18496084213256836,1.563636064529419,0.27780409426478814,18.0,190.0,0.0
,,"(6, 6)",,,,,,,,
R,U,"[5, 6]",1.0,1.0,0.37689781188964844,2.7912628650665283,0.43566676220790396,19.0,191.0,0.0
Y,R,"[5, 7]",1.0,2.0,0.22716593742370605,1.8704230785369873,0.5392874025124101,19.0,192.0,0.0
Y,R,"[5, 8]",1.0,3.0,0.18352913856506348,1.862868070602417,0.5854087147138584,19.0,193.0,0.0
G,D,"[6, 8]",1.0,4.0,0.198930025100708,1.8136911392211914,0.5158942598210037,19.0,194.0,0.0
Y,R,"[6, 9]",1.0,5.0,0.1763298511505127,1.5712811946868896,0.28738911803782063,19.0,195.0,0.0
Y,R,"[6, 10]",1.0,6.0,0.4003009796142578,1.9792571067810059,0.4833096944025953,19.0,196.0,0.0
R,U,"[5, 10]",1.0,7.0,0.23947811126708984,1.8923120498657227,0.5423081320119769,19.0,197.0,0.0
R,U,"[4, 10]",1.0,8.0,0.17622590065002441,1.6861991882324219,0.41190462535506955,19.0,198.0,0.0
B,L,"[4, 9]",1.0,9.0,0.21589016914367676,1.6785509586334229,0.37363618119155645,19.0,199.0,0.0
Y,R,"[4, 10]",-1.0,9.0,0.056819915771484375,5.748275995254517,0.572093691787367,19.0,200.0,0.0
,,"(6, 6)",,,,,,,,
R,U,"[5, 6]",1.0,1.0,0.3263518810272217,11.292895078659058,0.5819798589787577,20.0,201.0,0.0
Y,R,"[5, 7]",1.0,2.0,0.19635891914367676,2.051257848739624,0.7497462176501408,20.0,202.0,0.0
Y,R,"[5, 8]",1.0,3.0,0.18625807762145996,1.5740060806274414,0.29081253163485093,20.0,203.0,0.0
G,D,"[6, 8]",1.0,4.0,0.2197120189666748,1.6669340133666992,0.3577361639468995,20.0,204.0,0.0
Y,R,"[6, 9]",1.0,5.0,0.18313384056091309,1.632516860961914,0.35704057953727203,20.0,205.0,0.0
Y,R,"[6, 10]",1.0,6.0,0.1729278564453125,1.6358850002288818,0.35969431344331787,20.0,206.0,0.0
R,U,"[5, 10]",1.0,7.0,0.17943286895751953,1.7181320190429688,0.44408203276264496,20.0,207.0,0.0
R,U,"[4, 10]",1.0,8.0,0.16907501220703125,1.5936951637268066,0.3382911888084389,20.0,208.0,0.0
B,L,"[4, 9]",1.0,9.0,0.1650857925415039,1.9775781631469727,0.7154268739345353,20.0,209.0,0.0
R,U,"[3, 9]",1.0,10.0,0.1927628517150879,2.0414350032806396,0.7401875468408161,20.0,210.0,0.0
,,"(6, 6)",,,,,,,,
R,U,"[5, 6]",1.0,1.0,0.4253249168395996,2.455925941467285,0.4964601746811574,21.0,211.0,0.0
Y,R,"[5, 7]",1.0,2.0,0.15882301330566406,1.8520288467407227,0.5818545375777865,21.0,212.0,0.0
Y,R,"[5, 8]",-1.0,2.0,0.07989192008972168,5.963948965072632,0.7456559346880498,21.0,213.0,0.0
G,D,"[6, 8]",1.0,3.0,0.6614151000976562,2.160845994949341,0.39039277770696296,21.0,214.0,0.0
Y,R,"[6, 9]",1.0,4.0,0.21945405006408691,1.7246668338775635,0.41505804998977325,21.0,215.0,0.0
R,U,"[5, 9]",0.0,4.0,0.21835589408874512,1.688849925994873,0.37065229764786145,21.0,216.0,0.0
B,L,"[5, 8]",-1.0,4.0,0.09690999984741211,5.801101922988892,0.5716139976833932,21.0,217.0,0.0
Y,R,"[5, 9]",0.0,4.0,0.3509960174560547,1.9607257843017578,0.5159161320604032,21.0,218.0,0.0
B,L,"[5, 8]",0.0,4.0,0.27678680419921875,1.7437529563903809,0.35973956029581244,21.0,219.0,0.0
R,U,"[4, 8]",0.0,4.0,0.20108795166015625,1.9332048892974854,0.6427375521902438,21.0,220.0,0.0
,,"(6, 6)",,,,,,,,
R,U,"[5, 6]",1.0,1.0,0.3043830394744873,10.83845591545105,0.6314586056826954,22.0,221.0,0.0
Y,R,"[5, 7]",1.0,2.0,0.23542094230651855,2.025782823562622,0.6905812713897381,22.0,222.0,0.0
Y,R,"[5, 8]",1.0,3.0,0.2077341079711914,1.9762120246887207,0.6668420643585252,22.0,223.0,0.0
G,D,"[6, 8]",1.0,4.0,0.15556693077087402,1.6849560737609863,0.41888821861002756,22.0,224.0,0.0
Y,R,"[6, 9]",1.0,5.0,0.19790005683898926,1.8848037719726562,0.5867350199938015,22.0,225.0,0.0
Y,R,"[6, 10]",1.0,6.0,0.18086695671081543,1.952073097229004,0.6722017810562819,22.0,226.0,0.0
R,U,"[5, 10]",1.0,7.0,0.16588783264160156,1.7004899978637695,0.4396099763794404,22.0,227.0,0.0
R,U,"[4, 10]",1.0,8.0,0.18992900848388672,1.7280149459838867,0.4343215501517861,22.0,228.0,0.0
B,L,"[4, 9]",1.0,9.0,0.22408699989318848,1.6893410682678223,0.3572099655644691,22.0,229.0,0.0
R,U,"[3, 9]",1.0,10.0,0.1736278533935547,1.8881678581237793,0.6117230745694375,22.0,230.0,0.0
,,"(6, 6)",,,,,,,,
R,U,"[5, 6]",1.0,1.0,0.4817960262298584,2.6106770038604736,0.3893320585461239,23.0,231.0,0.0
Y,R,"[5, 7]",1.0,2.0,0.1925060749053955,1.7998909950256348,0.5058612728002226,23.0,232.0,0.0
Y,R,"[5, 8]",1.0,3.0,0.1868739128112793,1.5285711288452148,0.2514349415033687,23.0,233.0,0.0
G,D,"[6, 8]",1.0,4.0,0.22828221321105957,1.6870300769805908,0.3549591639819892,23.0,234.0,0.0
Y,R,"[6, 9]",1.0,5.0,0.16765403747558594,1.5223991870880127,0.2610780601859362,23.0,235.0,0.0
Y,R,"[6, 10]",1.0,6.0,0.21453309059143066,1.8452630043029785,0.5392665071498397,23.0,236.0,0.0
R,U,"[5, 10]",1.0,7.0,0.19663691520690918,1.5455899238586426,0.25185566599951725,23.0,237.0,0.0
R,U,"[4, 10]",1.0,8.0,0.18177294731140137,1.8923280239105225,0.6105332212738065,23.0,238.0,0.0
B,L,"[4, 9]",1.0,9.0,0.223646879196167,1.8326470851898193,0.5101260851256952,23.0,239.0,0.0
R,U,"[3, 9]",1.0,10.0,0.20038199424743652,1.62037992477417,0.33070823160909224,23.0,240.0,0.0
,,"(6, 6)",,,,,,,,
R,U,"[5, 6]",1.0,1.0,0.3583190441131592,2.637087106704712,0.2511380425444817,24.0,241.0,0.0
Y,R,"[5, 7]",1.0,2.0,0.24253606796264648,1.8716139793395996,0.5225982616995861,24.0,242.0,0.0
Y,R,"[5, 8]",1.0,3.0,0.2115490436553955,1.9075770378112793,0.5967709487177044,24.0,243.0,0.0
G,D,"[6, 8]",1.0,4.0,0.18543291091918945,1.8432190418243408,0.5567622696472464,24.0,244.0,0.0
Y,R,"[6, 9]",1.0,5.0,0.23606300354003906,1.8999478816986084,0.5735391513276131,24.0,245.0,0.0
Y,R,"[6, 10]",1.0,6.0,0.20933318138122559,1.8518619537353516,0.5420055955263137,24.0,246.0,0.0
R,U,"[5, 10]",1.0,7.0,0.1635298728942871,1.7347040176391602,0.476841042038856,24.0,247.0,0.0
R,U,"[4, 10]",1.0,8.0,0.18002009391784668,1.987605094909668,0.714366587540331,24.0,248.0,0.0
B,L,"[4, 9]",1.0,9.0,0.23016905784606934,2.0423531532287598,0.7066204252024939,24.0,249.0,0.0
R,U,"[3, 9]",1.0,10.0,0.17587995529174805,1.714867115020752,0.4385578996770781,24.0,250.0,0.0
,,"(6, 6)",,,,,,,,
R,U,"[5, 6]",1.0,1.0,0.36111021041870117,2.0882270336151123,0.2768645075607979,25.0,251.0,0.0
Y,R,"[5, 7]",1.0,2.0,0.2789149284362793,2.094092845916748,0.7204341051363253,25.0,252.0,0.0
Y,R,"[5, 8]",1.0,3.0,0.1803419589996338,1.8746049404144287,0.5954786195928865,25.0,253.0,0.0
G,D,"[6, 8]",1.0,4.0,0.200469970703125,1.7149949073791504,0.4273384729534194,25.0,254.0,0.0
Y,R,"[6, 9]",1.0,5.0,0.1788640022277832,1.8424019813537598,0.5697323178196809,25.0,255.0,0.0
Y,R,"[6, 10]",1.0,6.0,0.1669449806213379,1.9787671566009521,0.7150904495827619,25.0,256.0,0.0
R,U,"[5, 10]",1.0,7.0,0.10670900344848633,1.4713959693908691,0.25368790285899245,25.0,257.0,0.0
R,U,"[4, 10]",1.0,8.0,0.2489180564880371,1.9427289962768555,0.596065288409947,25.0,258.0,0.0
B,L,"[4, 9]",1.0,9.0,0.20119500160217285,2.0092098712921143,0.7051674118336824,25.0,259.0,0.0
R,U,"[3, 9]",1.0,10.0,0.1959848403930664,1.9601268768310547,0.6654068127861584,25.0,260.0,0.0
,,"(6, 6)",,,,,,,,
R,U,"[5, 6]",1.0,1.0,0.38843393325805664,2.6427509784698486,0.42502380507822085,26.0,261.0,0.0
Y,R,"[5, 7]",1.0,2.0,0.24017882347106934,1.9684250354766846,0.6267687754822586,26.0,262.0,0.0
Y,R,"[5, 8]",1.0,3.0,0.18277192115783691,1.916201114654541,0.6430202754792571,26.0,263.0,0.0
G,D,"[6, 8]",1.0,4.0,0.5009870529174805,2.228332042694092,0.6378813018197744,26.0,264.0,0.0
Y,R,"[6, 9]",1.0,5.0,0.2049272060394287,1.76375412940979,0.4520807346890447,26.0,265.0,0.0
Y,R,"[6, 10]",1.0,6.0,0.2156510353088379,1.9004120826721191,0.5857388195614506,26.0,266.0,0.0
R,U,"[5, 10]",1.0,7.0,0.20020103454589844,1.8787798881530762,0.5811948136015304,26.0,267.0,0.0
R,U,"[4, 10]",1.0,8.0,0.18055319786071777,1.6449089050292969,0.3597524358807483,26.0,268.0,0.0
B,L,"[4, 9]",1.0,9.0,0.2317202091217041,1.8600029945373535,0.5363013262241711,26.0,269.0,0.0
R,U,"[3, 9]",-1.0,9.0,0.022429943084716797,5.870248079299927,0.723089755832444,26.0,270.0,0.0
,,"(6, 6)",,,,,,,,
R,U,"[5, 6]",1.0,1.0,0.29573702812194824,2.919404983520508,0.6759243826288368,27.0,271.0,0.0
Y,R,"[5, 7]",1.0,2.0,0.15616297721862793,1.9697608947753906,0.7123658869373051,27.0,272.0,0.0
Y,R,"[5, 8]",1.0,3.0,0.1606581211090088,1.613173007965088,0.3426610874077667,27.0,273.0,0.0
G,D,"[6, 8]",1.0,4.0,0.18377900123596191,1.8527171611785889,0.5785201946715245,27.0,274.0,0.0
Y,R,"[6, 9]",1.0,5.0,0.19077706336975098,1.7208611965179443,0.4329004626831246,27.0,275.0,0.0
Y,R,"[6, 10]",1.0,6.0,0.17371416091918945,1.8872060775756836,0.6033293703908931,27.0,276.0,0.0
R,U,"[5, 10]",1.0,7.0,0.18839001655578613,1.9689970016479492,0.6722792627264417,27.0,277.0,0.0
R,U,"[4, 10]",1.0,8.0,0.1947009563446045,1.8053948879241943,0.5113198174861943,27.0,278.0,0.0
B,L,"[4, 9]",1.0,9.0,0.1780998706817627,1.925191879272461,0.6529919917399772,27.0,279.0,0.0
R,U,"[3, 9]",1.0,10.0,0.19560503959655762,1.7731380462646484,0.4764015905804324,27.0,280.0,0.0
,,"(6, 6)",,,,,,,,
R,U,"[5, 6]",1.0,1.0,0.34018397331237793,2.9903972148895264,0.5335166292915678,28.0,281.0,0.0
Y,R,"[5, 7]",1.0,2.0,0.21297097206115723,1.7898828983306885,0.4734180467559459,28.0,282.0,0.0
Y,R,"[5, 8]",1.0,3.0,0.18976688385009766,1.995676040649414,0.702274187221763,28.0,283.0,0.0
G,D,"[6, 8]",1.0,4.0,0.20877289772033691,1.7727718353271484,0.45854936742933955,28.0,284.0,0.0
Y,R,"[6, 9]",1.0,5.0,0.2050490379333496,1.8655779361724854,0.5741964682102008,28.0,285.0,0.0
Y,R,"[6, 10]",1.0,6.0,0.20951104164123535,1.5636188983917236,0.2547496691495696,28.0,286.0,0.0
R,U,"[5, 10]",1.0,7.0,0.29224681854248047,1.7409820556640625,0.3457600011615741,28.0,287.0,0.0
R,U,"[4, 10]",1.0,8.0,0.2238600254058838,2.054798126220703,0.7335317429073143,28.0,288.0,0.0
B,L,"[4, 9]",1.0,9.0,0.22006607055664062,1.6992461681365967,0.38323468798252497,28.0,289.0,0.0
R,U,"[3, 9]",1.0,10.0,0.22305011749267578,1.5881409645080566,0.25479373372248576,28.0,290.0,0.0
,,"(6, 6)",,,,,,,,
R,U,"[5, 6]",1.0,1.0,0.37169599533081055,2.1883139610290527,0.34306831869242344,29.0,291.0,0.0
Y,R,"[5, 7]",1.0,2.0,0.2503969669342041,1.7369129657745361,0.3963917102203149,29.0,292.0,0.0
Y,R,"[5, 8]",1.0,3.0,0.24352002143859863,2.0858960151672363,0.732387747866035,29.0,293.0,0.0
G,D,"[6, 8]",1.0,4.0,0.20838093757629395,2.0141990184783936,0.696607030665801,29.0,294.0,0.0
Y,R,"[6, 9]",1.0,5.0,0.2558751106262207,1.6892139911651611,0.3196279115291429,29.0,295.0,0.0
Y,R,"[6, 10]",1.0,6.0,0.2595968246459961,1.7441329956054688,0.3804704842992556,29.0,296.0,0.0
R,U,"[5, 10]",1.0,7.0,0.2006089687347412,1.8829090595245361,0.5798084665392464,29.0,297.0,0.0
R,U,"[4, 10]",1.0,8.0,0.21128296852111816,2.0185999870300293,0.6984878068808646,29.0,298.0,0.0
B,L,"[4, 9]",1.0,9.0,0.20553302764892578,1.8011250495910645,0.48316615678843966,29.0,299.0,0.0
R,U,"[3, 9]",1.0,10.0,0.19878602027893066,1.5698211193084717,0.26996688488221326,29.0,300.0,0.0
,,"(6, 6)",,,,,,,,
R,U,"[5, 6]",-999.0,0.0,0.36398911476135254,2.222999095916748,0.3761796658699476,30.0,301.0,-4.0
Y,R,"[5, 7]",-999.0,0.0,0.3758409023284912,1.8927371501922607,0.43554579818625816,30.0,302.0,-4.0
Y,R,"[5, 8]",-999.0,0.0,0.22073912620544434,1.7628540992736816,0.448610227974076,30.0,303.0,-4.0
G,D,"[6, 8]",-999.0,0.0,0.21313118934631348,1.756458044052124,0.4383840417279361,30.0,304.0,-4.0
Y,R,"[6, 9]",-999.0,0.0,0.20103096961975098,2.0207910537719727,0.7254990898202478,30.0,305.0,-4.0
Y,R,"[6, 10]",-999.0,0.0,0.17431092262268066,1.5699069499969482,0.3126741558596479,30.0,306.0,-4.0
R,U,"[5, 10]",-999.0,0.0,0.22900795936584473,1.7419919967651367,0.40458161786588,30.0,307.0,-4.0
R,U,"[4, 10]",-999.0,0.0,0.19435906410217285,1.6351239681243896,0.339634171652367,30.0,308.0,-4.0
R,U,"[3, 10]",-999.0,0.0,0.3297898769378662,2.009469985961914,0.5821477682589522,30.0,309.0,-4.0
R,U,"[2, 10]",-999.0,0.0,0.8021950721740723,2.4362759590148926,0.5352555683002556,30.0,310.0,1.0
,,"(6, 6)",,,,,,,,
R,U,"[5, 6]",-999.0,0.0,0.3468921184539795,4.33806586265564,0.357043325593125,31.0,311.0,-4.0
Y,R,"[5, 7]",-999.0,0.0,0.38068294525146484,2.191605806350708,0.7146242575893139,31.0,312.0,-4.0
Y,R,"[5, 8]",-999.0,0.0,0.18175387382507324,1.8515331745147705,0.5663566341435305,31.0,313.0,-4.0
R,U,"[4, 8]",-999.0,0.0,0.49857521057128906,1.9129080772399902,0.31294876230133395,31.0,314.0,-4.0
R,U,"[3, 8]",-999.0,0.0,0.7391960620880127,2.4301791191101074,0.5761855365493247,31.0,315.0,1.0
,,"(6, 6)",,,,,,,,
B,L,"[3, 8]",-2.0,0.0,1.1769680976867676,4.18073296546936,0.6234745591665986,32.0,316.0,-5.0
B,L,"[3, 8]",-999.0,0.0,0.3765590190887451,2.0976619720458984,0.6212471376272974,32.0,317.0,-5.0
R,U,"[3, 8]",-999.0,0.0,0.32242393493652344,1.6761598587036133,0.26437373209537574,32.0,318.0,-5.0
R,U,"[3, 8]",-999.0,0.0,0.29737210273742676,2.098845958709717,0.6961053192761244,32.0,319.0,-5.0
R,U,"[2, 8]",-999.0,0.0,0.9472160339355469,2.663496971130371,0.6095488078292524,32.0,320.0,1.0
,,"(6, 6)",,,,,,,,
R,U,"[5, 6]",-2.0,0.0,1.098996877670288,5.76258397102356,0.5225290199941299,33.0,321.0,0.0
R,U,"[4, 6]",0.0,0.0,0.33501100540161133,1.6970999240875244,0.2697805521425848,33.0,322.0,0.0
Y,R,"[4, 7]",0.0,0.0,0.29405689239501953,2.066580057144165,0.669412895286092,33.0,323.0,0.0
Y,R,"[4, 8]",0.0,0.0,0.20527291297912598,2.025848865509033,0.7285423527203518,33.0,324.0,0.0
G,D,"[5, 8]",1.0,1.0,0.12984180450439453,1.885633945465088,0.6641888112718048,33.0,325.0,0.0
B,L,"[5, 7]",-1.0,1.0,0.010601043701171875,5.422849893569946,0.28737371524284877,33.0,326.0,0.0
G,D,"[6, 7]",0.0,1.0,0.511232852935791,2.165580987930298,0.5528340359519461,33.0,327.0,0.0
B,L,"[6, 6]",0.0,1.0,0.19992995262145996,2.0356719493865967,0.7380809651717622,33.0,328.0,0.0
R,U,"[5, 6]",-1.0,1.0,0.014480829238891602,5.744303941726685,0.5994500727795696,33.0,329.0,0.0
B,L,"[5, 5]",0.0,1.0,0.3754751682281494,1.8277480602264404,0.3439941020883855,33.0,330.0,0.0
,,"(6, 6)",,,,,,,,
G,D,"[7, 6]",0.0,0.0,0.5394570827484131,4.987874984741211,0.5150157062420713,34.0,331.0,0.0
B,L,"[7, 5]",0.0,0.0,0.2643091678619385,1.7150788307189941,0.3470622873043386,34.0,332.0,0.0
R,U,"[6, 5]",0.0,0.0,0.18671488761901855,1.9937429428100586,0.7071456832266176,34.0,333.0,0.0
Y,R,"[6, 6]",0.0,0.0,0.19226408004760742,1.6408510208129883,0.34844589569790346,34.0,334.0,0.0
B,L,"[6, 5]",0.0,0.0,0.24135708808898926,1.657160997390747,0.3055072099153595,34.0,335.0,0.0
G,D,"[7, 5]",0.0,0.0,0.19248700141906738,1.9762160778045654,0.6814357934741784,34.0,336.0,0.0
G,D,"[8, 5]",0.0,0.0,0.23119592666625977,1.678908109664917,0.3440892785390347,34.0,337.0,0.0
B,L,"[8, 4]",0.0,0.0,0.21667194366455078,1.854297161102295,0.5481752239795257,34.0,338.0,0.0
R,U,"[7, 4]",0.0,0.0,0.41280579566955566,2.0075700283050537,0.4891940900713213,34.0,339.0,0.0
Y,R,"[7, 5]",0.0,0.0,0.20986104011535645,1.7298731803894043,0.4191329141596409,34.0,340.0,0.0
,,"(6, 6)",,,,,,,,
R,U,"[5, 6]",-999.0,0.0,0.7104208469390869,5.8399810791015625,0.25930561943165087,35.0,341.0,-4.0
Y,R,"[5, 7]",-999.0,0.0,0.46941184997558594,1.9423890113830566,0.3849575741432311,35.0,342.0,-4.0
Y,R,"[5, 8]",-999.0,0.0,0.32475996017456055,2.1259078979492188,0.7105840621424098,35.0,343.0,-4.0
R,U,"[4, 8]",-999.0,0.0,0.3609778881072998,1.7140259742736816,0.2583463665142286,35.0,344.0,-4.0
R,U,"[3, 8]",-999.0,0.0,0.7073748111724854,2.2804930210113525,0.4719599686658022,35.0,345.0,1.0
,,"(6, 6)",,,,,,,,
R,U,"[5, 6]",-2.0,0.0,1.2171809673309326,4.244428873062134,0.5329688412430109,36.0,346.0,0.0
Y,R,"[5, 7]",1.0,1.0,0.38942503929138184,2.218158006668091,0.7176256549828497,36.0,347.0,0.0
Y,R,"[5, 8]",1.0,2.0,0.19364094734191895,2.0386860370635986,0.7395767901412255,36.0,348.0,0.0
R,U,"[4, 8]",0.0,2.0,0.19156098365783691,1.7854838371276855,0.4922024907180384,36.0,349.0,0.0
G,D,"[5, 8]",0.0,2.0,0.5111520290374756,2.177000045776367,0.5692028276532389,36.0,350.0,0.0
,,"(6, 6)",,,,,,,,
G,D,"[5, 8]",-999.0,0.0,0.7976469993591309,3.879967212677002,0.7156475561956734,37.0,351.0,-5.0
G,D,"[5, 8]",-999.0,0.0,0.2920820713043213,1.9346890449523926,0.5338145894655036,37.0,352.0,-5.0
G,D,"[5, 8]",-2.0,0.0,2.3522188663482666,4.021213054656982,0.6382388009964881,37.0,353.0,-5.0
B,L,"[5, 8]",-999.0,0.0,0.48986005783081055,1.9288289546966553,0.35078127127368613,37.0,354.0,-5.0
B,L,"[5, 8]",-999.0,0.0,0.3405461311340332,1.8731770515441895,0.44059403395249136,37.0,355.0,-5.0
R,U,"[5, 8]",-999.0,0.0,0.48294711112976074,2.0330851078033447,0.4570314406510856,37.0,356.0,-5.0
R,U,"[5, 8]",-999.0,0.0,0.24585890769958496,1.664781093597412,0.321944851459499,37.0,357.0,-5.0
B,L,"[5, 8]",-999.0,0.0,0.6682479381561279,2.175602912902832,0.41423908595059555,37.0,358.0,-5.0
B,L,"[5, 8]",-999.0,0.0,0.2288038730621338,1.8012301921844482,0.46539760062364666,37.0,359.0,-5.0
G,D,"[6, 8]",-999.0,0.0,0.39110493659973145,2.2194809913635254,0.7179872614917795,37.0,360.0,1.0
,,"(6, 6)",,,,,,,,
B,L,"[6, 5]",-2.0,0.0,1.5361011028289795,4.458954811096191,0.49370356601346904,38.0,361.0,0.0
B,L,"[6, 4]",0.0,0.0,0.3054311275482178,1.7604060173034668,0.37094515544901047,38.0,362.0,0.0
G,D,"[7, 4]",0.0,0.0,0.22698116302490234,1.9570379257202148,0.6277864772369233,38.0,363.0,0.0
G,D,"[8, 4]",0.0,0.0,0.17101812362670898,1.8879611492156982,0.6158230208186083,38.0,364.0,0.0
R,U,"[7, 4]",0.0,0.0,0.2240908145904541,1.791990041732788,0.4579329851520428,38.0,365.0,0.0
R,U,"[6, 4]",0.0,0.0,0.15766596794128418,1.650475025177002,0.39177946125504265,38.0,366.0,0.0
Y,R,"[6, 5]",0.0,0.0,0.19993901252746582,1.6477370262145996,0.3563744447843471,38.0,367.0,0.0
Y,R,"[6, 6]",0.0,0.0,0.21468710899353027,1.8033881187438965,0.4928914759541028,38.0,368.0,0.0
G,D,"[7, 6]",0.0,0.0,0.49176788330078125,1.9157609939575195,0.3256834708568576,38.0,369.0,0.0
B,L,"[7, 5]",0.0,0.0,0.20653915405273438,1.6552331447601318,0.3474652492487572,38.0,370.0,0.0
,,"(6, 6)",,,,,,,,
R,U,"[5, 6]",1.0,1.0,0.5892918109893799,4.109264135360718,0.6229734179950687,39.0,371.0,0.0
Y,R,"[5, 7]",1.0,2.0,0.22777485847473145,1.7077429294586182,0.3811262745800437,39.0,372.0,0.0
Y,R,"[5, 8]",1.0,3.0,0.3732130527496338,1.951512098312378,0.46606176424780066,39.0,373.0,0.0
R,U,"[4, 8]",0.0,3.0,0.26914405822753906,1.6295831203460693,0.26252211827580796,39.0,374.0,0.0
G,D,"[5, 8]",0.0,3.0,0.23380684852600098,1.9810941219329834,0.6597509588075754,39.0,375.0,0.0
B,L,"[5, 7]",0.0,3.0,0.19080805778503418,1.5754759311676025,0.28565517510485633,39.0,376.0,0.0
B,L,"[5, 6]",0.0,3.0,0.24133586883544922,2.017176866531372,0.6690194277996191,39.0,377.0,0.0
G,D,"[6, 6]",0.0,3.0,0.21463394165039062,1.9531400203704834,0.639046335711269,39.0,378.0,0.0
Y,R,"[6, 7]",-2.0,3.0,1.3956489562988281,2.7697670459747314,0.34249619927782815,39.0,379.0,0.0
Y,R,"[6, 8]",1.0,4.0,0.5320980548858643,2.094243049621582,0.46995805990131495,39.0,380.0,0.0
,,"(6, 6)",,,,,,,,
R,U,"[5, 6]",1.0,1.0,0.7320911884307861,3.8411710262298584,0.3779084549449844,40.0,381.0,0.0
Y,R,"[5, 7]",1.0,2.0,0.23702406883239746,1.5768568515777588,0.25490349248029626,40.0,382.0,0.0
Y,R,"[5, 8]",1.0,3.0,0.32366299629211426,1.8299129009246826,0.40149363191697957,40.0,383.0,0.0
G,D,"[6, 8]",1.0,4.0,0.24132299423217773,1.650062084197998,0.3017973535383416,40.0,384.0,0.0
Y,R,"[6, 9]",1.0,5.0,0.17530298233032227,1.6745810508728027,0.39273534540202787,40.0,385.0,0.0
Y,R,"[6, 10]",1.0,6.0,0.16475605964660645,1.5199849605560303,0.262889750835933,40.0,386.0,0.0
R,U,"[5, 10]",1.0,7.0,0.20044708251953125,1.9399020671844482,0.6358518912470301,40.0,387.0,0.0
R,U,"[4, 10]",1.0,8.0,0.2892789840698242,2.0225830078125,0.6251328901565152,40.0,388.0,0.0
B,L,"[4, 9]",1.0,9.0,0.19872093200683594,1.5969009399414062,0.3057184669843448,40.0,389.0,0.0
R,U,"[3, 9]",1.0,10.0,0.26479601860046387,1.73795485496521,0.3769581424083815,40.0,390.0,0.0
,,"(6, 6)",,,,,,,,
R,U,"[5, 6]",1.0,1.0,0.4911799430847168,3.2613139152526855,0.48823162934751646,41.0,391.0,0.0
Y,R,"[5, 7]",1.0,2.0,0.21988296508789062,1.6855590343475342,0.3738229498316363,41.0,392.0,0.0
Y,R,"[5, 8]",1.0,3.0,0.18564510345458984,2.02436900138855,0.747933892855422,41.0,393.0,0.0
G,D,"[6, 8]",1.0,4.0,0.2554590702056885,2.110822916030884,0.7419724995599408,41.0,394.0,0.0
Y,R,"[6, 9]",1.0,5.0,0.24342703819274902,1.7191441059112549,0.37828649647716106,41.0,395.0,0.0
Y,R,"[6, 10]",1.0,6.0,0.2879328727722168,1.9813930988311768,0.5761577442999177,41.0,396.0,0.0
R,U,"[5, 10]",1.0,7.0,0.21764588356018066,1.7735850811004639,0.466541437153407,41.0,397.0,0.0
R,U,"[4, 10]",1.0,8.0,0.26110100746154785,1.7723388671875,0.40563319969281697,41.0,398.0,0.0
B,L,"[4, 9]",1.0,9.0,0.21666598320007324,1.6118369102478027,0.30092894239196805,41.0,399.0,0.0
R,U,"[3, 9]",1.0,10.0,0.22644591331481934,1.867915153503418,0.5352746142920751,41.0,400.0,0.0
,,"(6, 6)",,,,,,,,
R,U,"[5, 6]",1.0,1.0,0.523064136505127,3.0000510215759277,0.43555790505497277,42.0,401.0,0.0
Y,R,"[5, 7]",1.0,2.0,0.1887660026550293,1.8469929695129395,0.5490531353869404,42.0,402.0,0.0
Y,R,"[5, 8]",1.0,3.0,0.18560099601745605,1.5834879875183105,0.2994946830743763,42.0,403.0,0.0
G,D,"[6, 8]",1.0,4.0,0.18547582626342773,1.738124132156372,0.4542740683755316,42.0,404.0,0.0
Y,R,"[6, 9]",1.0,5.0,0.17850708961486816,1.9494471549987793,0.6700636269033002,42.0,405.0,0.0
Y,R,"[6, 10]",1.0,6.0,0.21289896965026855,1.9637911319732666,0.6505733401394014,42.0,406.0,0.0
R,U,"[5, 10]",1.0,7.0,0.19376707077026367,2.0138320922851562,0.7143553751608813,42.0,407.0,0.0
R,U,"[4, 10]",1.0,8.0,0.1979680061340332,1.9159841537475586,0.6137907020586428,42.0,408.0,0.0
B,L,"[4, 9]",1.0,9.0,0.20045208930969238,1.7291381359100342,0.42653937537897035,42.0,409.0,0.0
R,U,"[3, 9]",1.0,10.0,0.23708105087280273,1.6693201065063477,0.3459434845564689,42.0,410.0,0.0
,,"(6, 6)",,,,,,,,
R,U,"[5, 6]",-999.0,0.0,0.4524068832397461,6.487393140792847,0.30001991346977036,43.0,411.0,-4.0
Y,R,"[5, 7]",-999.0,0.0,0.33415699005126953,1.9863131046295166,0.5527163104693487,43.0,412.0,-4.0
Y,R,"[5, 8]",-999.0,0.0,0.2001791000366211,1.7022590637207031,0.40550674432635025,43.0,413.0,-4.0
R,U,"[4, 8]",-999.0,0.0,0.2590961456298828,1.9412200450897217,0.5797670694481057,43.0,414.0,-4.0
R,U,"[3, 8]",-999.0,0.0,0.7750658988952637,2.4379138946533203,0.5510770150477913,43.0,415.0,1.0
,,"(6, 6)",,,,,,,,
R,U,"[5, 6]",1.0,1.0,0.5181169509887695,3.6360108852386475,0.6204190115538453,44.0,416.0,0.0
Y,R,"[5, 7]",1.0,2.0,0.18630504608154297,1.8304028511047363,0.5510487409530935,44.0,417.0,0.0
Y,R,"[5, 8]",1.0,3.0,0.20331501960754395,1.7226459980010986,0.4238366452688983,44.0,418.0,0.0
G,D,"[6, 8]",1.0,4.0,0.19882893562316895,2.003655195236206,0.710444511503397,44.0,419.0,0.0
Y,R,"[6, 9]",1.0,5.0,0.232072114944458,1.8037960529327393,0.481242889512249,44.0,420.0,0.0
,,"(6, 6)",,,,,,,,
G,D,"[6, 9]",-999.0,0.0,0.6918871402740479,4.2350380420684814,0.4664765534863785,45.0,421.0,-5.0
G,D,"[6, 9]",-999.0,0.0,0.2792181968688965,1.762563943862915,0.37895410142165015,45.0,422.0,-5.0
G,D,"[6, 9]",-999.0,0.0,0.28154993057250977,2.1073358058929443,0.719112319240379,45.0,423.0,-5.0
B,L,"[6, 9]",-999.0,0.0,0.32993197441101074,1.683892011642456,0.25373420599282204,45.0,424.0,-5.0
B,L,"[6, 9]",-999.0,0.0,0.26495885848999023,1.633371114730835,0.2705003150999504,45.0,425.0,-5.0
R,U,"[6, 9]",-999.0,0.0,0.4357931613922119,2.245950937271118,0.7161222611329202,45.0,426.0,-5.0
R,U,"[6, 9]",-999.0,0.0,0.24311518669128418,1.6387081146240234,0.2886283091381699,45.0,427.0,-5.0
B,L,"[6, 9]",-999.0,0.0,0.5476870536804199,2.3609890937805176,0.715870810876732,45.0,428.0,-5.0
B,L,"[6, 9]",-999.0,0.0,0.23622798919677734,1.761242151260376,0.4273012969594284,45.0,429.0,-5.0
R,U,"[5, 9]",-999.0,0.0,0.46311402320861816,2.146989107131958,0.5908629057977193,45.0,430.0,1.0
,,"(6, 6)",,,,,,,,
R,U,"[5, 6]",-999.0,0.0,0.5188479423522949,3.494981050491333,0.43626226447856176,46.0,431.0,-4.0
Y,R,"[5, 7]",-999.0,0.0,0.26642584800720215,1.7785601615905762,0.4147757639092572,46.0,432.0,-4.0
Y,R,"[5, 8]",-999.0,0.0,0.23114609718322754,1.9730019569396973,0.6374755307541266,46.0,433.0,-4.0
R,U,"[4, 8]",-999.0,0.0,0.21601200103759766,2.035853862762451,0.7227532396587908,46.0,434.0,-4.0
Y,R,"[4, 9]",-999.0,0.0,0.91823410987854,2.4158689975738525,0.40625175875191466,46.0,435.0,1.0
,,"(6, 6)",,,,,,,,
G,D,"[4, 9]",-999.0,0.0,0.7310121059417725,3.58429217338562,0.5903197814160954,47.0,436.0,-5.0
G,D,"[4, 9]",-999.0,0.0,0.21547317504882812,1.6015799045562744,0.29222419324485743,47.0,437.0,-5.0
G,D,"[4, 9]",-999.0,0.0,0.24849700927734375,1.8132550716400146,0.4720503168527297,47.0,438.0,-5.0
B,L,"[4, 9]",-999.0,0.0,0.18909287452697754,1.939190149307251,0.6612012826461213,47.0,439.0,-5.0
B,L,"[4, 9]",-999.0,0.0,0.18459415435791016,1.6487181186676025,0.37677871958601794,47.0,440.0,-5.0
,,"(6, 6)",,,,,,,,
R,U,"[5, 6]",-999.0,0.0,0.6063380241394043,3.48115611076355,0.4412900528208578,48.0,441.0,-4.0
Y,R,"[5, 7]",-999.0,0.0,0.2914290428161621,1.701786994934082,0.31007337817982655,48.0,442.0,-4.0
Y,R,"[5, 8]",-999.0,0.0,0.24854707717895508,1.6594951152801514,0.31954317752970196,48.0,443.0,-4.0
G,D,"[6, 8]",-999.0,0.0,0.5379140377044678,2.254034996032715,0.6231693746280438,48.0,444.0,-4.0
Y,R,"[6, 9]",-999.0,0.0,0.44411587715148926,2.1537039279937744,0.6103175520908548,48.0,445.0,-4.0
Y,R,"[6, 10]",-999.0,0.0,0.3630061149597168,1.8273398876190186,0.37121384630753074,48.0,446.0,-4.0
R,U,"[5, 10]",-999.0,0.0,0.3537008762359619,2.1089730262756348,0.6632808545020619,48.0,447.0,-4.0
R,U,"[4, 10]",-999.0,0.0,0.3001410961151123,1.8559579849243164,0.4529560151371879,48.0,448.0,-4.0
R,U,"[3, 10]",-999.0,0.0,0.28336381912231445,1.7814850807189941,0.40102312524881967,48.0,449.0,-4.0
G,D,"[4, 10]",-2.0,0.0,1.2740161418914795,2.987154006958008,0.6713399916534484,48.0,450.0,1.0
,,"(6, 6)",,,,,,,,
B,L,"[4, 10]",-999.0,0.0,0.5403509140014648,3.2595579624176025,0.5478186855845073,49.0,451.0,-5.0
B,L,"[4, 10]",-999.0,0.0,0.27813196182250977,2.0151500701904297,0.6295562632526162,49.0,452.0,-5.0
R,U,"[4, 10]",-999.0,0.0,0.3465909957885742,1.9452598094940186,0.49149112521628885,49.0,453.0,-5.0
R,U,"[4, 10]",-999.0,0.0,0.211212158203125,1.7566571235656738,0.44830390828289873,49.0,454.0,-5.0
B,L,"[4, 9]",-999.0,0.0,0.9386770725250244,2.7206060886383057,0.685429623665241,49.0,455.0,1.0
,,"(6, 6)",,,,,,,,
R,U,"[5, 6]",1.0,1.0,0.4462277889251709,3.0555830001831055,0.3746609116468823,50.0,456.0,0.0
Y,R,"[5, 7]",1.0,2.0,0.20963001251220703,2.0040860176086426,0.6952426371427742,50.0,457.0,0.0
Y,R,"[5, 8]",1.0,3.0,0.1557629108428955,1.6429929733276367,0.38849152470875126,50.0,458.0,0.0
G,D,"[6, 8]",1.0,4.0,0.17432713508605957,1.982029914855957,0.703710487954823,50.0,459.0,0.0
Y,R,"[6, 9]",1.0,5.0,0.4486980438232422,2.0862607955932617,0.5401303199718875,50.0,460.0,0.0
,,"(6, 6)",,,,,,,,
R,U,"[5, 6]",-999.0,0.0,0.4299139976501465,3.695500135421753,0.56908212812834,51.0,461.0,-4.0
Y,R,"[5, 7]",-999.0,0.0,0.48611998558044434,2.126875877380371,0.5459352836205674,51.0,462.0,-4.0
Y,R,"[5, 8]",-999.0,0.0,0.3036379814147949,1.7568049430847168,0.35290401510461866,51.0,463.0,-4.0
G,D,"[6, 8]",-999.0,0.0,0.3787240982055664,2.204838991165161,0.7240558039241776,51.0,464.0,-4.0
Y,R,"[6, 9]",-999.0,0.0,0.5250201225280762,2.2967629432678223,0.6873903697788073,51.0,465.0,-4.0
Y,R,"[6, 10]",-999.0,0.0,0.34949803352355957,1.7004458904266357,0.255153670502996,51.0,466.0,-4.0
R,U,"[5, 10]",-999.0,0.0,0.3461630344390869,2.0189309120178223,0.5738741697460923,51.0,467.0,-4.0
R,U,"[4, 10]",-999.0,0.0,0.34014201164245605,1.8746750354766846,0.4487260745171413,51.0,468.0,-4.0
R,U,"[3, 10]",-999.0,0.0,0.27217698097229004,1.914133071899414,0.5459780426413062,51.0,469.0,-4.0
B,L,"[3, 9]",-2.0,0.0,1.0555438995361328,2.557035207748413,0.46973695322971604,51.0,470.0,1.0
,,"(6, 6)",,,,,,,,
R,U,"[5, 6]",1.0,1.0,0.4090569019317627,3.3758790493011475,0.679055794378263,52.0,471.0,0.0
Y,R,"[5, 7]",1.0,2.0,0.1780538558959961,1.5913610458374023,0.32053172670081065,52.0,472.0,0.0
Y,R,"[5, 8]",1.0,3.0,0.17127394676208496,1.5327930450439453,0.25359638636026277,52.0,473.0,0.0
G,D,"[6, 8]",1.0,4.0,0.25554990768432617,1.6144859790802002,0.2514185462629614,52.0,474.0,0.0
Y,R,"[6, 9]",1.0,5.0,0.19932103157043457,1.6880638599395752,0.38944696616684105,52.0,475.0,0.0
Y,R,"[6, 10]",1.0,6.0,0.20301604270935059,1.6808669567108154,0.38690564585273324,52.0,476.0,0.0
R,U,"[5, 10]",1.0,7.0,0.29330897331237793,1.9992890357971191,0.6027368541432891,52.0,477.0,0.0
R,U,"[4, 10]",1.0,8.0,0.1797800064086914,1.8104429244995117,0.5300425940277103,52.0,478.0,0.0
B,L,"[4, 9]",1.0,9.0,0.18932819366455078,2.027580976486206,0.7240192280348912,52.0,479.0,0.0
R,U,"[3, 9]",1.0,10.0,0.21054387092590332,1.9567489624023438,0.6475899230754285,52.0,480.0,0.0
,,"(6, 6)",,,,,,,,
R,U,"[5, 6]",-999.0,0.0,0.5254180431365967,2.903459072113037,0.6512294281114515,53.0,481.0,-4.0
Y,R,"[5, 7]",-999.0,0.0,0.34682798385620117,1.9403138160705566,0.4917168134942699,53.0,482.0,-4.0
Y,R,"[5, 8]",-999.0,0.0,0.2558150291442871,2.0862748622894287,0.7444215645487954,53.0,483.0,-4.0
R,U,"[4, 8]",-999.0,0.0,0.29146313667297363,2.039530038833618,0.6673665858762415,53.0,484.0,-4.0
R,U,"[3, 8]",-999.0,0.0,0.8216068744659424,2.2695469856262207,0.3538912528517114,53.0,485.0,1.0
,,"(6, 6)",,,,,,,,
R,U,"[5, 6]",1.0,1.0,0.4493851661682129,3.0587189197540283,0.2629518937812196,54.0,486.0,0.0
Y,R,"[5, 7]",1.0,2.0,0.24613094329833984,2.0614001750946045,0.7237458124753154,54.0,487.0,0.0
Y,R,"[5, 8]",1.0,3.0,0.184553861618042,1.5478441715240479,0.2720511595553198,54.0,488.0,0.0
R,U,"[4, 8]",0.0,3.0,0.2455141544342041,1.927541971206665,0.5826357407850382,54.0,489.0,0.0
G,D,"[5, 8]",0.0,3.0,0.21927094459533691,1.7836158275604248,0.4664530202896419,54.0,490.0,0.0
,,"(6, 6)",,,,,,,,
B,L,"[5, 8]",-999.0,0.0,0.6832911968231201,3.6475069522857666,0.6472763794551691,55.0,491.0,-5.0
B,L,"[5, 8]",-999.0,0.0,0.29798197746276855,2.02813982963562,0.6253571143233584,55.0,492.0,-5.0
R,U,"[5, 8]",-999.0,0.0,0.47118210792541504,1.9009270668029785,0.34337527867721435,55.0,493.0,-5.0
R,U,"[5, 8]",-999.0,0.0,0.3174631595611572,1.7366960048675537,0.33002495202421234,55.0,494.0,-5.0
R,U,"[4, 8]",-999.0,0.0,0.7054779529571533,2.403057813644409,0.599559676190627,55.0,495.0,1.0
,,"(6, 6)",,,,,,,,
R,U,"[5, 6]",1.0,1.0,0.4320027828216553,3.0795419216156006,0.4460767613973937,56.0,496.0,0.0
Y,R,"[5, 7]",1.0,2.0,0.23938703536987305,1.8400869369506836,0.5027801136598715,56.0,497.0,0.0
Y,R,"[5, 8]",1.0,3.0,0.18811511993408203,1.869832992553711,0.5892486226363007,56.0,498.0,0.0
G,D,"[6, 8]",1.0,4.0,0.1666719913482666,1.6619679927825928,0.401223970342807,56.0,499.0,0.0
Y,R,"[6, 9]",1.0,5.0,0.20689010620117188,1.8293349742889404,0.514027753476563,56.0,500.0,0.0
,,"(6, 6)",,,,,,,,
R,U,"[5, 6]",1.0,1.0,0.48341989517211914,3.5706470012664795,0.6344285185925344,57.0,501.0,0.0
Y,R,"[5, 7]",1.0,2.0,0.179063081741333,1.7263720035552979,0.4445620414899581,57.0,502.0,0.0
Y,R,"[5, 8]",1.0,3.0,0.1936359405517578,1.6513009071350098,0.3625398639308208,57.0,503.0,0.0
G,D,"[6, 8]",1.0,4.0,0.1987009048461914,1.6766250133514404,0.3891023525151292,57.0,504.0,0.0
Y,R,"[6, 9]",1.0,5.0,0.25420689582824707,1.9677948951721191,0.6233719251732754,57.0,505.0,0.0
Y,R,"[6, 10]",1.0,6.0,0.9105730056762695,2.373762845993042,0.36420506819307163,57.0,506.0,0.0
R,U,"[5, 10]",1.0,7.0,0.25736284255981445,1.9783449172973633,0.608933334424097,57.0,507.0,0.0
R,U,"[4, 10]",1.0,8.0,0.19579601287841797,1.6272308826446533,0.3365060840474917,57.0,508.0,0.0
B,L,"[4, 9]",1.0,9.0,0.22439217567443848,1.6137990951538086,0.2837972782624585,57.0,509.0,0.0
R,U,"[3, 9]",1.0,10.0,0.19173216819763184,1.6124870777130127,0.31295715675354474,57.0,510.0,0.0
,,"(6, 6)",,,,,,,,
R,U,"[5, 6]",1.0,1.0,0.3750951290130615,3.2082138061523438,0.6875538421871157,58.0,511.0,0.0
Y,R,"[5, 7]",1.0,2.0,0.17997503280639648,1.7425940036773682,0.46367584552122315,58.0,512.0,0.0
Y,R,"[5, 8]",1.0,3.0,0.22243809700012207,1.8364741802215576,0.5003216473444712,58.0,513.0,0.0
G,D,"[6, 8]",1.0,4.0,0.2042710781097412,2.039868116378784,0.7398144736427974,58.0,514.0,0.0
Y,R,"[6, 9]",1.0,5.0,0.19797921180725098,1.8141839504241943,0.5209987239299425,58.0,515.0,0.0
R,U,"[5, 9]",0.0,5.0,0.21172094345092773,1.947206974029541,0.6347233369333869,58.0,516.0,0.0
B,L,"[5, 8]",0.0,5.0,0.30353403091430664,1.9172861576080322,0.5189168002974777,58.0,517.0,0.0
B,L,"[5, 7]",0.0,5.0,0.16596698760986328,1.562756061553955,0.2986054008089201,58.0,518.0,0.0
G,D,"[6, 7]",0.0,5.0,0.18812012672424316,1.8840978145599365,0.5989913973880773,58.0,519.0,0.0
G,D,"[7, 7]",-1.0,5.0,0.07581305503845215,5.535680055618286,0.3185200641017741,58.0,520.0,0.0
,,"(6, 6)",,,,,,,,
R,U,"[5, 6]",-999.0,0.0,0.39196181297302246,3.1828701496124268,0.38449127771109654,59.0,521.0,-4.0
Y,R,"[5, 7]",-999.0,0.0,0.3184390068054199,1.9505231380462646,0.5350789587759293,59.0,522.0,-4.0
Y,R,"[5, 8]",-999.0,0.0,0.20260906219482422,1.7122290134429932,0.4141040601348836,59.0,523.0,-4.0
R,U,"[4, 8]",-999.0,0.0,0.21994900703430176,2.0061678886413574,0.6866818079694355,59.0,524.0,-4.0
R,U,"[3, 8]",-999.0,0.0,0.4689338207244873,1.9268760681152344,0.3640043807156114,59.0,525.0,1.0
,,"(6, 6)",,,,,,,,
B,L,"[3, 8]",-999.0,0.0,0.916579008102417,3.615973949432373,0.5131505179134875,60.0,526.0,-5.0
B,L,"[3, 8]",-999.0,0.0,0.29715514183044434,2.102555990219116,0.6989085341839427,60.0,527.0,-5.0
R,U,"[3, 8]",-999.0,0.0,0.4231729507446289,1.8930020332336426,0.37559619270544525,60.0,528.0,-5.0
R,U,"[3, 8]",-999.0,0.0,0.2341749668121338,1.8747341632843018,0.5503459848006593,60.0,529.0,-5.0
B,L,"[3, 7]",-999.0,0.0,0.9839658737182617,2.755321979522705,0.6722820940362422,60.0,530.0,1.0
,,"(6, 6)",,,,,,,,
R,U,"[5, 6]",1.0,1.0,0.45671606063842773,3.2005839347839355,0.40653554652403295,61.0,531.0,0.0
Y,R,"[5, 7]",1.0,2.0,0.47297191619873047,2.045443058013916,0.46846638595438916,61.0,532.0,0.0
Y,R,"[5, 8]",1.0,3.0,0.2263469696044922,1.9519670009613037,0.6203477507235975,61.0,533.0,0.0
G,D,"[6, 8]",1.0,4.0,0.1808779239654541,1.5748090744018555,0.2955599633975511,61.0,534.0,0.0
Y,R,"[6, 9]",1.0,5.0,0.23460006713867188,2.0570340156555176,0.7354084158815566,61.0,535.0,0.0
Y,R,"[6, 10]",1.0,6.0,0.22087311744689941,1.7223610877990723,0.39149165777290207,61.0,536.0,0.0
R,U,"[5, 10]",1.0,7.0,0.33129191398620605,1.8269119262695312,0.4019213238047355,61.0,537.0,0.0
R,U,"[4, 10]",1.0,8.0,0.19997191429138184,1.570101022720337,0.2721255909250497,61.0,538.0,0.0
B,L,"[4, 9]",1.0,9.0,0.27036094665527344,1.8575539588928223,0.496143720640494,61.0,539.0,0.0
R,U,"[3, 9]",1.0,10.0,0.19075298309326172,1.9878449440002441,0.6838168866347623,61.0,540.0,0.0
,,"(6, 6)",,,,,,,,
R,U,"[5, 6]",1.0,1.0,0.46648192405700684,3.1400508880615234,0.3910543362360102,62.0,541.0,0.0
Y,R,"[5, 7]",1.0,2.0,0.23330402374267578,1.6083869934082031,0.28277785169365705,62.0,542.0,0.0
Y,R,"[5, 8]",1.0,3.0,0.23757410049438477,1.5971660614013672,0.26346213190640383,62.0,543.0,0.0
G,D,"[6, 8]",1.0,4.0,0.2475571632385254,1.6597211360931396,0.3065051605435654,62.0,544.0,0.0
Y,R,"[6, 9]",1.0,5.0,0.1686711311340332,1.5305531024932861,0.2704768862107483,62.0,545.0,0.0
Y,R,"[6, 10]",1.0,6.0,0.23244404792785645,1.9283699989318848,0.5985258181715596,62.0,546.0,0.0
R,U,"[5, 10]",1.0,7.0,0.18038010597229004,2.0245840549468994,0.7394298596364106,62.0,547.0,0.0
R,U,"[4, 10]",1.0,8.0,0.193572998046875,1.7392699718475342,0.4459275697893895,62.0,548.0,0.0
B,L,"[4, 9]",1.0,9.0,0.19828295707702637,1.6909191608428955,0.40344028647098057,62.0,549.0,0.0
R,U,"[3, 9]",1.0,10.0,0.20619893074035645,1.8976631164550781,0.5844144639612057,62.0,550.0,0.0
,,"(6, 6)",,,,,,,,
R,U,"[5, 6]",1.0,1.0,0.4502120018005371,3.837907075881958,0.7388698324737035,63.0,551.0,0.0
Y,R,"[5, 7]",1.0,2.0,0.16910696029663086,1.5844480991363525,0.32378244928438343,63.0,552.0,0.0
Y,R,"[5, 8]",1.0,3.0,0.19293999671936035,1.6943860054016113,0.4014970062898187,63.0,553.0,0.0
G,D,"[6, 8]",1.0,4.0,0.19188404083251953,1.7473280429840088,0.44887047679099773,63.0,554.0,0.0
Y,R,"[6, 9]",1.0,5.0,0.1659848690032959,1.6935551166534424,0.42586281392674774,63.0,555.0,0.0
Y,R,"[6, 10]",1.0,6.0,0.20682716369628906,1.563284158706665,0.25589552882887556,63.0,556.0,0.0
R,U,"[5, 10]",1.0,7.0,0.17705607414245605,1.6632559299468994,0.3855750430959126,63.0,557.0,0.0
R,U,"[4, 10]",1.0,8.0,0.20252084732055664,1.7030689716339111,0.405460666578769,63.0,558.0,0.0
B,L,"[4, 9]",1.0,9.0,0.17254900932312012,2.0261337757110596,0.7479363194649851,63.0,559.0,0.0
R,U,"[3, 9]",1.0,10.0,0.21527695655822754,1.9610610008239746,0.642497389220364,63.0,560.0,0.0
,,"(6, 6)",,,,,,,,
R,U,"[5, 6]",-999.0,0.0,0.47157716751098633,3.5198819637298584,0.5793239707495117,64.0,561.0,-4.0
Y,R,"[5, 7]",-999.0,0.0,0.33069515228271484,1.7979910373687744,0.36082300612495033,64.0,562.0,-4.0
Y,R,"[5, 8]",-999.0,0.0,0.222092866897583,1.5935399532318115,0.2878875429148468,64.0,563.0,-4.0
G,D,"[6, 8]",-999.0,0.0,0.5066559314727783,1.8627359867095947,0.26729823461296465,64.0,564.0,-4.0
Y,R,"[6, 9]",-999.0,0.0,0.3864610195159912,2.1134259700775146,0.6305026771258109,64.0,565.0,-4.0
Y,R,"[6, 10]",-999.0,0.0,0.2908639907836914,1.741339921951294,0.35520164785660313,64.0,566.0,-4.0
R,U,"[5, 10]",-999.0,0.0,0.40143704414367676,1.9307150840759277,0.4361222311032278,64.0,567.0,-4.0
R,U,"[4, 10]",-999.0,0.0,0.4363069534301758,2.148439884185791,0.6176807254344854,64.0,568.0,-4.0
R,U,"[3, 10]",-999.0,0.0,0.25852489471435547,2.056114912033081,0.7070769071632848,64.0,569.0,-4.0
B,L,"[3, 9]",-2.0,0.0,1.4443697929382324,3.174271821975708,0.6982218181347715,64.0,570.0,1.0
,,"(6, 6)",,,,,,,,
R,U,"[5, 6]",1.0,1.0,0.3684978485107422,3.1080470085144043,0.4565062411286219,65.0,571.0,0.0
Y,R,"[5, 7]",1.0,2.0,0.2206258773803711,1.804764986038208,0.4946261580585608,65.0,572.0,0.0
Y,R,"[5, 8]",1.0,3.0,0.17844581604003906,1.6246190071105957,0.3527466354619335,65.0,573.0,0.0
G,D,"[6, 8]",1.0,4.0,0.17417502403259277,1.6085858345031738,0.32808006325584244,65.0,574.0,0.0
Y,R,"[6, 9]",1.0,5.0,0.17322897911071777,1.6084210872650146,0.3364037426627255,65.0,575.0,0.0
Y,R,"[6, 10]",1.0,6.0,0.19281792640686035,1.5684471130371094,0.27165469086672567,65.0,576.0,0.0
R,U,"[5, 10]",1.0,7.0,0.19217801094055176,2.025768995285034,0.7297191147858348,65.0,577.0,0.0
R,U,"[4, 10]",1.0,8.0,0.18446683883666992,1.9842360019683838,0.6979270303095746,65.0,578.0,0.0
B,L,"[4, 9]",1.0,9.0,0.2071669101715088,1.6000549793243408,0.28173835330802344,65.0,579.0,0.0
R,U,"[3, 9]",1.0,10.0,0.20330309867858887,1.6735589504241943,0.37210152580105355,65.0,580.0,0.0
,,"(6, 6)",,,,,,,,
R,U,"[5, 6]",1.0,1.0,0.3823847770690918,3.025423049926758,0.33102361086837995,66.0,581.0,0.0
Y,R,"[5, 7]",1.0,2.0,0.20647287368774414,1.5561840534210205,0.25382991545471834,66.0,582.0,0.0
Y,R,"[5, 8]",1.0,3.0,0.2003929615020752,1.9702320098876953,0.6735712337794773,66.0,583.0,0.0
G,D,"[6, 8]",1.0,4.0,0.19623613357543945,1.921839952468872,0.6290330372927969,66.0,584.0,0.0
Y,R,"[6, 9]",1.0,5.0,0.1534278392791748,1.6584360599517822,0.42090563940026304,66.0,585.0,0.0
R,U,"[5, 9]",-1.0,5.0,0.02674078941345215,5.711095094680786,0.5653907662963832,66.0,586.0,0.0
R,U,"[4, 9]",1.0,6.0,0.21625089645385742,1.7851741313934326,0.4673657898984125,66.0,587.0,0.0
B,L,"[4, 8]",0.0,6.0,0.18717598915100098,1.7363309860229492,0.4538503321085773,66.0,588.0,0.0
R,U,"[3, 8]",0.0,6.0,0.47838497161865234,1.8993868827819824,0.3200965178410198,66.0,589.0,0.0
G,D,"[4, 8]",0.0,6.0,0.10992598533630371,1.8404250144958496,0.6267737353698778,66.0,590.0,0.0
,,"(6, 6)",,,,,,,,
B,L,"[4, 8]",-999.0,0.0,0.6032698154449463,4.102058172225952,0.44580096564373156,67.0,591.0,-5.0
B,L,"[4, 8]",-999.0,0.0,0.23623394966125488,1.6286301612854004,0.29131935842647577,67.0,592.0,-5.0
R,U,"[4, 8]",-999.0,0.0,0.22136902809143066,1.7173659801483154,0.4085833613282038,67.0,593.0,-5.0
R,U,"[4, 8]",-999.0,0.0,0.22172999382019043,1.8596279621124268,0.5514928978569864,67.0,594.0,-5.0
G,D,"[5, 8]",-2.0,0.0,1.252230167388916,2.6818599700927734,0.4003183418572222,67.0,595.0,1.0
,,"(6, 6)",,,,,,,,
B,L,"[5, 8]",-999.0,0.0,0.512624979019165,4.4186389446258545,0.2690483111159804,68.0,596.0,-5.0
B,L,"[5, 8]",-999.0,0.0,0.25736212730407715,1.9449670314788818,0.5971317844560697,68.0,597.0,-5.0
R,U,"[5, 8]",-999.0,0.0,0.21341586112976074,1.6693060398101807,0.3499986825691293,68.0,598.0,-5.0
R,U,"[5, 8]",-999.0,0.0,0.21483111381530762,1.7482020854949951,0.43152651082997506,68.0,599.0,-5.0
G,D,"[6, 8]",-999.0,0.0,0.25284790992736816,1.9311668872833252,0.5793458440716546,68.0,600.0,1.0
,,"(6, 6)",,,,,,,,
R,U,"[5, 6]",1.0,1.0,0.4012761116027832,3.140228033065796,0.5196421836134753,69.0,601.0,0.0
Y,R,"[5, 7]",1.0,2.0,0.3523399829864502,2.0551979541778564,0.6081473832985452,69.0,602.0,0.0
Y,R,"[5, 8]",1.0,3.0,0.17653203010559082,1.739206075668335,0.4641068520079437,69.0,603.0,0.0
G,D,"[6, 8]",1.0,4.0,0.19053292274475098,1.9319579601287842,0.6293567064926493,69.0,604.0,0.0
Y,R,"[6, 9]",1.0,5.0,0.18440699577331543,1.998716115951538,0.7113003518252775,69.0,605.0,0.0
Y,R,"[6, 10]",1.0,6.0,0.17412710189819336,1.9724299907684326,0.7004285339529297,69.0,606.0,0.0
R,U,"[5, 10]",1.0,7.0,0.17787790298461914,1.678692102432251,0.39624682603297007,69.0,607.0,0.0
B,L,"[5, 9]",0.0,7.0,0.18250107765197754,1.8366210460662842,0.5494319441217863,69.0,608.0,0.0
G,D,"[6, 9]",0.0,7.0,0.3439159393310547,1.725203037261963,0.275003063350699,69.0,609.0,0.0
G,D,"[7, 9]",0.0,7.0,0.32462501525878906,1.9609489440917969,0.5356252391417382,69.0,610.0,0.0
,,"(6, 6)",,,,,,,,
R,U,"[5, 6]",-999.0,0.0,0.3990302085876465,2.8710439205169678,0.2902664880179568,70.0,611.0,-4.0
Y,R,"[5, 7]",-999.0,0.0,0.26242589950561523,1.6573128700256348,0.2977336749845101,70.0,612.0,-4.0
Y,R,"[5, 8]",-999.0,0.0,0.21074414253234863,1.660167932510376,0.3411482028700109,70.0,613.0,-4.0
G,D,"[6, 8]",-999.0,0.0,0.3960568904876709,1.9580450057983398,0.46574053642036056,70.0,614.0,-4.0
Y,R,"[6, 9]",-999.0,0.0,0.6940369606018066,2.3694980144500732,0.5685456696762001,70.0,615.0,-4.0
Y,R,"[6, 10]",-999.0,0.0,0.2058699131011963,1.6997900009155273,0.4016477436829242,70.0,616.0,-4.0
R,U,"[5, 10]",-999.0,0.0,0.17879605293273926,2.018604040145874,0.7367806246323455,70.0,617.0,-4.0
R,U,"[4, 10]",-999.0,0.0,0.18895912170410156,1.7135260105133057,0.4340603099046997,70.0,618.0,-4.0
R,U,"[3, 10]",-999.0,0.0,0.3154921531677246,2.025852918624878,0.6097538308643712,70.0,619.0,-4.0
B,L,"[3, 9]",-2.0,0.0,1.0328969955444336,2.7717199325561523,0.7148407674003459,70.0,620.0,1.0
,,"(6, 6)",,,,,,,,
R,U,"[5, 6]",1.0,1.0,0.403331995010376,3.341370105743408,0.6729536981112498,71.0,621.0,0.0
Y,R,"[5, 7]",1.0,2.0,0.18448114395141602,2.0107641220092773,0.7337749086759248,71.0,622.0,0.0
Y,R,"[5, 8]",1.0,3.0,0.1839301586151123,1.5549230575561523,0.27238786853311653,71.0,623.0,0.0
G,D,"[6, 8]",1.0,4.0,0.20308899879455566,1.6636850833892822,0.3693471127184472,71.0,624.0,0.0
Y,R,"[6, 9]",1.0,5.0,0.16538596153259277,1.6285030841827393,0.36460974695337706,71.0,625.0,0.0
Y,R,"[6, 10]",1.0,6.0,0.18498802185058594,2.0321238040924072,0.7463605431541751,71.0,626.0,0.0
R,U,"[5, 10]",-1.0,6.0,0.016134023666381836,5.779964923858643,0.626698419554516,71.0,627.0,0.0
R,U,"[4, 10]",1.0,7.0,0.3303971290588379,1.8716230392456055,0.4484256364598435,71.0,628.0,0.0
B,L,"[4, 9]",1.0,8.0,0.28513193130493164,2.03922700881958,0.6542078153366887,71.0,629.0,0.0
R,U,"[3, 9]",1.0,9.0,0.1993730068206787,1.7173750400543213,0.4218727556343534,71.0,630.0,0.0
,,"(6, 6)",,,,,,,,
R,U,"[5, 6]",1.0,1.0,0.6244189739227295,3.390259027481079,0.27899448060387605,72.0,631.0,0.0
Y,R,"[5, 7]",1.0,2.0,0.29397106170654297,1.8035860061645508,0.4158220242444076,72.0,632.0,0.0
Y,R,"[5, 8]",1.0,3.0,0.19841599464416504,1.6433579921722412,0.3426552474717315,72.0,633.0,0.0
G,D,"[6, 8]",1.0,4.0,0.20094513893127441,1.6443779468536377,0.3537138126286695,72.0,634.0,0.0
Y,R,"[6, 9]",1.0,5.0,0.20376801490783691,1.9189128875732422,0.6057662994379849,72.0,635.0,0.0
Y,R,"[6, 10]",-1.0,5.0,0.008645057678222656,5.593536853790283,0.46622856848566885,72.0,636.0,0.0
Y,R,"[6, 11]",0.0,5.0,0.31170201301574707,1.7797958850860596,0.3629472571613506,72.0,637.0,0.0
R,U,"[5, 11]",0.0,5.0,0.1965799331665039,1.8383889198303223,0.5342168616698224,72.0,638.0,0.0
R,U,"[4, 11]",0.0,5.0,0.1838550567626953,1.7709150314331055,0.48884958376356663,72.0,639.0,0.0
B,L,"[4, 10]",1.0,6.0,0.19455790519714355,1.6933879852294922,0.399059116326502,72.0,640.0,0.0
,,"(6, 6)",,,,,,,,
R,U,"[5, 6]",1.0,1.0,0.5040311813354492,3.805685043334961,0.6374864590261959,73.0,641.0,0.0
Y,R,"[5, 7]",1.0,2.0,0.3007810115814209,1.7251360416412354,0.32992650090801795,73.0,642.0,0.0
Y,R,"[5, 8]",1.0,3.0,0.3344709873199463,1.8698079586029053,0.4330770345274045,73.0,643.0,0.0
G,D,"[6, 8]",1.0,4.0,0.18417000770568848,1.5930449962615967,0.3095372806250977,73.0,644.0,0.0
Y,R,"[6, 9]",1.0,5.0,0.19992899894714355,1.7728989124298096,0.482312251095265,73.0,645.0,0.0
Y,R,"[6, 10]",1.0,6.0,0.21717309951782227,1.5787739753723145,0.2614147010099392,73.0,646.0,0.0
R,U,"[5, 10]",1.0,7.0,0.21984601020812988,1.702822208404541,0.39734062766822714,73.0,647.0,0.0
R,U,"[4, 10]",1.0,8.0,0.2141401767730713,2.058527946472168,0.7390196650998535,73.0,648.0,0.0
B,L,"[4, 9]",1.0,9.0,0.28503990173339844,1.962568998336792,0.5850457675427092,73.0,649.0,0.0
R,U,"[3, 9]",1.0,10.0,0.20063090324401855,1.6702771186828613,0.37234502202864284,73.0,650.0,0.0
,,"(6, 6)",,,,,,,,
R,U,"[5, 6]",1.0,1.0,0.41835594177246094,3.16715407371521,0.4894838735851951,74.0,651.0,0.0
Y,R,"[5, 7]",1.0,2.0,0.2256450653076172,1.913377046585083,0.5860426681425684,74.0,652.0,0.0
Y,R,"[5, 8]",1.0,3.0,0.21173882484436035,1.6594159603118896,0.3458658436779843,74.0,653.0,0.0
G,D,"[6, 8]",1.0,4.0,0.19579792022705078,2.0188300609588623,0.7309829848438414,74.0,654.0,0.0
Y,R,"[6, 9]",1.0,5.0,0.23163390159606934,1.7489469051361084,0.4135527594185984,74.0,655.0,0.0
Y,R,"[6, 10]",1.0,6.0,0.21156907081604004,1.8818719387054443,0.561974354702601,74.0,656.0,0.0
R,U,"[5, 10]",1.0,7.0,0.27106690406799316,1.9767661094665527,0.6054090725103494,74.0,657.0,0.0
R,U,"[4, 10]",1.0,8.0,0.20675206184387207,1.9996120929718018,0.6883514925726435,74.0,658.0,0.0
R,U,"[3, 10]",0.0,8.0,0.2659280300140381,1.6860108375549316,0.3247631523438694,74.0,659.0,0.0
B,L,"[3, 9]",1.0,9.0,0.294572114944458,1.69035005569458,0.29854825286699666,74.0,660.0,0.0
,,"(6, 6)",,,,,,,,
R,U,"[5, 6]",1.0,1.0,0.43560194969177246,3.0836000442504883,0.49893273321979276,75.0,661.0,0.0
Y,R,"[5, 7]",1.0,2.0,0.19939017295837402,1.956176996231079,0.6549773628662976,75.0,662.0,0.0
Y,R,"[5, 8]",1.0,3.0,0.1835780143737793,1.9674479961395264,0.688779869400662,75.0,663.0,0.0
G,D,"[6, 8]",1.0,4.0,0.19301605224609375,1.7285890579223633,0.4344258930619784,75.0,664.0,0.0
Y,R,"[6, 9]",1.0,5.0,0.20954203605651855,1.5884392261505127,0.2729961446242324,75.0,665.0,0.0
Y,R,"[6, 10]",1.0,6.0,0.23340702056884766,1.7388291358947754,0.41174689346491966,75.0,666.0,0.0
R,U,"[5, 10]",1.0,7.0,0.181380033493042,1.662445068359375,0.39100506694209136,75.0,667.0,0.0
R,U,"[4, 10]",1.0,8.0,0.18942499160766602,1.7286150455474854,0.43633859305163497,75.0,668.0,0.0
B,L,"[4, 9]",1.0,9.0,0.22806096076965332,1.8941359519958496,0.5636965236522434,75.0,669.0,0.0
R,U,"[3, 9]",1.0,10.0,0.1822049617767334,1.598374843597412,0.3123328102282831,75.0,670.0,0.0
,,"(6, 6)",,,,,,,,
R,U,"[5, 6]",1.0,1.0,0.4465510845184326,2.802604913711548,0.6315736636721626,76.0,671.0,0.0
Y,R,"[5, 7]",1.0,2.0,0.2092440128326416,1.7687201499938965,0.45041950541180353,76.0,672.0,0.0
Y,R,"[5, 8]",1.0,3.0,0.1936018466949463,2.0069069862365723,0.7068926278991421,76.0,673.0,0.0
G,D,"[6, 8]",1.0,4.0,0.2018289566040039,1.7104589939117432,0.41767405901205723,76.0,674.0,0.0
Y,R,"[6, 9]",1.0,5.0,0.20423603057861328,2.052879810333252,0.7370380354490687,76.0,675.0,0.0
Y,R,"[6, 10]",1.0,6.0,0.22962284088134766,1.759308099746704,0.42976130253295924,76.0,676.0,0.0
R,U,"[5, 10]",1.0,7.0,0.25950193405151367,1.6366689205169678,0.26685001118330853,76.0,677.0,0.0
R,U,"[4, 10]",1.0,8.0,0.28426599502563477,2.010761022567749,0.6272801721881862,76.0,678.0,0.0
B,L,"[4, 9]",1.0,9.0,0.5783731937408447,2.199692964553833,0.5272042010879461,76.0,679.0,0.0
R,U,"[3, 9]",1.0,10.0,0.2485358715057373,1.8409678936004639,0.5014995863515669,76.0,680.0,0.0
,,"(6, 6)",,,,,,,,
R,U,"[5, 6]",1.0,1.0,0.40630602836608887,3.4806199073791504,0.6821510466296405,77.0,681.0,0.0
Y,R,"[5, 7]",1.0,2.0,0.18023109436035156,1.7535650730133057,0.4690950887753152,77.0,682.0,0.0
Y,R,"[5, 8]",1.0,3.0,0.2864658832550049,1.9668819904327393,0.5861203886386552,77.0,683.0,0.0
G,D,"[6, 8]",1.0,4.0,0.33385515213012695,1.9503910541534424,0.5198401059685753,77.0,684.0,0.0
Y,R,"[6, 9]",1.0,5.0,0.22397303581237793,2.0786569118499756,0.7483082092637516,77.0,685.0,0.0
Y,R,"[6, 10]",1.0,6.0,0.2634420394897461,2.0959219932556152,0.7276657195246009,77.0,686.0,0.0
R,U,"[5, 10]",1.0,7.0,0.22230792045593262,1.9127469062805176,0.5905348898116436,77.0,687.0,0.0
R,U,"[4, 10]",1.0,8.0,0.23867392539978027,1.9676990509033203,0.6415953130834053,77.0,688.0,0.0
B,L,"[4, 9]",1.0,9.0,0.2100369930267334,1.7245421409606934,0.4163390696307095,77.0,689.0,0.0
R,U,"[3, 9]",1.0,10.0,0.2529160976409912,1.8215200901031494,0.47122421367273176,77.0,690.0,0.0
,,"(6, 6)",,,,,,,,
B,L,"[3, 9]",-999.0,0.0,0.46414899826049805,3.5819251537323,0.6863692726726056,78.0,691.0,-5.0
B,L,"[3, 9]",-999.0,0.0,0.20998811721801758,1.8028440475463867,0.48933939697310036,78.0,692.0,-5.0
R,U,"[3, 9]",-999.0,0.0,0.36844706535339355,2.1876580715179443,0.7268900111105954,78.0,693.0,-5.0
R,U,"[3, 9]",-999.0,0.0,0.18503403663635254,1.8872270584106445,0.6142506012547468,78.0,694.0,-5.0
B,L,"[3, 8]",-999.0,0.0,0.8417699337005615,2.2197790145874023,0.2678288778026628,78.0,695.0,1.0
,,"(6, 6)",,,,,,,,
B,L,"[3, 8]",-999.0,0.0,0.5328211784362793,4.209654808044434,0.5441097147944248,79.0,696.0,-5.0
B,L,"[3, 8]",-999.0,0.0,0.20830297470092773,1.8123610019683838,0.5231580179528024,79.0,697.0,-5.0
R,U,"[3, 8]",-999.0,0.0,0.23167204856872559,1.80824613571167,0.4813500757206914,79.0,698.0,-5.0
R,U,"[3, 8]",-999.0,0.0,0.20808696746826172,1.5759270191192627,0.2742361679083143,79.0,699.0,-5.0
Y,R,"[3, 9]",-999.0,0.0,0.29457688331604004,1.8569908142089844,0.4644418460759557,79.0,700.0,1.0
,,"(6, 6)",,,,,,,,
B,L,"[6, 5]",0.0,0.0,0.6820530891418457,3.874979019165039,0.6228472524837548,80.0,701.0,0.0
B,L,"[6, 4]",0.0,0.0,0.19223809242248535,1.8293859958648682,0.5356488096487859,80.0,702.0,0.0
R,U,"[5, 4]",0.0,0.0,0.18314385414123535,2.005976915359497,0.7247483698615713,80.0,703.0,0.0
R,U,"[4, 4]",-1.0,0.0,0.044064998626708984,5.898482084274292,0.7399674836553879,80.0,704.0,0.0
Y,R,"[4, 5]",0.0,0.0,0.30133509635925293,1.7384960651397705,0.3454287275218771,80.0,705.0,0.0
R,U,"[3, 5]",0.0,0.0,0.2560460567474365,1.9940071105957031,0.6559546915736756,80.0,706.0,0.0
R,U,"[2, 5]",0.0,0.0,0.17333197593688965,1.9454970359802246,0.6682064750878741,80.0,707.0,0.0
B,L,"[2, 4]",-1.0,0.0,0.08225584030151367,5.494585037231445,0.2798906750502541,80.0,708.0,0.0
G,D,"[3, 4]",0.0,0.0,0.3492898941040039,1.924591064453125,0.4710948939261423,80.0,709.0,0.0
R,U,"[2, 4]",0.0,0.0,0.18655681610107422,1.5435090065002441,0.26486654100832824,80.0,710.0,0.0
,,"(6, 6)",,,,,,,,
R,U,"[5, 6]",1.0,1.0,0.42483019828796387,3.3867621421813965,0.43466452569347386,81.0,711.0,0.0
Y,R,"[5, 7]",1.0,2.0,0.23663806915283203,1.9566559791564941,0.6247269150957169,81.0,712.0,0.0
Y,R,"[5, 8]",1.0,3.0,0.21178984642028809,2.016840934753418,0.7080718054260471,81.0,713.0,0.0
G,D,"[6, 8]",1.0,4.0,0.2131190299987793,1.9594168663024902,0.6509206936077173,81.0,714.0,0.0
Y,R,"[6, 9]",1.0,5.0,0.20860910415649414,2.006108045578003,0.6905000751969682,81.0,715.0,0.0
Y,R,"[6, 10]",1.0,6.0,0.18784093856811523,1.8141019344329834,0.5378471753264004,81.0,716.0,0.0
R,U,"[5, 10]",1.0,7.0,0.1843409538269043,1.6329929828643799,0.35459097204741935,81.0,717.0,0.0
R,U,"[4, 10]",1.0,8.0,0.21539688110351562,1.7143828868865967,0.40224365139716517,81.0,718.0,0.0
B,L,"[4, 9]",1.0,9.0,0.20857882499694824,2.014880895614624,0.7002422741227735,81.0,719.0,0.0
R,U,"[3, 9]",1.0,10.0,0.15773701667785645,1.6199419498443604,0.3540497356320586,81.0,720.0,0.0
,,"(6, 6)",,,,,,,,
G,D,"[3, 9]",-999.0,0.0,0.5924899578094482,3.6988420486450195,0.7358335570527088,82.0,721.0,-5.0
G,D,"[3, 9]",-999.0,0.0,0.2611210346221924,2.0020599365234375,0.6380198522882868,82.0,722.0,-5.0
G,D,"[3, 9]",-999.0,0.0,0.2634561061859131,1.6372158527374268,0.27569681443833816,82.0,723.0,-5.0
B,L,"[3, 9]",-999.0,0.0,0.38788890838623047,1.8375730514526367,0.36328199508465014,82.0,724.0,-5.0
B,L,"[3, 9]",-999.0,0.0,0.21916890144348145,1.9132730960845947,0.5929359084169573,82.0,725.0,-5.0
R,U,"[3, 9]",-999.0,0.0,0.2700068950653076,1.8742120265960693,0.517295001346062,82.0,726.0,-5.0
R,U,"[3, 9]",-999.0,0.0,0.24581384658813477,1.8399100303649902,0.4905589152568647,82.0,727.0,-5.0
B,L,"[3, 9]",-999.0,0.0,0.47648096084594727,1.9773099422454834,0.41803924544821847,82.0,728.0,-5.0
B,L,"[3, 9]",-999.0,0.0,0.24109196662902832,1.7473578453063965,0.41544293542910066,82.0,729.0,-5.0
G,D,"[4, 9]",-999.0,0.0,0.6822538375854492,2.4956929683685303,0.7108783638034439,82.0,730.0,1.0
,,"(6, 6)",,,,,,,,
R,U,"[5, 6]",1.0,1.0,0.3899850845336914,3.308271884918213,0.6362448098235358,83.0,731.0,0.0
Y,R,"[5, 7]",1.0,2.0,0.2095789909362793,1.6725308895111084,0.35904272149595484,83.0,732.0,0.0
Y,R,"[5, 8]",1.0,3.0,0.26265811920166016,1.792302131652832,0.434378541142849,83.0,733.0,0.0
G,D,"[6, 8]",1.0,4.0,0.1967020034790039,1.8895041942596436,0.5906114870451576,83.0,734.0,0.0
Y,R,"[6, 9]",1.0,5.0,0.22746801376342773,1.609950065612793,0.2840508644149361,83.0,735.0,0.0
Y,R,"[6, 10]",1.0,6.0,0.24382495880126953,1.6855900287628174,0.336334344956228,83.0,736.0,0.0
R,U,"[5, 10]",1.0,7.0,0.25089097023010254,1.645430088043213,0.29862001076911904,83.0,737.0,0.0
R,U,"[4, 10]",1.0,8.0,0.22075390815734863,1.7762529850006104,0.4580701658752712,83.0,738.0,0.0
B,L,"[4, 9]",1.0,9.0,0.16617918014526367,1.9761669635772705,0.7172508798085449,83.0,739.0,0.0
R,U,"[3, 9]",1.0,10.0,0.1997230052947998,1.6675279140472412,0.368569371946833,83.0,740.0,0.0
,,"(6, 6)",,,,,,,,
R,U,"[5, 6]",1.0,1.0,0.354794979095459,2.8757500648498535,0.5941759950772441,84.0,741.0,0.0
Y,R,"[5, 7]",1.0,2.0,0.1856698989868164,1.7661399841308594,0.4937093152668763,84.0,742.0,0.0
Y,R,"[5, 8]",1.0,3.0,0.17214608192443848,1.6545629501342773,0.38188430959785746,84.0,743.0,0.0
G,D,"[6, 8]",1.0,4.0,0.25928306579589844,1.8054089546203613,0.4371686265780133,84.0,744.0,0.0
Y,R,"[6, 9]",1.0,5.0,0.19702911376953125,1.5567820072174072,0.26095786337379084,84.0,745.0,0.0
Y,R,"[6, 10]",1.0,6.0,0.23661494255065918,1.719264030456543,0.39678733022348944,84.0,746.0,0.0
R,U,"[5, 10]",1.0,7.0,0.18126511573791504,1.8575708866119385,0.5708739417606462,84.0,747.0,0.0
R,U,"[4, 10]",-1.0,7.0,0.08055782318115234,5.661080837249756,0.4487365496356338,84.0,748.0,0.0
R,U,"[3, 10]",0.0,7.0,0.20778679847717285,1.897918939590454,0.5798220277438932,84.0,749.0,0.0
B,L,"[3, 9]",1.0,8.0,0.18981194496154785,1.713129997253418,0.41007630526809885,84.0,750.0,0.0
,,"(6, 6)",,,,,,,,
R,U,"[5, 6]",-999.0,0.0,0.559229850769043,3.304251194000244,0.44768300527759936,85.0,751.0,-4.0
Y,R,"[5, 7]",-999.0,0.0,0.2373030185699463,1.987839937210083,0.6520407949183007,85.0,752.0,-4.0
Y,R,"[5, 8]",-999.0,0.0,0.18220019340515137,1.6003010272979736,0.3191650836087227,85.0,753.0,-4.0
R,U,"[4, 8]",-999.0,0.0,0.3994569778442383,2.246826171875,0.7491708268050614,85.0,754.0,-4.0
G,D,"[5, 8]",-999.0,0.0,0.9282481670379639,2.3988959789276123,0.3649525436310115,85.0,755.0,1.0
,,"(6, 6)",,,,,,,,
R,U,"[5, 6]",1.0,1.0,0.3287777900695801,3.0676000118255615,0.6159309633670609,86.0,756.0,0.0
Y,R,"[5, 7]",1.0,2.0,0.1969470977783203,1.9798619747161865,0.6790726249216587,86.0,757.0,0.0
Y,R,"[5, 8]",1.0,3.0,0.19445109367370605,1.8036940097808838,0.4995436008090542,86.0,758.0,0.0
R,U,"[4, 8]",0.0,3.0,0.2046360969543457,1.6668248176574707,0.36662767847219035,86.0,759.0,0.0
G,D,"[5, 8]",0.0,3.0,0.4972670078277588,2.2258079051971436,0.6253840712410886,86.0,760.0,0.0
,,"(6, 6)",,,,,,,,
R,U,"[5, 6]",-999.0,0.0,0.4522829055786133,3.6979780197143555,0.6232976791636939,87.0,761.0,-4.0
Y,R,"[5, 7]",-999.0,0.0,0.23830509185791016,1.763232946395874,0.43705197359145376,87.0,762.0,-4.0
Y,R,"[5, 8]",-999.0,0.0,0.20449090003967285,1.8629138469696045,0.5665769632231168,87.0,763.0,-4.0
R,U,"[4, 8]",-999.0,0.0,0.20113611221313477,1.6562139987945557,0.35640165442057414,87.0,764.0,-4.0
B,L,"[4, 7]",-999.0,0.0,0.3333768844604492,2.1255760192871094,0.6984342035737012,87.0,765.0,1.0
,,"(6, 6)",,,,,,,,
R,U,"[5, 6]",-999.0,0.0,0.5069160461425781,3.4650309085845947,0.579914625953802,88.0,766.0,-4.0
Y,R,"[5, 7]",-999.0,0.0,0.2302870750427246,1.668783187866211,0.3323583286432256,88.0,767.0,-4.0
Y,R,"[5, 8]",-999.0,0.0,0.27190494537353516,1.7115519046783447,0.3441707158452245,88.0,768.0,-4.0
G,D,"[6, 8]",-999.0,0.0,0.5261080265045166,1.9294171333312988,0.30705481026531567,88.0,769.0,-4.0
Y,R,"[6, 9]",-999.0,0.0,0.620495080947876,1.961169958114624,0.2517558573490978,88.0,770.0,-4.0
,,"(6, 6)",,,,,,,,
G,D,"[6, 9]",-999.0,0.0,0.592418909072876,3.4325449466705322,0.46741318659575265,89.0,771.0,-5.0
G,D,"[6, 9]",-999.0,0.0,0.19068121910095215,1.836294174194336,0.5535955952705314,89.0,772.0,-5.0
G,D,"[6, 9]",-999.0,0.0,0.19811511039733887,1.8088569641113281,0.5126483049609598,89.0,773.0,-5.0
B,L,"[6, 9]",-999.0,0.0,0.7297608852386475,2.1050519943237305,0.2680409287555633,89.0,774.0,-5.0
B,L,"[6, 9]",-999.0,0.0,0.3762679100036621,1.9267160892486572,0.4444555888207507,89.0,775.0,-5.0
R,U,"[6, 9]",-999.0,0.0,0.5563769340515137,2.049434185028076,0.4109688542377592,89.0,776.0,-5.0
R,U,"[6, 9]",-999.0,0.0,0.6322941780090332,2.28531813621521,0.5627732089996644,89.0,777.0,-5.0
B,L,"[6, 9]",-999.0,0.0,0.4954490661621094,2.152545928955078,0.5485381876160582,89.0,778.0,-5.0
B,L,"[6, 9]",-999.0,0.0,0.4136199951171875,1.9167399406433105,0.3986822777041849,89.0,779.0,-5.0
G,D,"[7, 9]",-999.0,0.0,0.9320850372314453,2.2998950481414795,0.2654715643811991,89.0,780.0,1.0
,,"(6, 6)",,,,,,,,
R,U,"[5, 6]",1.0,1.0,0.4115920066833496,3.354975938796997,0.6367590516906273,90.0,781.0,0.0
Y,R,"[5, 7]",1.0,2.0,0.19517302513122559,1.5611000061035156,0.2649669713230755,90.0,782.0,0.0
Y,R,"[5, 8]",1.0,3.0,0.18537497520446777,2.017827033996582,0.7321846257184575,90.0,783.0,0.0
G,D,"[6, 8]",1.0,4.0,0.1668229103088379,1.7047779560089111,0.43722804289962847,90.0,784.0,0.0
Y,R,"[6, 9]",1.0,5.0,0.1748960018157959,1.6539990901947021,0.3746225939140332,90.0,785.0,0.0
Y,R,"[6, 10]",1.0,6.0,0.17007994651794434,1.885603904724121,0.6268365287633619,90.0,786.0,0.0
R,U,"[5, 10]",1.0,7.0,0.17179608345031738,1.8994929790496826,0.6096320273564796,90.0,787.0,0.0
R,U,"[4, 10]",1.0,8.0,0.1799170970916748,1.6125240325927734,0.3391170443577714,90.0,788.0,0.0
B,L,"[4, 9]",1.0,9.0,0.19116997718811035,1.9292049407958984,0.6346822547308868,90.0,789.0,0.0
R,U,"[3, 9]",1.0,10.0,0.18215417861938477,2.0066771507263184,0.7245182259687071,90.0,790.0,0.0
,,"(6, 6)",,,,,,,,
R,U,"[5, 6]",-999.0,0.0,0.7168781757354736,2.916712999343872,0.3751464613729149,91.0,791.0,-4.0
Y,R,"[5, 7]",-999.0,0.0,0.2173449993133545,1.882110834121704,0.5736548501820737,91.0,792.0,-4.0
Y,R,"[5, 8]",-999.0,0.0,0.23727107048034668,1.995250940322876,0.6686949177354041,91.0,793.0,-4.0
G,D,"[6, 8]",-999.0,0.0,0.5013229846954346,2.3470258712768555,0.7490170563043401,91.0,794.0,-4.0
Y,R,"[6, 9]",-999.0,0.0,0.5334270000457764,1.9079270362854004,0.2740134673850937,91.0,795.0,-4.0
Y,R,"[6, 10]",-999.0,0.0,0.4734640121459961,2.270781993865967,0.7111569882826734,91.0,796.0,-4.0
R,U,"[5, 10]",-999.0,0.0,0.4999411106109619,2.2375190258026123,0.6488197673236644,91.0,797.0,-4.0
R,U,"[4, 10]",-999.0,0.0,0.40602684020996094,2.1000308990478516,0.598810302044078,91.0,798.0,-4.0
R,U,"[3, 10]",-999.0,0.0,0.3060901165008545,2.040083169937134,0.6389660008720377,91.0,799.0,-4.0
B,L,"[3, 9]",-999.0,0.0,0.32565903663635254,1.8072781562805176,0.3797817814347365,91.0,800.0,1.0
,,"(6, 6)",,,,,,,,
R,U,"[5, 6]",1.0,1.0,0.4213240146636963,3.215059995651245,0.428141034275496,92.0,801.0,0.0
Y,R,"[5, 7]",1.0,2.0,0.200361967086792,1.7113020420074463,0.42274318157439406,92.0,802.0,0.0
Y,R,"[5, 8]",1.0,3.0,0.19166994094848633,1.6968460083007812,0.402935882685822,92.0,803.0,0.0
G,D,"[6, 8]",1.0,4.0,0.17663884162902832,1.7904889583587646,0.5099441183605764,92.0,804.0,0.0
Y,R,"[6, 9]",1.0,5.0,0.19431090354919434,1.9619109630584717,0.671785456224676,92.0,805.0,0.0
Y,R,"[6, 10]",1.0,6.0,0.14084792137145996,1.7081501483917236,0.46361427213910267,92.0,806.0,0.0
R,U,"[5, 10]",1.0,7.0,0.20222997665405273,1.766909122467041,0.4637211086316985,92.0,807.0,0.0
R,U,"[4, 10]",1.0,8.0,0.18175005912780762,1.822098970413208,0.5356993252147886,92.0,808.0,0.0
B,L,"[4, 9]",1.0,9.0,0.19694781303405762,1.6077208518981934,0.3104191362120374,92.0,809.0,0.0
R,U,"[3, 9]",1.0,10.0,0.1790330410003662,1.6806659698486328,0.40774630135880957,92.0,810.0,0.0
,,"(6, 6)",,,,,,,,
R,U,"[5, 6]",1.0,1.0,0.49370288848876953,2.789088010787964,0.7297504455040127,93.0,811.0,0.0
Y,R,"[5, 7]",1.0,2.0,0.19185209274291992,1.8525478839874268,0.5491569631922744,93.0,812.0,0.0
Y,R,"[5, 8]",1.0,3.0,0.1538560390472412,1.7857680320739746,0.5348052230945921,93.0,813.0,0.0
G,D,"[6, 8]",1.0,4.0,0.22074198722839355,1.7579278945922852,0.44306704179388406,93.0,814.0,0.0
Y,R,"[6, 9]",1.0,5.0,0.1957991123199463,2.039340019226074,0.7487268507792838,93.0,815.0,0.0
Y,R,"[6, 10]",1.0,6.0,0.20179295539855957,1.5804970264434814,0.27983371253741995,93.0,816.0,0.0
R,U,"[5, 10]",1.0,7.0,0.2507059574127197,1.695511817932129,0.34193892462006376,93.0,817.0,0.0
R,U,"[4, 10]",1.0,8.0,0.38018298149108887,1.7447240352630615,0.27001936839266666,93.0,818.0,0.0
B,L,"[4, 9]",1.0,9.0,0.2882678508758545,2.0307390689849854,0.6337673562335115,93.0,819.0,0.0
R,U,"[3, 9]",1.0,10.0,0.23092412948608398,1.822342872619629,0.4895904666786475,93.0,820.0,0.0
,,"(6, 6)",,,,,,,,
R,U,"[5, 6]",1.0,1.0,0.3840291500091553,6.625202178955078,0.6812865025058458,94.0,821.0,0.0
Y,R,"[5, 7]",1.0,2.0,0.24822998046875,1.9454891681671143,0.593522376848064,94.0,822.0,0.0
Y,R,"[5, 8]",1.0,3.0,0.16119599342346191,1.6843020915985107,0.42813609210384873,94.0,823.0,0.0
G,D,"[6, 8]",1.0,4.0,0.19761204719543457,1.6585781574249268,0.3700513972164148,94.0,824.0,0.0
Y,R,"[6, 9]",1.0,5.0,0.14255213737487793,1.8125059604644775,0.5656744525176292,94.0,825.0,0.0
Y,R,"[6, 10]",1.0,6.0,0.18053197860717773,1.8504760265350342,0.5662111193392179,94.0,826.0,0.0
R,U,"[5, 10]",1.0,7.0,0.17367815971374512,1.7720777988433838,0.4884140907630174,94.0,827.0,0.0
R,U,"[4, 10]",1.0,8.0,0.1850879192352295,1.7818629741668701,0.503513548726992,94.0,828.0,0.0
B,L,"[4, 9]",1.0,9.0,0.15772294998168945,1.6817471981048584,0.41874322644481443,94.0,829.0,0.0
R,U,"[3, 9]",1.0,10.0,0.17354989051818848,1.8489351272583008,0.5676265123966817,94.0,830.0,0.0
,,"(6, 6)",,,,,,,,
R,U,"[5, 6]",1.0,1.0,0.37853002548217773,2.990514039993286,0.5582783975871867,95.0,831.0,0.0
Y,R,"[5, 7]",1.0,2.0,0.17848587036132812,1.9121758937835693,0.6368070756567719,95.0,832.0,0.0
Y,R,"[5, 8]",1.0,3.0,0.10461091995239258,1.4788670539855957,0.266037912728448,95.0,833.0,0.0
G,D,"[6, 8]",1.0,4.0,0.1983180046081543,1.922179937362671,0.6213340126598201,95.0,834.0,0.0
Y,R,"[6, 9]",1.0,5.0,0.1969740390777588,1.6455118656158447,0.35041002447100467,95.0,835.0,0.0
Y,R,"[6, 10]",1.0,6.0,0.17597603797912598,1.5919280052185059,0.30902947589507307,95.0,836.0,0.0
R,U,"[5, 10]",1.0,7.0,0.19036507606506348,1.635754108428955,0.34472372928652084,95.0,837.0,0.0
R,U,"[4, 10]",1.0,8.0,0.13729286193847656,1.7494280338287354,0.5273684603713265,95.0,838.0,0.0
B,L,"[4, 9]",1.0,9.0,0.16730308532714844,1.9712061882019043,0.7151842418064738,95.0,839.0,0.0
R,U,"[3, 9]",1.0,10.0,0.22696995735168457,1.8299460411071777,0.49526277420619297,95.0,840.0,0.0
,,"(6, 6)",,,,,,,,
R,U,"[5, 6]",-999.0,0.0,0.5560388565063477,2.4662668704986572,0.3118935428464061,96.0,841.0,-4.0
Y,R,"[5, 7]",-999.0,0.0,0.41777491569519043,2.097368001937866,0.5920225417414711,96.0,842.0,-4.0
Y,R,"[5, 8]",-999.0,0.0,0.2638590335845947,1.863224983215332,0.5055338658643975,96.0,843.0,-4.0
G,D,"[6, 8]",-999.0,0.0,0.4821290969848633,1.9869589805603027,0.4092393572902611,96.0,844.0,-4.0
Y,R,"[6, 9]",-999.0,0.0,0.5998389720916748,2.3867599964141846,0.6957068488301374,96.0,845.0,-4.0
Y,R,"[6, 10]",-999.0,0.0,0.5211100578308105,1.8779270648956299,0.2576245338867663,96.0,846.0,-4.0
R,U,"[5, 10]",-999.0,0.0,0.5805380344390869,2.360265016555786,0.6840298971430533,96.0,847.0,-4.0
R,U,"[4, 10]",-999.0,0.0,0.3520941734313965,1.8847229480743408,0.4357181450879067,96.0,848.0,-4.0
R,U,"[3, 10]",-999.0,0.0,0.3475310802459717,2.06847882270813,0.6206811529201144,96.0,849.0,-4.0
B,L,"[3, 9]",-999.0,0.0,0.44173192977905273,2.2039198875427246,0.6578902025509369,96.0,850.0,1.0
,,"(6, 6)",,,,,,,,
G,D,"[3, 9]",-999.0,0.0,0.7175841331481934,3.7596850395202637,0.5347186715727875,97.0,851.0,-5.0
G,D,"[3, 9]",-999.0,0.0,0.18181490898132324,1.9549450874328613,0.6725846291767683,97.0,852.0,-5.0
G,D,"[3, 9]",-999.0,0.0,0.2334890365600586,1.6545829772949219,0.32748550253132325,97.0,853.0,-5.0
B,L,"[3, 9]",-999.0,0.0,0.4156990051269531,2.0503311157226562,0.5443414838056928,97.0,854.0,-5.0
B,L,"[3, 9]",-999.0,0.0,0.17963600158691406,1.687096118927002,0.41500288580669786,97.0,855.0,-5.0
R,U,"[3, 9]",-999.0,0.0,0.404695987701416,1.9075801372528076,0.40589620708450375,97.0,856.0,-5.0
R,U,"[3, 9]",-999.0,0.0,0.240203857421875,1.8455801010131836,0.5180115162840935,97.0,857.0,-5.0
B,L,"[3, 9]",-999.0,0.0,0.5039839744567871,2.1952531337738037,0.5962383207950586,97.0,858.0,-5.0
B,L,"[3, 9]",-999.0,0.0,0.2953767776489258,1.6673660278320312,0.2642418685971095,97.0,859.0,-5.0
G,D,"[4, 9]",-999.0,0.0,0.4373948574066162,1.9268920421600342,0.3911060832467952,97.0,860.0,1.0
,,"(6, 6)",,,,,,,,
G,D,"[4, 9]",-999.0,0.0,0.5243661403656006,3.5404980182647705,0.7312079923200133,98.0,861.0,-5.0
G,D,"[4, 9]",-999.0,0.0,0.22612595558166504,1.6644399166107178,0.3295454535432611,98.0,862.0,-5.0
G,D,"[4, 9]",-999.0,0.0,0.22230195999145508,1.8454968929290771,0.5247557482242925,98.0,863.0,-5.0
B,L,"[4, 9]",-999.0,0.0,0.17912697792053223,1.7417171001434326,0.4661921771524927,98.0,864.0,-5.0
B,L,"[4, 9]",-999.0,0.0,0.22304105758666992,1.8758928775787354,0.5590037566591726,98.0,865.0,-5.0
R,U,"[4, 9]",-999.0,0.0,0.19492697715759277,1.5780589580535889,0.2873633263591813,98.0,866.0,-5.0
R,U,"[4, 9]",-999.0,0.0,0.1990039348602295,1.6349358558654785,0.33903195170656786,98.0,867.0,-5.0
B,L,"[4, 9]",-999.0,0.0,0.6338961124420166,2.1644070148468018,0.4365897153126146,98.0,868.0,-5.0
B,L,"[4, 9]",-999.0,0.0,0.27826714515686035,1.8708159923553467,0.4907455801295892,98.0,869.0,-5.0
G,D,"[5, 9]",-999.0,0.0,0.33684396743774414,2.1230390071868896,0.6969817959917541,98.0,870.0,1.0
,,"(6, 6)",,,,,,,,
G,D,"[5, 9]",-999.0,0.0,0.5792689323425293,3.3442749977111816,0.4415905681165486,99.0,871.0,-5.0
G,D,"[5, 9]",-999.0,0.0,0.2182459831237793,1.799307107925415,0.4908727119912887,99.0,872.0,-5.0
G,D,"[5, 9]",-999.0,0.0,0.20125913619995117,1.6242570877075195,0.3320015448235971,99.0,873.0,-5.0
B,L,"[5, 9]",-999.0,0.0,0.20703697204589844,1.8951821327209473,0.5934603138981192,99.0,874.0,-5.0
B,L,"[5, 9]",-999.0,0.0,0.10893702507019043,1.718947172164917,0.4959777451285398,99.0,875.0,-5.0
R,U,"[5, 9]",-999.0,0.0,0.3355069160461426,1.6910960674285889,0.25394634193182164,99.0,876.0,-5.0
R,U,"[5, 9]",-999.0,0.0,0.222092866897583,2.0603020191192627,0.7471141340990319,99.0,877.0,-5.0
B,L,"[5, 9]",-999.0,0.0,0.1976490020751953,1.7272818088531494,0.4246122044010816,99.0,878.0,-5.0
B,L,"[5, 9]",-999.0,0.0,0.20227289199829102,1.7683000564575195,0.4763507041469659,99.0,879.0,-5.0
R,U,"[4, 9]",-999.0,0.0,0.507390022277832,2.0566229820251465,0.44959473849621184,99.0,880.0,1.0
,,"(6, 6)",,,,,,,,
R,U,"[5, 6]",1.0,1.0,0.4034309387207031,15.43411111831665,0.5006571969386158,100.0,881.0,0.0
Y,R,"[5, 7]",1.0,2.0,0.22494888305664062,1.8976080417633057,0.5647730898129044,100.0,882.0,0.0
Y,R,"[5, 8]",1.0,3.0,0.1320199966430664,1.5883078575134277,0.35339286218192983,100.0,883.0,0.0
G,D,"[6, 8]",1.0,4.0,0.17290306091308594,1.7901949882507324,0.5099891153241694,100.0,884.0,0.0
Y,R,"[6, 9]",1.0,5.0,0.2013850212097168,2.0264251232147217,0.7368022990593607,100.0,885.0,0.0
Y,R,"[6, 10]",-1.0,5.0,0.08149409294128418,5.638447046279907,0.4250258201905692,100.0,886.0,0.0
R,U,"[5, 10]",1.0,6.0,0.1820361614227295,1.9308490753173828,0.6559176916184909,100.0,887.0,0.0
R,U,"[4, 10]",1.0,7.0,0.1859571933746338,1.9230999946594238,0.6455131415847801,100.0,888.0,0.0
B,L,"[4, 9]",1.0,8.0,0.18205690383911133,1.864717960357666,0.5936053628956947,100.0,889.0,0.0
R,U,"[3, 9]",1.0,9.0,0.24742698669433594,2.0168280601501465,0.677015491886165,100.0,890.0,0.0
,,"(6, 6)",,,,,,,,
R,U,"[5, 6]",1.0,1.0,0.5458290576934814,2.4643290042877197,0.3750237324257338,101.0,891.0,0.0
Y,R,"[5, 7]",1.0,2.0,0.19359493255615234,1.7488210201263428,0.4571036696207055,101.0,892.0,0.0
Y,R,"[5, 8]",1.0,3.0,0.22362494468688965,1.6593539714813232,0.33337652990344624,101.0,893.0,0.0
G,D,"[6, 8]",1.0,4.0,0.20881009101867676,1.585900068283081,0.26921958624612013,101.0,894.0,0.0
Y,R,"[6, 9]",1.0,5.0,0.25745606422424316,1.7675061225891113,0.4032733730741936,101.0,895.0,0.0
Y,R,"[6, 10]",1.0,6.0,0.34888792037963867,2.0759952068328857,0.6290247746157587,101.0,896.0,0.0
R,U,"[5, 10]",1.0,7.0,0.2166149616241455,1.8598971366882324,0.539088076964507,101.0,897.0,0.0
R,U,"[4, 10]",1.0,8.0,0.19186115264892578,1.6597299575805664,0.3658045030102225,101.0,898.0,0.0
B,L,"[4, 9]",1.0,9.0,0.2200150489807129,1.9614338874816895,0.6434493888500559,101.0,899.0,0.0
R,U,"[3, 9]",1.0,10.0,0.30406785011291504,1.950282096862793,0.5606305321560178,101.0,900.0,0.0
,,"(6, 6)",,,,,,,,
R,U,"[5, 6]",1.0,1.0,0.3944389820098877,2.758423089981079,0.41932626664735656,102.0,901.0,0.0
Y,R,"[5, 7]",1.0,2.0,0.24979782104492188,1.604269027709961,0.2571281381217077,102.0,902.0,0.0
Y,R,"[5, 8]",1.0,3.0,0.4526050090789795,1.881354808807373,0.33828777248947905,102.0,903.0,0.0
G,D,"[6, 8]",1.0,4.0,0.2065889835357666,1.5683131217956543,0.25673896017997777,102.0,904.0,0.0
Y,R,"[6, 9]",1.0,5.0,0.24379515647888184,1.9980249404907227,0.6543837658113829,102.0,905.0,0.0
Y,R,"[6, 10]",1.0,6.0,0.18326401710510254,1.6953959465026855,0.41676034557848557,102.0,906.0,0.0
R,U,"[5, 10]",-1.0,6.0,0.09209609031677246,5.613639831542969,0.38057530493296177,102.0,907.0,0.0
R,U,"[4, 10]",1.0,7.0,0.49659299850463867,1.8609631061553955,0.2581657076987506,102.0,908.0,0.0
B,L,"[4, 9]",1.0,8.0,0.26754117012023926,1.8697340488433838,0.5110733256168696,102.0,909.0,0.0
R,U,"[3, 9]",1.0,9.0,0.18289589881896973,1.7685878276824951,0.496442982132572,102.0,910.0,0.0
,,"(6, 6)",,,,,,,,
R,U,"[5, 6]",1.0,1.0,0.5811140537261963,13.659374952316284,0.2729360992882299,103.0,911.0,0.0
Y,R,"[5, 7]",1.0,2.0,0.3380699157714844,2.002269983291626,0.5748389658727484,103.0,912.0,0.0
Y,R,"[5, 8]",1.0,3.0,0.19816184043884277,1.9032340049743652,0.6114450088052754,103.0,913.0,0.0
G,D,"[6, 8]",1.0,4.0,0.12132596969604492,1.5603389739990234,0.35540969809562545,103.0,914.0,0.0
Y,R,"[6, 9]",1.0,5.0,0.18961691856384277,1.9600498676300049,0.665149767045507,103.0,915.0,0.0
Y,R,"[6, 10]",1.0,6.0,0.18226003646850586,1.6147959232330322,0.3303726416881668,103.0,916.0,0.0
R,U,"[5, 10]",1.0,7.0,0.2034599781036377,1.8900020122528076,0.5866720452967116,103.0,917.0,0.0
R,U,"[4, 10]",1.0,8.0,0.20527291297912598,1.686837911605835,0.3736589159683347,103.0,918.0,0.0
B,L,"[4, 9]",1.0,9.0,0.24191713333129883,2.0684149265289307,0.7250503763680445,103.0,919.0,0.0
R,U,"[3, 9]",1.0,10.0,0.2113809585571289,1.8244960308074951,0.5166285574445295,103.0,920.0,0.0
,,"(6, 6)",,,,,,,,
R,U,"[5, 6]",1.0,1.0,0.3685641288757324,3.055450916290283,0.6219069649171918,104.0,921.0,0.0
Y,R,"[5, 7]",1.0,2.0,0.23407793045043945,1.8746237754821777,0.5466313884032566,104.0,922.0,0.0
Y,R,"[5, 8]",1.0,3.0,0.22234511375427246,1.7430241107940674,0.406466945934516,104.0,923.0,0.0
G,D,"[6, 8]",1.0,4.0,0.2175121307373047,1.9094700813293457,0.5991412924541835,104.0,924.0,0.0
Y,R,"[6, 9]",1.0,5.0,0.20598483085632324,2.0447070598602295,0.727039356087015,104.0,925.0,0.0
Y,R,"[6, 10]",1.0,6.0,0.2149641513824463,1.810154914855957,0.5042028308802415,104.0,926.0,0.0
R,U,"[5, 10]",1.0,7.0,0.23374104499816895,1.8030989170074463,0.47395133038754705,104.0,927.0,0.0
R,U,"[4, 10]",1.0,8.0,0.21111488342285156,1.709477186203003,0.40013886157039097,104.0,928.0,0.0
B,L,"[4, 9]",1.0,9.0,0.24645113945007324,1.8208858966827393,0.4710866128798943,104.0,929.0,0.0
R,U,"[3, 9]",1.0,10.0,0.19056296348571777,1.915410041809082,0.6196477165863283,104.0,930.0,0.0
,,"(6, 6)",,,,,,,,
R,U,"[5, 6]",1.0,1.0,0.4192478656768799,2.9171831607818604,0.7201168250696761,105.0,931.0,0.0
Y,R,"[5, 7]",1.0,2.0,0.19750213623046875,1.6313199996948242,0.33514090124846085,105.0,932.0,0.0
Y,R,"[5, 8]",1.0,3.0,0.25051093101501465,1.763612985610962,0.4155553367969334,105.0,933.0,0.0
G,D,"[6, 8]",1.0,4.0,0.20426297187805176,1.8677191734313965,0.566423072350251,105.0,934.0,0.0
Y,R,"[6, 9]",1.0,5.0,0.18722987174987793,1.7668681144714355,0.48324218842196903,105.0,935.0,0.0
Y,R,"[6, 10]",1.0,6.0,0.2238779067993164,1.7944271564483643,0.46117679484054924,105.0,936.0,0.0
R,U,"[5, 10]",1.0,7.0,0.23730111122131348,1.8883271217346191,0.5660348072740705,105.0,937.0,0.0
R,U,"[4, 10]",1.0,8.0,0.21046209335327148,1.8826310634613037,0.5654395526839936,105.0,938.0,0.0
B,L,"[4, 9]",1.0,9.0,0.20612788200378418,1.9385080337524414,0.6204370053097661,105.0,939.0,0.0
R,U,"[3, 9]",1.0,10.0,0.18563079833984375,1.9924850463867188,0.7128789613806475,105.0,940.0,0.0
,,"(6, 6)",,,,,,,,
R,U,"[5, 6]",1.0,1.0,0.3448209762573242,3.1595089435577393,0.6558286942533376,106.0,941.0,0.0
Y,R,"[5, 7]",1.0,2.0,0.17590808868408203,1.7889759540557861,0.5118828277404484,106.0,942.0,0.0
Y,R,"[5, 8]",1.0,3.0,0.20296907424926758,1.6912410259246826,0.4031656003562434,106.0,943.0,0.0
G,D,"[6, 8]",1.0,4.0,0.20683813095092773,2.0040299892425537,0.6902876026929647,106.0,944.0,0.0
Y,R,"[6, 9]",1.0,5.0,0.2089250087738037,1.946544885635376,0.6367448012528021,106.0,945.0,0.0
Y,R,"[6, 10]",1.0,6.0,0.1898810863494873,1.5927159786224365,0.29666924874346146,106.0,946.0,0.0
R,U,"[5, 10]",1.0,7.0,0.23418903350830078,1.8335731029510498,0.4966976702851406,106.0,947.0,0.0
R,U,"[4, 10]",1.0,8.0,0.19002008438110352,1.9082751274108887,0.6048192135839058,106.0,948.0,0.0
B,L,"[4, 9]",1.0,9.0,0.17441582679748535,1.9783239364624023,0.6997292584869039,106.0,949.0,0.0
R,U,"[3, 9]",1.0,10.0,0.1916179656982422,2.0009329319000244,0.7006497008001965,106.0,950.0,0.0
,,"(6, 6)",,,,,,,,
R,U,"[5, 6]",1.0,1.0,0.4394490718841553,2.240665912628174,0.291573807587244,107.0,951.0,0.0
Y,R,"[5, 7]",1.0,2.0,0.35448694229125977,2.1400630474090576,0.6981456286602409,107.0,952.0,0.0
Y,R,"[5, 8]",1.0,3.0,0.2033100128173828,1.9990499019622803,0.6972603862506147,107.0,953.0,0.0
G,D,"[6, 8]",1.0,4.0,0.18736600875854492,1.9827768802642822,0.6967656428437498,107.0,954.0,0.0
Y,R,"[6, 9]",1.0,5.0,0.24418997764587402,1.8834500312805176,0.5303446688376745,107.0,955.0,0.0
Y,R,"[6, 10]",1.0,6.0,0.35089588165283203,1.9325840473175049,0.4795857058274756,107.0,956.0,0.0
R,U,"[5, 10]",1.0,7.0,0.23864293098449707,1.9387779235839844,0.6015420690723585,107.0,957.0,0.0
R,U,"[4, 10]",1.0,8.0,0.2094249725341797,1.9144480228424072,0.599395539169618,107.0,958.0,0.0
B,L,"[4, 9]",1.0,9.0,0.1838672161102295,1.659012794494629,0.37547999628618944,107.0,959.0,0.0
R,U,"[3, 9]",1.0,10.0,0.20384478569030762,1.816917896270752,0.52554116897753,107.0,960.0,0.0
,,"(6, 6)",,,,,,,,
R,U,"[5, 6]",1.0,1.0,0.4024689197540283,2.2797930240631104,0.38865676421264644,108.0,961.0,0.0
Y,R,"[5, 7]",1.0,2.0,0.2249741554260254,1.8278391361236572,0.4998148780114943,108.0,962.0,0.0
Y,R,"[5, 8]",1.0,3.0,0.20071101188659668,1.765221118927002,0.46532776072150867,108.0,963.0,0.0
G,D,"[6, 8]",1.0,4.0,0.17949199676513672,1.8293640613555908,0.5446195726638414,108.0,964.0,0.0
Y,R,"[6, 9]",1.0,5.0,0.20167088508605957,2.029510974884033,0.7405398704524373,108.0,965.0,0.0
Y,R,"[6, 10]",1.0,6.0,0.18035483360290527,1.648874044418335,0.37312342839396523,108.0,966.0,0.0
R,U,"[5, 10]",1.0,7.0,0.1894998550415039,2.0199801921844482,0.7261449839257359,108.0,967.0,0.0
R,U,"[4, 10]",1.0,8.0,0.21283602714538574,1.6080849170684814,0.30139162473606035,108.0,968.0,0.0
B,L,"[4, 9]",1.0,9.0,0.20909619331359863,1.5919790267944336,0.2766793880271511,108.0,969.0,0.0
R,U,"[3, 9]",1.0,10.0,0.20577096939086914,1.8328850269317627,0.5261409852097622,108.0,970.0,0.0
,,"(6, 6)",,,,,,,,
R,U,"[5, 6]",1.0,1.0,0.34029197692871094,2.6487839221954346,0.42507303459046814,109.0,971.0,0.0
Y,R,"[5, 7]",1.0,2.0,0.1945958137512207,1.757331132888794,0.4655512865725814,109.0,972.0,0.0
Y,R,"[5, 8]",1.0,3.0,0.18400287628173828,1.7541959285736084,0.4697934590644005,109.0,973.0,0.0
G,D,"[6, 8]",1.0,4.0,0.2233128547668457,1.7072539329528809,0.377172327765187,109.0,974.0,0.0
Y,R,"[6, 9]",1.0,5.0,0.23214197158813477,1.825718879699707,0.5027761482918968,109.0,975.0,0.0
Y,R,"[6, 10]",1.0,6.0,0.16089081764221191,1.6522300243377686,0.38851551008086543,109.0,976.0,0.0
R,U,"[5, 10]",1.0,7.0,0.23786401748657227,1.8718791007995605,0.5434649829717281,109.0,977.0,0.0
R,U,"[4, 10]",1.0,8.0,0.20041799545288086,1.8059971332550049,0.5162898499651478,109.0,978.0,0.0
B,L,"[4, 9]",1.0,9.0,0.1978931427001953,1.9985711574554443,0.6981490255853049,109.0,979.0,0.0
R,U,"[3, 9]",1.0,10.0,0.19889020919799805,1.91115403175354,0.6093979634688795,109.0,980.0,0.0
,,"(6, 6)",,,,,,,,
R,U,"[5, 6]",1.0,1.0,0.3706958293914795,2.3718080520629883,0.581238385195374,110.0,981.0,0.0
Y,R,"[5, 7]",1.0,2.0,0.20654702186584473,2.0088179111480713,0.6899383456700166,110.0,982.0,0.0
Y,R,"[5, 8]",1.0,3.0,0.1318209171295166,1.9214210510253906,0.6947102292887246,110.0,983.0,0.0
G,D,"[6, 8]",1.0,4.0,0.20700287818908691,1.6393489837646484,0.33461334641101104,110.0,984.0,0.0
Y,R,"[6, 9]",1.0,5.0,0.23720717430114746,1.688905954360962,0.3400409127507352,110.0,985.0,0.0
Y,R,"[6, 10]",1.0,6.0,0.22081518173217773,1.8406939506530762,0.530686670665566,110.0,986.0,0.0
R,U,"[5, 10]",1.0,7.0,0.20214605331420898,1.9455721378326416,0.6427562763802552,110.0,987.0,0.0
R,U,"[4, 10]",1.0,8.0,0.20270299911499023,1.7443809509277344,0.4540075672329326,110.0,988.0,0.0
B,L,"[4, 9]",1.0,9.0,0.20438480377197266,1.8973660469055176,0.5845905414041391,110.0,989.0,0.0
R,U,"[3, 9]",1.0,10.0,0.22701692581176758,1.849735975265503,0.5178002405761147,110.0,990.0,0.0
,,"(6, 6)",,,,,,,,
R,U,"[5, 6]",1.0,1.0,0.41864895820617676,2.4462239742279053,0.5974570866135183,111.0,991.0,0.0
Y,R,"[5, 7]",1.0,2.0,0.17101597785949707,1.735933780670166,0.4667810326101719,111.0,992.0,0.0
Y,R,"[5, 8]",1.0,3.0,0.20675992965698242,1.5817880630493164,0.2654310073582186,111.0,993.0,0.0
G,D,"[6, 8]",1.0,4.0,0.26131486892700195,1.8489100933074951,0.48079535571823945,111.0,994.0,0.0
Y,R,"[6, 9]",1.0,5.0,0.18738818168640137,1.6689190864562988,0.3832520191805696,111.0,995.0,0.0
Y,R,"[6, 10]",1.0,6.0,0.2339940071105957,2.0111260414123535,0.6773555904689181,111.0,996.0,0.0
R,U,"[5, 10]",1.0,7.0,0.23682498931884766,1.64119291305542,0.3188777848062608,111.0,997.0,0.0
R,U,"[4, 10]",1.0,8.0,0.2500801086425781,1.732985019683838,0.3852764921277949,111.0,998.0,0.0
B,L,"[4, 9]",1.0,9.0,0.2207028865814209,1.8591978549957275,0.5275356215233558,111.0,999.0,0.0
R,U,"[3, 9]",1.0,10.0,0.19476699829101562,1.8642818927764893,0.5753268112976198,111.0,1000.0,0.0
