button_choice,action_choice,coordinate_choice,reward,cumulative_reward,rt,total_trial_time,iti,block_n,trial_n,trial_type
Y,R,"[6, 7]",0.0,0.0,0.30082011222839355,1.82509183883667,0.5092317885764088,0.0,1.0,0.0
G,D,"[7, 7]",-2.0,0.0,4.1079370975494385,5.525987863540649,0.4516926474884423,0.0,2.0,0.0
R,U,"[6, 7]",0.0,0.0,0.4032769203186035,1.7396149635314941,0.3414347694988069,0.0,3.0,0.0
Y,R,"[6, 8]",1.0,1.0,0.7597951889038086,2.121062994003296,0.3623533107259678,0.0,4.0,0.0
Y,R,"[6, 9]",-2.0,1.0,1.1154611110687256,2.6947319507598877,0.6066964978445644,0.0,5.0,0.0
G,D,"[7, 9]",0.0,1.0,0.5911061763763428,2.2265939712524414,0.6332024668081999,0.0,6.0,0.0
B,L,"[7, 8]",0.0,1.0,0.2956829071044922,2.00496506690979,0.7047258034790247,0.0,7.0,0.0
Y,R,"[7, 9]",0.0,1.0,0.2856791019439697,1.7201039791107178,0.4416711846710983,0.0,8.0,0.0
Y,R,"[7, 10]",0.0,1.0,0.2550239562988281,1.777259111404419,0.5354472680505176,0.0,9.0,0.0
R,U,"[6, 10]",1.0,2.0,0.2707498073577881,1.774717092514038,0.5101352785805231,0.0,10.0,0.0
,,"(6, 6)",,,,,,,,
R,U,"[5, 6]",-1.0,0.0,0.09949278831481934,7.861675024032593,0.5882344797405015,1.0,11.0,0.0
G,D,"[6, 6]",0.0,0.0,0.3698770999908447,1.711331844329834,0.333146129919708,1.0,12.0,0.0
B,L,"[6, 5]",0.0,0.0,0.3286099433898926,1.622549057006836,0.2890214063951869,1.0,13.0,0.0
Y,R,"[6, 6]",0.0,0.0,0.2729170322418213,1.9574849605560303,0.6960952222905359,1.0,14.0,0.0
Y,R,"[6, 7]",0.0,0.0,0.20014500617980957,1.8798058032989502,0.6758095488740867,1.0,15.0,0.0
R,U,"[5, 7]",1.0,1.0,0.25156712532043457,1.959907054901123,0.7189634727920582,1.0,16.0,0.0
R,U,"[4, 7]",0.0,1.0,0.39187192916870117,2.080889940261841,0.6832576427385175,1.0,17.0,0.0
Y,R,"[4, 8]",0.0,1.0,0.22853589057922363,1.5593860149383545,0.3261832904176155,1.0,18.0,0.0
G,D,"[5, 8]",1.0,2.0,0.27246904373168945,1.9626491069793701,0.6885023877030572,1.0,19.0,0.0
B,L,"[5, 7]",0.0,2.0,0.20981884002685547,1.9553229808807373,0.743764592794796,1.0,20.0,0.0
,,"(6, 6)",,,,,,,,
R,U,"[5, 6]",1.0,1.0,0.11942315101623535,3.1166598796844482,0.49391110500744767,2.0,21.0,0.0
R,U,"[4, 6]",0.0,1.0,0.9847731590270996,2.4870400428771973,0.5142859128188279,2.0,22.0,0.0
Y,R,"[4, 7]",0.0,1.0,0.3180868625640869,1.9953649044036865,0.6764825500316125,2.0,23.0,0.0
G,D,"[5, 7]",1.0,2.0,0.23469805717468262,1.926783800125122,0.7027412806680925,2.0,24.0,0.0
B,L,"[5, 6]",0.0,2.0,0.258328914642334,1.626335859298706,0.3627038749420357,2.0,25.0,0.0
R,U,"[4, 6]",0.0,2.0,0.25805187225341797,1.9089128971099854,0.6380818872509038,2.0,26.0,0.0
Y,R,"[4, 7]",0.0,2.0,0.5035200119018555,1.8394129276275635,0.3443493917931766,2.0,27.0,0.0
G,D,"[5, 7]",0.0,2.0,0.29372406005859375,1.9698400497436523,0.6805199811200967,2.0,28.0,0.0
B,L,"[5, 6]",0.0,2.0,0.294435977935791,1.735239028930664,0.4325757080448713,2.0,29.0,0.0
B,L,"[5, 5]",0.0,2.0,0.4970719814300537,2.1441280841827393,0.6432755974096591,2.0,30.0,0.0
,,"(6, 6)",,,,,,,,
Y,R,"[6, 7]",0.0,0.0,0.7592201232910156,3.8440141677856445,0.5206534435673572,3.0,31.0,0.0
R,U,"[5, 7]",1.0,1.0,0.15057706832885742,1.4211599826812744,0.27539221037446643,3.0,32.0,0.0
Y,R,"[5, 8]",1.0,2.0,0.5629739761352539,2.2413289546966553,0.6829126972997084,3.0,33.0,0.0
G,D,"[6, 8]",1.0,3.0,0.244920015335083,1.831063985824585,0.5807450707390898,3.0,34.0,0.0
B,L,"[6, 7]",0.0,3.0,0.20960307121276855,1.5795440673828125,0.3604865503775482,3.0,35.0,0.0
Y,R,"[6, 8]",0.0,3.0,0.43626904487609863,1.7400391101837158,0.3172571043622134,3.0,36.0,0.0
R,U,"[5, 8]",0.0,3.0,0.6504769325256348,2.3481781482696533,0.6982978195001703,3.0,37.0,0.0
Y,R,"[5, 9]",0.0,3.0,0.23275089263916016,1.8782539367675781,0.6432878400136848,3.0,38.0,0.0
G,D,"[6, 9]",1.0,4.0,0.18625688552856445,1.711108922958374,0.5378075158416514,3.0,39.0,0.0
B,L,"[6, 8]",0.0,4.0,0.2923600673675537,1.6537680625915527,0.3583787716505509,3.0,40.0,0.0
,,"(6, 6)",,,,,,,,
Y,R,"[6, 7]",-2.0,0.0,1.4446899890899658,4.900104999542236,0.5915193872841218,4.0,41.0,0.0
Y,R,"[6, 8]",1.0,1.0,0.24449801445007324,1.923443078994751,0.6815439138680999,4.0,42.0,0.0
R,U,"[5, 8]",1.0,2.0,0.2614319324493408,1.799818992614746,0.5314835350793174,4.0,43.0,0.0
G,D,"[6, 8]",0.0,2.0,0.33314013481140137,1.8103570938110352,0.47523326617264927,4.0,44.0,0.0
B,L,"[6, 7]",0.0,2.0,0.35703182220458984,1.9560370445251465,0.5977777842962653,4.0,45.0,0.0
G,D,"[7, 7]",0.0,2.0,0.520427942276001,1.77105712890625,0.252419625239455,4.0,46.0,0.0
R,U,"[6, 7]",0.0,2.0,0.35375094413757324,1.6508469581604004,0.303131416032358,4.0,47.0,0.0
Y,R,"[6, 8]",-1.0,2.0,0.02898406982421875,5.371738910675049,0.27494144638899587,4.0,48.0,0.0
Y,R,"[6, 9]",1.0,3.0,0.3060910701751709,1.7347509860992432,0.426075617567248,4.0,49.0,0.0
R,U,"[5, 9]",0.0,3.0,0.28470611572265625,1.6381559371948242,0.3643699336163093,4.0,50.0,0.0
,,"(6, 6)",,,,,,,,
R,U,"[5, 6]",1.0,1.0,0.6732578277587891,5.008497953414917,0.5729872711973811,5.0,51.0,0.0
Y,R,"[5, 7]",1.0,2.0,0.31765198707580566,1.8153941631317139,0.5047312700121851,5.0,52.0,0.0
R,U,"[4, 7]",0.0,2.0,0.29909706115722656,1.5963349342346191,0.3012455642511732,5.0,53.0,0.0
G,D,"[5, 7]",0.0,2.0,0.31729817390441895,1.701934814453125,0.38655866667980626,5.0,54.0,0.0
Y,R,"[5, 8]",1.0,3.0,0.540963888168335,1.952949047088623,0.405894295407783,5.0,55.0,0.0
B,L,"[5, 7]",0.0,3.0,0.3199279308319092,1.7462279796600342,0.4354188698399291,5.0,56.0,0.0
G,D,"[6, 7]",0.0,3.0,0.2738959789276123,1.632889986038208,0.351790450772844,5.0,57.0,0.0
R,U,"[5, 7]",0.0,3.0,0.21167302131652832,1.7849931716918945,0.5697926250144159,5.0,58.0,0.0
Y,R,"[5, 8]",0.0,3.0,0.188277006149292,1.7287089824676514,0.5484880399259544,5.0,59.0,0.0
G,D,"[6, 8]",-1.0,3.0,0.035331010818481445,5.462284088134766,0.3606906915881967,5.0,60.0,0.0
,,"(6, 6)",,,,,,,,
Y,R,"[6, 7]",0.0,0.0,0.9343891143798828,3.9420981407165527,0.25286464400122505,6.0,61.0,0.0
Y,R,"[6, 8]",1.0,1.0,0.4118161201477051,1.881937026977539,0.4678189565818136,6.0,62.0,0.0
R,U,"[5, 8]",1.0,2.0,0.2695889472961426,1.9757330417633057,0.709814263132754,6.0,63.0,0.0
G,D,"[6, 8]",0.0,2.0,0.44680094718933105,1.7281110286712646,0.2883742607184072,6.0,64.0,0.0
B,L,"[6, 7]",0.0,2.0,0.6564021110534668,1.9256229400634766,0.26395840842533935,6.0,65.0,0.0
Y,R,"[6, 8]",0.0,2.0,0.4242589473724365,2.164430856704712,0.7279875897669374,6.0,66.0,0.0
R,U,"[5, 8]",0.0,2.0,0.2710869312286377,1.5756731033325195,0.3205497667933103,6.0,67.0,0.0
B,L,"[5, 7]",1.0,3.0,0.27878499031066895,1.8425359725952148,0.5628678560488509,6.0,68.0,0.0
G,D,"[6, 7]",0.0,3.0,0.1489410400390625,1.5666239261627197,0.41295397137890016,6.0,69.0,0.0
Y,R,"[6, 8]",0.0,3.0,0.17409920692443848,1.731323003768921,0.5440841181239073,6.0,70.0,0.0
,,"(6, 6)",,,,,,,,
R,U,"[5, 6]",1.0,1.0,0.475369930267334,3.7466888427734375,0.2741477874732244,7.0,71.0,0.0
Y,R,"[5, 7]",1.0,2.0,0.3683900833129883,1.7775020599365234,0.41827794118433226,7.0,72.0,0.0
R,U,"[4, 7]",0.0,2.0,0.32210516929626465,1.7212340831756592,0.3894665034242345,7.0,73.0,0.0
B,L,"[4, 6]",0.0,2.0,0.5563549995422363,2.0128490924835205,0.4688038614065054,7.0,74.0,0.0
G,D,"[5, 6]",0.0,2.0,0.24990296363830566,1.7593979835510254,0.5114872202979748,7.0,75.0,0.0
Y,R,"[5, 7]",0.0,2.0,0.22868704795837402,1.922760009765625,0.7008525274364407,7.0,76.0,0.0
R,U,"[4, 7]",0.0,2.0,0.23137712478637695,1.8708879947662354,0.6381475078177762,7.0,77.0,0.0
G,D,"[5, 7]",0.0,2.0,0.4916541576385498,1.850877046585083,0.35592174487046,7.0,78.0,0.0
B,L,"[5, 6]",0.0,2.0,0.2628448009490967,2.0010478496551514,0.7400054468258204,7.0,79.0,0.0
Y,R,"[5, 7]",0.0,2.0,0.18456006050109863,1.4569039344787598,0.2806027374717386,7.0,80.0,0.0
,,"(6, 6)",,,,,,,,
Y,R,"[6, 7]",-2.0,0.0,1.0615589618682861,4.466996192932129,0.5804066953413145,8.0,81.0,0.0
Y,R,"[6, 8]",1.0,1.0,0.26413989067077637,2.0115721225738525,0.7419190945201978,8.0,82.0,0.0
R,U,"[5, 8]",1.0,2.0,0.2991328239440918,1.7526450157165527,0.4614828508012806,8.0,83.0,0.0
G,D,"[6, 8]",0.0,2.0,0.3741459846496582,1.9490721225738525,0.5770641078789087,8.0,84.0,0.0
B,L,"[6, 7]",0.0,2.0,0.3291490077972412,2.0039069652557373,0.6807952830527595,8.0,85.0,0.0
Y,R,"[6, 8]",0.0,2.0,0.20649194717407227,1.6181421279907227,0.4157735931734109,8.0,86.0,0.0
R,U,"[5, 8]",0.0,2.0,0.29481005668640137,1.9340848922729492,0.6330129486816991,8.0,87.0,0.0
R,U,"[4, 8]",-1.0,2.0,0.0008859634399414062,5.551923990249634,0.4849856513427265,8.0,88.0,0.0
R,U,"[3, 8]",0.0,2.0,0.23643994331359863,1.918583869934082,0.6865753062369897,8.0,89.0,0.0
G,D,"[4, 8]",0.0,2.0,0.3587338924407959,1.665294885635376,0.3023525800449898,8.0,90.0,0.0
,,"(6, 6)",,,,,,,,
Y,R,"[6, 7]",0.0,0.0,0.9817399978637695,4.456751108169556,0.5420091936683957,9.0,91.0,0.0
R,U,"[5, 7]",1.0,1.0,0.25202488899230957,1.6433517932891846,0.4021180455521636,9.0,92.0,0.0
Y,R,"[5, 8]",1.0,2.0,0.3500499725341797,1.6106491088867188,0.2628866145621339,9.0,93.0,0.0
G,D,"[6, 8]",1.0,3.0,0.31777215003967285,1.6627140045166016,0.34203511342998083,9.0,94.0,0.0
B,L,"[6, 7]",0.0,3.0,0.4223439693450928,2.063383102416992,0.6384721088459199,9.0,95.0,0.0
Y,R,"[6, 8]",0.0,3.0,0.3929100036621094,2.136104106903076,0.7411216698939633,9.0,96.0,0.0
R,U,"[5, 8]",0.0,3.0,0.2773292064666748,1.5524418354034424,0.2773645779615975,9.0,97.0,0.0
R,U,"[4, 8]",0.0,3.0,0.9743218421936035,2.5622830390930176,0.5892666258766301,9.0,98.0,0.0
Y,R,"[4, 9]",1.0,4.0,0.3055601119995117,1.5622670650482178,0.25193346969347424,9.0,99.0,0.0
G,D,"[5, 9]",0.0,4.0,0.44094109535217285,1.772387981414795,0.3241407968452072,9.0,100.0,0.0
,,"(6, 6)",,,,,,,,
R,U,"[5, 6]",1.0,1.0,0.3543989658355713,3.397339105606079,0.2714826277797615,10.0,101.0,0.0
Y,R,"[5, 7]",1.0,2.0,0.35901403427124023,1.724609136581421,0.3626991389301406,10.0,102.0,0.0
R,U,"[4, 7]",0.0,2.0,0.2818310260772705,1.8003919124603271,0.5129039423385011,10.0,103.0,0.0
G,D,"[5, 7]",0.0,2.0,0.28984999656677246,1.994748830795288,0.6907226169804306,10.0,104.0,0.0
B,L,"[5, 6]",0.0,2.0,0.29549598693847656,1.8351860046386719,0.5427093473906854,10.0,105.0,0.0
Y,R,"[5, 7]",0.0,2.0,0.27919697761535645,1.8818800449371338,0.6077399020098757,10.0,106.0,0.0
Y,R,"[5, 8]",1.0,3.0,0.23182988166809082,1.656160831451416,0.43070109338337026,10.0,107.0,0.0
R,U,"[4, 8]",0.0,3.0,0.24014687538146973,1.8797898292541504,0.6270339466239315,10.0,108.0,0.0
B,L,"[4, 7]",0.0,3.0,0.1504991054534912,1.8189198970794678,0.6791885364320367,10.0,109.0,0.0
Y,R,"[4, 8]",0.0,3.0,0.2482891082763672,1.7970218658447266,0.542994690895172,10.0,110.0,0.0
,,"(6, 6)",,,,,,,,
R,U,"[5, 6]",1.0,1.0,0.48776793479919434,3.8249809741973877,0.6676854437219075,11.0,111.0,0.0
Y,R,"[5, 7]",1.0,2.0,0.3886110782623291,1.761418104171753,0.3795226727634263,11.0,112.0,0.0
G,D,"[6, 7]",0.0,2.0,0.3817441463470459,1.9463751316070557,0.5588407342619011,11.0,113.0,0.0
B,L,"[6, 6]",0.0,2.0,0.7153551578521729,2.1836791038513184,0.47607002400867365,11.0,114.0,0.0
Y,R,"[6, 7]",0.0,2.0,0.4720618724822998,1.837519884109497,0.38017914104096634,11.0,115.0,0.0
Y,R,"[6, 8]",1.0,3.0,0.3350691795349121,1.9337329864501953,0.5970740375924901,11.0,116.0,0.0
G,D,"[7, 8]",0.0,3.0,0.2986900806427002,1.8936588764190674,0.5906995997304958,11.0,117.0,0.0
R,U,"[6, 8]",0.0,3.0,0.2683119773864746,1.7716219425201416,0.5122820403106892,11.0,118.0,0.0
Y,R,"[6, 9]",1.0,4.0,0.3149759769439697,1.5991981029510498,0.2784467606610541,11.0,119.0,0.0
G,D,"[7, 9]",0.0,4.0,0.44368982315063477,2.092085838317871,0.6534371785167337,11.0,120.0,0.0
,,"(6, 6)",,,,,,,,
R,U,"[5, 6]",1.0,1.0,0.5771689414978027,4.530139923095703,0.7338998463364893,12.0,121.0,0.0
Y,R,"[5, 7]",1.0,2.0,0.35642194747924805,1.787755012512207,0.42148427479279865,12.0,122.0,0.0
Y,R,"[5, 8]",1.0,3.0,0.3495218753814697,2.08182692527771,0.7368026622611982,12.0,123.0,0.0
G,D,"[6, 8]",1.0,4.0,0.3461878299713135,1.752058982849121,0.40532858718687326,12.0,124.0,0.0
B,L,"[6, 7]",0.0,4.0,0.5385801792144775,2.0558230876922607,0.5276369398624261,12.0,125.0,0.0
Y,R,"[6, 8]",0.0,4.0,0.6035840511322021,2.060181140899658,0.4711672597548065,12.0,126.0,0.0
Y,R,"[6, 9]",1.0,5.0,0.27767086029052734,2.0188510417938232,0.7396375841001601,12.0,127.0,0.0
G,D,"[7, 9]",0.0,5.0,0.2991800308227539,1.8781468868255615,0.5850625787066379,12.0,128.0,0.0
Y,R,"[7, 10]",0.0,5.0,0.3449058532714844,2.0267858505249023,0.6780164811911549,12.0,129.0,0.0
R,U,"[6, 10]",1.0,6.0,0.2614879608154297,1.9034438133239746,0.648226078038084,12.0,130.0,0.0
,,"(6, 6)",,,,,,,,
R,U,"[5, 6]",1.0,1.0,0.4082930088043213,4.125661849975586,0.5237618612378532,13.0,131.0,0.0
Y,R,"[5, 7]",1.0,2.0,0.7449018955230713,2.124729871749878,0.3819429121926372,13.0,132.0,0.0
Y,R,"[5, 8]",1.0,3.0,0.2877011299133301,1.9104080200195312,0.6254823160424634,13.0,133.0,0.0
G,D,"[6, 8]",1.0,4.0,0.2774059772491455,1.9871399402618408,0.712836537865722,13.0,134.0,0.0
B,L,"[6, 7]",0.0,4.0,0.23245906829833984,1.5007188320159912,0.26367411561678694,13.0,135.0,0.0
Y,R,"[6, 8]",0.0,4.0,0.5463969707489014,2.2570509910583496,0.7034889646951153,13.0,136.0,0.0
Y,R,"[6, 9]",-2.0,4.0,1.005415916442871,2.555853843688965,0.5760732151591744,13.0,137.0,0.0
Y,R,"[6, 10]",1.0,5.0,0.26660585403442383,1.5184168815612793,0.26158557340009153,13.0,138.0,0.0
G,D,"[7, 10]",0.0,5.0,0.5699429512023926,1.9472508430480957,0.39197765030538256,13.0,139.0,0.0
Y,R,"[7, 11]",0.0,5.0,0.4366438388824463,2.106337070465088,0.6812684955209617,13.0,140.0,0.0
,,"(6, 6)",,,,,,,,
R,U,"[5, 6]",1.0,1.0,0.43024611473083496,5.785303115844727,0.4334998293109753,14.0,141.0,0.0
Y,R,"[5, 7]",1.0,2.0,0.22467398643493652,1.7307078838348389,0.4975731051090452,14.0,142.0,0.0
Y,R,"[5, 8]",1.0,3.0,0.16521191596984863,1.4560139179229736,0.2868255882260724,14.0,143.0,0.0
G,D,"[6, 8]",1.0,4.0,0.5282669067382812,2.0353658199310303,0.5052788298716857,14.0,144.0,0.0
R,U,"[5, 8]",0.0,4.0,0.34502601623535156,2.080753803253174,0.7358543955455497,14.0,145.0,0.0
B,L,"[5, 7]",0.0,4.0,0.35759902000427246,1.6261539459228516,0.2791347327823665,14.0,146.0,0.0
Y,R,"[5, 8]",0.0,4.0,0.843390941619873,2.379863977432251,0.5254440709617748,14.0,147.0,0.0
G,D,"[6, 8]",0.0,4.0,0.3725700378417969,2.016144037246704,0.6580092233800395,14.0,148.0,0.0
Y,R,"[6, 9]",1.0,5.0,0.28382301330566406,1.6121339797973633,0.33711379892267157,14.0,149.0,0.0
R,U,"[5, 9]",0.0,5.0,0.3452119827270508,2.020915985107422,0.6744184425254423,14.0,150.0,0.0
,,"(6, 6)",,,,,,,,
R,U,"[5, 6]",1.0,1.0,0.5704050064086914,3.571798801422119,0.6294862718625032,15.0,151.0,0.0
Y,R,"[5, 7]",1.0,2.0,0.24439096450805664,1.9948358535766602,0.7408738085987605,15.0,152.0,0.0
Y,R,"[5, 8]",1.0,3.0,0.5328199863433838,1.920097827911377,0.39456286681145386,15.0,153.0,0.0
G,D,"[6, 8]",1.0,4.0,0.3441488742828369,1.833287000656128,0.494440872200709,15.0,154.0,0.0
B,L,"[6, 7]",0.0,4.0,0.7008061408996582,2.1098170280456543,0.42097847110502773,15.0,155.0,0.0
Y,R,"[6, 8]",0.0,4.0,0.5811100006103516,2.139003038406372,0.5597666565222401,15.0,156.0,0.0
Y,R,"[6, 9]",1.0,5.0,0.2617671489715576,1.7664849758148193,0.5096401100092017,15.0,157.0,0.0
G,D,"[7, 9]",0.0,5.0,0.2700839042663574,1.860386848449707,0.6032235346221991,15.0,158.0,0.0
Y,R,"[7, 10]",0.0,5.0,0.2344510555267334,1.5684590339660645,0.33858988477522306,15.0,159.0,0.0
R,U,"[6, 10]",1.0,6.0,0.3058960437774658,1.9002079963684082,0.5884494697672369,15.0,160.0,0.0
,,"(6, 6)",,,,,,,,
R,U,"[5, 6]",1.0,1.0,0.3310699462890625,3.3848540782928467,0.5732906166672107,16.0,161.0,0.0
Y,R,"[5, 7]",1.0,2.0,0.2554759979248047,1.87717604637146,0.6171561895634319,16.0,162.0,0.0
Y,R,"[5, 8]",1.0,3.0,0.3160538673400879,1.6111230850219727,0.29513024860745146,16.0,163.0,0.0
G,D,"[6, 8]",1.0,4.0,0.4570009708404541,2.0158019065856934,0.5773227130920594,16.0,164.0,0.0
R,U,"[5, 8]",0.0,4.0,0.24035286903381348,1.775019884109497,0.5357817478524982,16.0,165.0,0.0
Y,R,"[5, 9]",0.0,4.0,0.24619317054748535,1.782818078994751,0.5351957607888875,16.0,166.0,0.0
Y,R,"[5, 10]",1.0,5.0,0.7226707935333252,2.2049720287323,0.4901927243911408,16.0,167.0,0.0
R,U,"[4, 10]",1.0,6.0,0.43776702880859375,1.7720298767089844,0.34566631397436187,16.0,168.0,0.0
G,D,"[5, 10]",0.0,6.0,0.47748494148254395,1.9800679683685303,0.4922458645606475,16.0,169.0,0.0
R,U,"[4, 10]",0.0,6.0,0.33757901191711426,1.938892126083374,0.6143339962373418,16.0,170.0,0.0
,,"(6, 6)",,,,,,,,
R,U,"[5, 6]",1.0,1.0,0.47196197509765625,3.4358060359954834,0.6671018690503859,17.0,171.0,0.0
Y,R,"[5, 7]",1.0,2.0,0.27947115898132324,1.5366430282592773,0.2537453377766152,17.0,172.0,0.0
Y,R,"[5, 8]",1.0,3.0,0.4498908519744873,1.9783790111541748,0.5316555884514085,17.0,173.0,0.0
G,D,"[6, 8]",1.0,4.0,0.3804929256439209,2.0457510948181152,0.6606907951648431,17.0,174.0,0.0
Y,R,"[6, 9]",1.0,5.0,0.2861959934234619,1.5643608570098877,0.2920825828310727,17.0,175.0,0.0
R,U,"[5, 9]",0.0,5.0,0.5205399990081787,2.07611083984375,0.5678008433536805,17.0,176.0,0.0
G,D,"[6, 9]",0.0,5.0,0.32820701599121094,1.6991829872131348,0.3673451866276826,17.0,177.0,0.0
Y,R,"[6, 10]",1.0,6.0,0.5161900520324707,2.2448031902313232,0.7284690498598128,17.0,178.0,0.0
Y,R,"[6, 11]",0.0,6.0,0.28014516830444336,2.0072779655456543,0.7191280702431326,17.0,179.0,0.0
R,U,"[5, 11]",0.0,6.0,0.33411288261413574,1.780951976776123,0.4504347948451526,17.0,180.0,0.0
,,"(6, 6)",,,,,,,,
R,U,"[5, 6]",1.0,1.0,0.561262845993042,3.6827781200408936,0.5165238756230897,18.0,181.0,0.0
Y,R,"[5, 7]",1.0,2.0,0.2653968334197998,1.5216290950775146,0.25520480134281465,18.0,182.0,0.0
Y,R,"[5, 8]",1.0,3.0,0.5157678127288818,1.9194560050964355,0.4078490481951175,18.0,183.0,0.0
G,D,"[6, 8]",1.0,4.0,0.5150330066680908,1.8595821857452393,0.35076362459061794,18.0,184.0,0.0
Y,R,"[6, 9]",1.0,5.0,0.4954559803009033,1.7828290462493896,0.2837505680947009,18.0,185.0,0.0
Y,R,"[6, 10]",1.0,6.0,0.6429929733276367,2.2634639739990234,0.6135990846312396,18.0,186.0,0.0
G,D,"[7, 10]",0.0,6.0,0.38028478622436523,1.6767561435699463,0.29077359584113666,18.0,187.0,0.0
Y,R,"[7, 11]",0.0,6.0,0.5396499633789062,2.175173044204712,0.6321513641837437,18.0,188.0,0.0
Y,R,"[7, 10]",-3.0,6.0,0.835252046585083,2.1530520915985107,0.3189998723533826,18.0,189.0,0.0
R,U,"[6, 10]",0.0,6.0,0.6112818717956543,1.8887231349945068,0.27442891615028553,18.0,190.0,0.0
,,"(6, 6)",,,,,,,,
R,U,"[5, 6]",1.0,1.0,0.49566102027893066,3.643087148666382,0.46742663052208566,19.0,191.0,0.0
Y,R,"[5, 7]",1.0,2.0,0.2771031856536865,1.6543550491333008,0.37184432576380566,19.0,192.0,0.0
Y,R,"[5, 8]",1.0,3.0,0.3229379653930664,1.9525530338287354,0.6241584016762325,19.0,193.0,0.0
G,D,"[6, 8]",1.0,4.0,0.29294490814208984,1.7357351779937744,0.4434760546100011,19.0,194.0,0.0
Y,R,"[6, 9]",1.0,5.0,0.32555413246154785,1.9503130912780762,0.6270181926103934,19.0,195.0,0.0
Y,R,"[6, 10]",1.0,6.0,0.2785987854003906,1.6356091499328613,0.36294604377014367,19.0,196.0,0.0
B,L,"[6, 9]",0.0,6.0,0.35058093070983887,1.7833340167999268,0.4295222432573897,19.0,197.0,0.0
Y,R,"[6, 10]",0.0,6.0,0.3284270763397217,1.7134010791778564,0.3762690254536971,19.0,198.0,0.0
R,U,"[5, 10]",1.0,7.0,0.25551605224609375,1.7041971683502197,0.4471376598483764,19.0,199.0,0.0
R,U,"[4, 10]",1.0,8.0,0.23053288459777832,1.5009050369262695,0.26487225592402197,19.0,200.0,0.0
,,"(6, 6)",,,,,,,,
Y,R,"[6, 7]",-2.0,0.0,1.0090079307556152,4.186156988143921,0.5675259601216709,20.0,201.0,0.0
R,U,"[5, 7]",1.0,1.0,0.2361009120941162,1.9628450870513916,0.7302266062797382,20.0,202.0,0.0
Y,R,"[5, 8]",1.0,2.0,0.3064420223236084,1.6355290412902832,0.31627344528808626,20.0,203.0,0.0
Y,R,"[5, 9]",0.0,2.0,0.4570910930633545,1.840602159500122,0.37346846686655033,20.0,204.0,0.0
B,L,"[5, 8]",-2.0,2.0,1.061784029006958,2.5904359817504883,0.5637820959337201,20.0,205.0,0.0
B,L,"[5, 7]",0.0,2.0,0.18890810012817383,1.744225025177002,0.5413919783470902,20.0,206.0,0.0
R,U,"[4, 7]",0.0,2.0,0.3054161071777344,1.6024072170257568,0.3106848867652858,20.0,207.0,0.0
Y,R,"[4, 8]",0.0,2.0,0.31435179710388184,1.7950000762939453,0.48887685901487143,20.0,208.0,0.0
Y,R,"[4, 9]",1.0,3.0,0.19036316871643066,1.7822270393371582,0.5876899831355604,20.0,209.0,0.0
Y,R,"[4, 10]",1.0,4.0,0.2858860492706299,1.9849209785461426,0.7058665169815492,20.0,210.0,0.0
,,"(6, 6)",,,,,,,,
R,U,"[5, 6]",1.0,1.0,0.4837799072265625,4.462746858596802,0.38563236518045313,21.0,211.0,0.0
Y,R,"[5, 7]",1.0,2.0,0.36708498001098633,1.8257458209991455,0.46133588774184653,21.0,212.0,0.0
Y,R,"[5, 8]",1.0,3.0,0.30037903785705566,1.816404104232788,0.5277243607268748,21.0,213.0,0.0
G,D,"[6, 8]",1.0,4.0,0.35587096214294434,1.67702317237854,0.3214899969443297,21.0,214.0,0.0
Y,R,"[6, 9]",1.0,5.0,0.2656590938568115,1.7566871643066406,0.49465094080316346,21.0,215.0,0.0
Y,R,"[6, 10]",1.0,6.0,0.21028494834899902,1.7589318752288818,0.5536477866824325,21.0,216.0,0.0
B,L,"[6, 9]",0.0,6.0,0.31659698486328125,1.9863879680633545,0.6732024436496762,21.0,217.0,0.0
Y,R,"[6, 10]",0.0,6.0,0.2854940891265869,1.6278531551361084,0.35138142027275515,21.0,218.0,0.0
R,U,"[5, 10]",1.0,7.0,0.5229158401489258,1.7882819175720215,0.25653059356591307,21.0,219.0,0.0
R,U,"[4, 10]",1.0,8.0,0.5025508403778076,2.1326799392700195,0.6388760258651782,21.0,220.0,0.0
,,"(6, 6)",,,,,,,,
R,U,"[5, 6]",1.0,1.0,0.6734158992767334,3.784862995147705,0.39066630566285593,22.0,221.0,0.0
Y,R,"[5, 7]",1.0,2.0,0.309128999710083,2.0421180725097656,0.7324749719019887,22.0,222.0,0.0
Y,R,"[5, 8]",1.0,3.0,0.6020262241363525,2.2746198177337646,0.673843432594657,22.0,223.0,0.0
G,D,"[6, 8]",1.0,4.0,0.24112391471862793,1.7333340644836426,0.49058317103315374,22.0,224.0,0.0
Y,R,"[6, 9]",1.0,5.0,0.25484490394592285,1.9123539924621582,0.6528031567845891,22.0,225.0,0.0
Y,R,"[6, 10]",1.0,6.0,0.2292158603668213,1.8523030281066895,0.6218766497693071,22.0,226.0,0.0
R,U,"[5, 10]",1.0,7.0,0.28809499740600586,1.7265970706939697,0.4486870134723449,22.0,227.0,0.0
Y,R,"[5, 11]",0.0,7.0,0.3409309387207031,2.0194480419158936,0.6678296300632461,22.0,228.0,0.0
R,U,"[4, 11]",0.0,7.0,0.21907806396484375,1.5137059688568115,0.2985305797764449,22.0,229.0,0.0
R,U,"[3, 11]",0.0,7.0,0.36440396308898926,1.9914438724517822,0.6230678510715031,22.0,230.0,0.0
,,"(6, 6)",,,,,,,,
R,U,"[5, 6]",1.0,1.0,0.6457321643829346,3.398169994354248,0.32165057197523605,23.0,231.0,0.0
Y,R,"[5, 7]",1.0,2.0,0.2610619068145752,1.647278070449829,0.3855667736471725,23.0,232.0,0.0
Y,R,"[5, 8]",1.0,3.0,0.8400058746337891,2.193549871444702,0.36239007123565187,23.0,233.0,0.0
G,D,"[6, 8]",1.0,4.0,0.48122501373291016,1.8665359020233154,0.37900103194790064,23.0,234.0,0.0
Y,R,"[6, 9]",1.0,5.0,0.22564411163330078,1.555129051208496,0.31740150401474565,23.0,235.0,0.0
Y,R,"[6, 10]",1.0,6.0,0.2583119869232178,2.0042099952697754,0.7379460238773284,23.0,236.0,0.0
R,U,"[5, 10]",1.0,7.0,0.2262718677520752,1.497873067855835,0.2696177556370945,23.0,237.0,0.0
Y,R,"[5, 11]",0.0,7.0,0.46161413192749023,2.138427972793579,0.6743306799776627,23.0,238.0,0.0
R,U,"[4, 11]",0.0,7.0,0.2009410858154297,1.8487310409545898,0.6564652792451093,23.0,239.0,0.0
R,U,"[3, 11]",0.0,7.0,0.1979811191558838,1.6805779933929443,0.4872229217352069,23.0,240.0,0.0
,,"(6, 6)",,,,,,,,
R,U,"[5, 6]",1.0,1.0,0.40284085273742676,3.3079888820648193,0.528344016965952,24.0,241.0,0.0
Y,R,"[5, 7]",1.0,2.0,0.23325204849243164,1.49513578414917,0.273895668145931,24.0,242.0,0.0
Y,R,"[5, 8]",1.0,3.0,0.565587043762207,1.9064528942108154,0.3468263090321121,24.0,243.0,0.0
G,D,"[6, 8]",1.0,4.0,0.26628708839416504,1.5278398990631104,0.2581214378329787,24.0,244.0,0.0
Y,R,"[6, 9]",1.0,5.0,0.30420684814453125,1.878925085067749,0.5867742450063509,24.0,245.0,0.0
Y,R,"[6, 10]",1.0,6.0,0.28696608543395996,1.6840858459472656,0.404388886910839,24.0,246.0,0.0
R,U,"[5, 10]",1.0,7.0,0.4045090675354004,1.9221839904785156,0.5264929054353276,24.0,247.0,0.0
B,L,"[5, 9]",0.0,7.0,0.35585594177246094,2.0538737773895264,0.6968561121314745,24.0,248.0,0.0
G,D,"[6, 9]",0.0,7.0,0.45111608505249023,1.7389459609985352,0.2861974934024852,24.0,249.0,0.0
R,U,"[5, 9]",0.0,7.0,0.37679386138916016,1.7972908020019531,0.416692047293649,24.0,250.0,0.0
,,"(6, 6)",,,,,,,,
R,U,"[5, 6]",1.0,1.0,0.45372891426086426,3.195288896560669,0.5784172431577612,25.0,251.0,0.0
Y,R,"[5, 7]",1.0,2.0,0.26700687408447266,1.5267698764801025,0.27222238718627334,25.0,252.0,0.0
Y,R,"[5, 8]",1.0,3.0,0.30109691619873047,1.6488170623779297,0.3543523058665157,25.0,253.0,0.0
G,D,"[6, 8]",1.0,4.0,0.2343289852142334,1.684891939163208,0.45573553001390316,25.0,254.0,0.0
Y,R,"[6, 9]",1.0,5.0,0.6267530918121338,2.0903148651123047,0.4627756189140276,25.0,255.0,0.0
Y,R,"[6, 10]",1.0,6.0,0.24271392822265625,1.8538320064544678,0.5997689780598725,25.0,256.0,0.0
R,U,"[5, 10]",1.0,7.0,0.2981269359588623,1.6888539791107178,0.3887954458197259,25.0,257.0,0.0
B,L,"[5, 9]",0.0,7.0,0.34035801887512207,1.6326618194580078,0.2882127330764235,25.0,258.0,0.0
Y,R,"[5, 10]",0.0,7.0,0.43514013290405273,1.702625036239624,0.27425344702205445,25.0,259.0,0.0
G,D,"[6, 10]",0.0,7.0,0.36105990409851074,2.109260082244873,0.7496206229961158,25.0,260.0,0.0
,,"(6, 6)",,,,,,,,
R,U,"[5, 6]",1.0,1.0,0.344851016998291,3.0962491035461426,0.4296638394732246,26.0,261.0,0.0
Y,R,"[5, 7]",1.0,2.0,0.27536511421203613,1.7791919708251953,0.49206412867862004,26.0,262.0,0.0
Y,R,"[5, 8]",1.0,3.0,0.19655895233154297,1.4937388896942139,0.302667062863502,26.0,263.0,0.0
G,D,"[6, 8]",1.0,4.0,0.28064584732055664,1.7504680156707764,0.4695593830240325,26.0,264.0,0.0
Y,R,"[6, 9]",1.0,5.0,0.33966708183288574,2.027631998062134,0.6802764024135368,26.0,265.0,0.0
R,U,"[5, 9]",0.0,5.0,0.3353140354156494,1.7845370769500732,0.44836494248180453,26.0,266.0,0.0
G,D,"[6, 9]",-2.0,5.0,1.6060161590576172,3.0337889194488525,0.4655517023706535,26.0,267.0,0.0
R,U,"[5, 9]",0.0,5.0,0.650580883026123,1.9228720664978027,0.27204857213299577,26.0,268.0,0.0
Y,R,"[5, 10]",1.0,6.0,0.30390310287475586,1.8324780464172363,0.5375242498821514,26.0,269.0,0.0
G,D,"[6, 10]",1.0,7.0,0.14850687980651855,1.4265458583831787,0.2809340428312527,26.0,270.0,0.0
,,"(6, 6)",,,,,,,,
R,U,"[5, 6]",1.0,1.0,0.663776159286499,3.864311933517456,0.3452749924081001,27.0,271.0,0.0
Y,R,"[5, 7]",1.0,2.0,0.255871057510376,1.9407501220703125,0.6856243741399645,27.0,272.0,0.0
Y,R,"[5, 8]",1.0,3.0,0.18916916847229004,1.7728312015533447,0.5918703528630382,27.0,273.0,0.0
G,D,"[6, 8]",1.0,4.0,0.2026979923248291,1.8678200244903564,0.6764405215225525,27.0,274.0,0.0
Y,R,"[6, 9]",1.0,5.0,0.33098602294921875,1.9035451412200928,0.5799700131141441,27.0,275.0,0.0
Y,R,"[6, 10]",1.0,6.0,0.34414005279541016,1.9682180881500244,0.6147703580454058,27.0,276.0,0.0
R,U,"[5, 10]",1.0,7.0,0.3384428024291992,1.9277470111846924,0.5925415474498901,27.0,277.0,0.0
G,D,"[6, 10]",0.0,7.0,0.5627779960632324,2.1608498096466064,0.6034161033606792,27.0,278.0,0.0
Y,R,"[6, 11]",0.0,7.0,0.29404497146606445,1.9560248851776123,0.6592941519095734,27.0,279.0,0.0
G,D,"[7, 11]",0.0,7.0,0.5841028690338135,2.152724027633667,0.578712946099389,27.0,280.0,0.0
,,"(6, 6)",,,,,,,,
R,U,"[5, 6]",1.0,1.0,0.5386030673980713,3.14798903465271,0.676683682022711,28.0,281.0,0.0
Y,R,"[5, 7]",1.0,2.0,0.2990150451660156,1.7260911464691162,0.43640101290736044,28.0,282.0,0.0
Y,R,"[5, 8]",1.0,3.0,0.24068689346313477,1.6901049613952637,0.44313703419074657,28.0,283.0,0.0
G,D,"[6, 8]",1.0,4.0,0.31432604789733887,1.9610509872436523,0.6539246783138354,28.0,284.0,0.0
Y,R,"[6, 9]",1.0,5.0,0.1706850528717041,1.8063089847564697,0.6435207189819954,28.0,285.0,0.0
Y,R,"[6, 10]",1.0,6.0,0.1715869903564453,1.6104838848114014,0.4542392388270134,28.0,286.0,0.0
R,U,"[5, 10]",1.0,7.0,0.3600349426269531,2.0552220344543457,0.6924734343370458,28.0,287.0,0.0
R,U,"[4, 10]",1.0,8.0,0.38894200325012207,1.8701791763305664,0.47962899321505226,28.0,288.0,0.0
Y,R,"[4, 11]",0.0,8.0,0.23197698593139648,1.8964409828186035,0.6591567334544182,28.0,289.0,0.0
G,D,"[5, 11]",0.0,8.0,0.19429302215576172,1.792384147644043,0.6016981468058967,28.0,290.0,0.0
,,"(6, 6)",,,,,,,,
R,U,"[5, 6]",1.0,1.0,0.3005790710449219,2.918361186981201,0.7200479300951845,29.0,291.0,0.0
Y,R,"[5, 7]",1.0,2.0,0.2255420684814453,1.8148410320281982,0.5848625155810809,29.0,292.0,0.0
Y,R,"[5, 8]",1.0,3.0,0.2888967990875244,1.9763171672821045,0.694723581586211,29.0,293.0,0.0
G,D,"[6, 8]",1.0,4.0,0.2673170566558838,1.922926902770996,0.667357734530664,29.0,294.0,0.0
Y,R,"[6, 9]",1.0,5.0,0.23590087890625,1.5279319286346436,0.2956602678285907,29.0,295.0,0.0
Y,R,"[6, 10]",1.0,6.0,0.35398387908935547,1.9795808792114258,0.6250688189754134,29.0,296.0,0.0
R,U,"[5, 10]",1.0,7.0,0.45091915130615234,1.93160080909729,0.48985706502252885,29.0,297.0,0.0
R,U,"[4, 10]",1.0,8.0,0.26645994186401367,1.5173208713531494,0.25741008802626764,29.0,298.0,0.0
G,D,"[5, 10]",0.0,8.0,0.6699800491333008,2.1749510765075684,0.5155350853412822,29.0,299.0,0.0
Y,R,"[5, 11]",0.0,8.0,0.21500802040100098,1.4927871227264404,0.27525694446080556,29.0,300.0,0.0
,,"(6, 6)",,,,,,,,
R,U,"[5, 6]",1.0,1.0,0.36906909942626953,3.2328500747680664,0.6743286906656755,30.0,301.0,0.0
Y,R,"[5, 7]",1.0,2.0,0.2688100337982178,1.8265180587768555,0.5675175526810641,30.0,302.0,0.0
Y,R,"[5, 8]",1.0,3.0,0.2964961528778076,1.9201011657714844,0.6211307690263252,30.0,303.0,0.0
G,D,"[6, 8]",1.0,4.0,0.24369096755981445,1.6844799518585205,0.4388895040785043,30.0,304.0,0.0
Y,R,"[6, 9]",1.0,5.0,0.2763979434967041,1.7505278587341309,0.4728176767769441,30.0,305.0,0.0
Y,R,"[6, 10]",1.0,6.0,0.48041605949401855,2.128061056137085,0.6510045396139688,30.0,306.0,0.0
R,U,"[5, 10]",1.0,7.0,0.36011505126953125,1.9339709281921387,0.568073626320857,30.0,307.0,0.0
R,U,"[4, 10]",1.0,8.0,0.30168914794921875,1.6524009704589844,0.3540103212194467,30.0,308.0,0.0
Y,R,"[4, 11]",0.0,8.0,0.6617300510406494,1.9586849212646484,0.2960556552023282,30.0,309.0,0.0
G,D,"[5, 11]",0.0,8.0,0.5134398937225342,1.9700560569763184,0.44934466391218075,30.0,310.0,0.0
,,"(6, 6)",,,,,,,,
R,U,"[5, 6]",1.0,1.0,0.3091709613800049,2.9139649868011475,0.6296778708671735,31.0,311.0,0.0
Y,R,"[5, 7]",1.0,2.0,0.28155994415283203,1.9331369400024414,0.646187167057741,31.0,312.0,0.0
Y,R,"[5, 8]",1.0,3.0,0.23533201217651367,1.5315909385681152,0.2947986068438017,31.0,313.0,0.0
G,D,"[6, 8]",1.0,4.0,0.6486711502075195,2.250716209411621,0.611802530813774,31.0,314.0,0.0
Y,R,"[6, 9]",1.0,5.0,0.2652411460876465,1.880223035812378,0.6252597048603983,31.0,315.0,0.0
Y,R,"[6, 10]",1.0,6.0,0.22624516487121582,1.794612169265747,0.5700054665635281,31.0,316.0,0.0
R,U,"[5, 10]",1.0,7.0,0.18421316146850586,1.7152059078216553,0.5351520214675922,31.0,317.0,0.0
R,U,"[4, 10]",1.0,8.0,0.27553677558898926,1.8216009140014648,0.540051799809427,31.0,318.0,0.0
B,L,"[4, 9]",1.0,9.0,0.27116990089416504,1.6039328575134277,0.3441887188675257,31.0,319.0,0.0
Y,R,"[4, 10]",0.0,9.0,0.3268561363220215,1.9581689834594727,0.6354891242299483,31.0,320.0,0.0
,,"(6, 6)",,,,,,,,
R,U,"[5, 6]",1.0,1.0,0.575383186340332,2.948716163635254,0.3510377492262259,32.0,321.0,0.0
Y,R,"[5, 7]",1.0,2.0,0.24720001220703125,1.5200998783111572,0.27129499286154596,32.0,322.0,0.0
Y,R,"[5, 8]",1.0,3.0,0.24538612365722656,1.850728988647461,0.6049061026005784,32.0,323.0,0.0
G,D,"[6, 8]",1.0,4.0,0.32301998138427734,1.7937829494476318,0.46559286814234224,32.0,324.0,0.0
Y,R,"[6, 9]",1.0,5.0,0.3999807834625244,1.8706481456756592,0.4694407829996806,32.0,325.0,0.0
Y,R,"[6, 10]",1.0,6.0,0.32080507278442383,2.033874988555908,0.7198534394536487,32.0,326.0,0.0
R,U,"[5, 10]",1.0,7.0,0.34448814392089844,1.9836440086364746,0.6368817125010331,32.0,327.0,0.0
R,U,"[4, 10]",1.0,8.0,0.3041088581085205,1.9849088191986084,0.6882739104554269,32.0,328.0,0.0
B,L,"[4, 9]",1.0,9.0,0.3017089366912842,1.5704710483551025,0.27596158797734494,32.0,329.0,0.0
Y,R,"[4, 10]",0.0,9.0,0.3410928249359131,1.6922171115875244,0.35137428215281236,32.0,330.0,0.0
,,"(6, 6)",,,,,,,,
Y,R,"[6, 7]",0.0,0.0,0.858410120010376,3.417976140975952,0.3359876546736996,33.0,331.0,0.0
Y,R,"[6, 8]",1.0,1.0,0.5844669342041016,2.0445680618286133,0.46373104294830503,33.0,332.0,0.0
Y,R,"[6, 9]",1.0,2.0,0.5904309749603271,1.8792071342468262,0.2765008706615409,33.0,333.0,0.0
G,D,"[7, 9]",0.0,2.0,0.5047321319580078,2.052717924118042,0.5455188798637088,33.0,334.0,0.0
Y,R,"[7, 10]",0.0,2.0,0.24408698081970215,1.885148048400879,0.6307491100527856,33.0,335.0,0.0
Y,R,"[7, 11]",0.0,2.0,0.16363120079040527,1.5718860626220703,0.4028400022099268,33.0,336.0,0.0
R,U,"[6, 11]",0.0,2.0,0.3651750087738037,2.081063985824585,0.7168969754518442,33.0,337.0,0.0
R,U,"[5, 11]",0.0,2.0,0.15081214904785156,1.5983150005340576,0.4487637199047994,33.0,338.0,0.0
B,L,"[5, 10]",1.0,3.0,0.3686230182647705,1.9659600257873535,0.5977737084006637,33.0,339.0,0.0
Y,R,"[5, 11]",0.0,3.0,0.5899660587310791,1.8663959503173828,0.28125488089718825,33.0,340.0,0.0
,,"(6, 6)",,,,,,,,
R,U,"[5, 6]",1.0,1.0,0.3194100856781006,3.2938520908355713,0.5414893522150178,34.0,341.0,0.0
Y,R,"[5, 7]",1.0,2.0,0.26294779777526855,1.8582608699798584,0.5997572051030968,34.0,342.0,0.0
Y,R,"[5, 8]",1.0,3.0,0.23023605346679688,1.5812549591064453,0.34780562566469003,34.0,343.0,0.0
R,U,"[4, 8]",0.0,3.0,0.4684309959411621,1.7806408405303955,0.3118575519347865,34.0,344.0,0.0
Y,R,"[4, 9]",1.0,4.0,0.4373600482940674,1.7959129810333252,0.3743576863478995,34.0,345.0,0.0
Y,R,"[4, 10]",1.0,5.0,0.2462308406829834,1.747878074645996,0.5054105027337326,34.0,346.0,0.0
R,U,"[3, 10]",0.0,5.0,0.31217288970947266,2.0289511680603027,0.7175086315197511,34.0,347.0,0.0
R,U,"[2, 10]",0.0,5.0,0.20281481742858887,1.7169370651245117,0.5179722171630168,34.0,348.0,0.0
B,L,"[2, 9]",0.0,5.0,0.28215694427490234,1.889941930770874,0.6078183630143296,34.0,349.0,0.0
G,D,"[3, 9]",1.0,6.0,0.19002795219421387,1.8532121181488037,0.6608313631525737,34.0,350.0,0.0
,,"(6, 6)",,,,,,,,
R,U,"[5, 6]",1.0,1.0,0.35373997688293457,2.754995107650757,0.5326001475129483,35.0,351.0,0.0
Y,R,"[5, 7]",1.0,2.0,0.26436781883239746,1.7677679061889648,0.5003863155104682,35.0,352.0,0.0
Y,R,"[5, 8]",1.0,3.0,0.18939805030822754,1.70188307762146,0.5022748741711027,35.0,353.0,0.0
G,D,"[6, 8]",1.0,4.0,0.42838096618652344,1.860703945159912,0.42981728555527593,35.0,354.0,0.0
Y,R,"[6, 9]",1.0,5.0,0.27274394035339355,1.8152008056640625,0.5281223063582237,35.0,355.0,0.0
Y,R,"[6, 10]",1.0,6.0,0.22174692153930664,1.615886926651001,0.39425075953504063,35.0,356.0,0.0
R,U,"[5, 10]",1.0,7.0,0.3000450134277344,1.5879871845245361,0.29902293032424704,35.0,357.0,0.0
R,U,"[4, 10]",1.0,8.0,0.42302680015563965,1.7511100769042969,0.31671999560107267,35.0,358.0,0.0
B,L,"[4, 9]",1.0,9.0,0.2980191707611084,1.9380450248718262,0.6378013875653339,35.0,359.0,0.0
G,D,"[5, 9]",0.0,9.0,0.3524761199951172,1.7089288234710693,0.3635372812759376,35.0,360.0,0.0
,,"(6, 6)",,,,,,,,
R,U,"[5, 6]",1.0,1.0,0.47908520698547363,3.2850708961486816,0.31538667288066036,36.0,361.0,0.0
Y,R,"[5, 7]",1.0,2.0,0.30959200859069824,2.030634880065918,0.7121881860478803,36.0,362.0,0.0
Y,R,"[5, 8]",-1.0,2.0,0.06223487854003906,5.587591886520386,0.4501014604845817,36.0,363.0,0.0
Y,R,"[5, 9]",0.0,2.0,0.3559379577636719,2.0142569541931152,0.6475243832694271,36.0,364.0,0.0
G,D,"[6, 9]",1.0,3.0,0.28128504753112793,1.9495179653167725,0.6638142675699588,36.0,365.0,0.0
Y,R,"[6, 10]",1.0,4.0,0.23357915878295898,1.9658970832824707,0.729502252150798,36.0,366.0,0.0
Y,R,"[6, 11]",0.0,4.0,0.3674740791320801,1.749061107635498,0.37884569243277316,36.0,367.0,0.0
R,U,"[5, 11]",0.0,4.0,0.31261301040649414,1.588015079498291,0.26691303564050595,36.0,368.0,0.0
R,U,"[4, 11]",0.0,4.0,0.3632171154022217,1.9496409893035889,0.5829502907468207,36.0,369.0,0.0
B,L,"[4, 10]",1.0,5.0,0.2712709903717041,1.6340198516845703,0.3671767623898948,36.0,370.0,0.0
,,"(6, 6)",,,,,,,,
R,U,"[5, 6]",1.0,1.0,0.568789005279541,3.9549100399017334,0.5219073136618684,37.0,371.0,0.0
Y,R,"[5, 7]",1.0,2.0,0.26076602935791016,1.6820218563079834,0.4206578535729021,37.0,372.0,0.0
Y,R,"[5, 8]",1.0,3.0,0.3546290397644043,1.8968820571899414,0.5507179414092022,37.0,373.0,0.0
G,D,"[6, 8]",1.0,4.0,0.2554049491882324,1.8796300888061523,0.6135785317618311,37.0,374.0,0.0
Y,R,"[6, 9]",1.0,5.0,0.1700420379638672,1.7696211338043213,0.6001117894166347,37.0,375.0,0.0
Y,R,"[6, 10]",1.0,6.0,0.2744481563568115,1.9590539932250977,0.6755218592730554,37.0,376.0,0.0
R,U,"[5, 10]",1.0,7.0,0.19272708892822266,1.832885980606079,0.6416648848650087,37.0,377.0,0.0
R,U,"[4, 10]",1.0,8.0,0.2330799102783203,1.9228620529174805,0.6979479287372069,37.0,378.0,0.0
G,D,"[5, 10]",0.0,8.0,0.8057849407196045,2.3420779705047607,0.5233818295364137,37.0,379.0,0.0
B,L,"[5, 9]",0.0,8.0,0.2055962085723877,1.615199089050293,0.42207514872780544,37.0,380.0,0.0
,,"(6, 6)",,,,,,,,
R,U,"[5, 6]",1.0,1.0,0.3087329864501953,3.0759458541870117,0.38130257283853336,38.0,381.0,0.0
Y,R,"[5, 7]",1.0,2.0,0.3632841110229492,1.7853949069976807,0.4167424847960367,38.0,382.0,0.0
Y,R,"[5, 8]",1.0,3.0,0.3010129928588867,1.5931308269500732,0.2932969528037291,38.0,383.0,0.0
G,D,"[6, 8]",1.0,4.0,0.4246330261230469,2.134842872619629,0.7109761009202704,38.0,384.0,0.0
R,U,"[5, 8]",0.0,4.0,0.6583220958709717,2.282417058944702,0.6267988521291332,38.0,385.0,0.0
Y,R,"[5, 9]",0.0,4.0,0.2049851417541504,1.614983081817627,0.4253580316984337,38.0,386.0,0.0
R,U,"[4, 9]",1.0,5.0,0.2088301181793213,1.8298609256744385,0.6216199295865342,38.0,387.0,0.0
R,U,"[3, 9]",1.0,6.0,0.21300101280212402,1.8655600547790527,0.6540207545457783,38.0,388.0,0.0
B,L,"[3, 8]",0.0,6.0,0.26521801948547363,1.748378038406372,0.4860489844213847,38.0,389.0,0.0
G,D,"[4, 8]",0.0,6.0,0.18442893028259277,1.6068651676177979,0.42594216412325003,38.0,390.0,0.0
,,"(6, 6)",,,,,,,,
R,U,"[5, 6]",1.0,1.0,0.30593204498291016,2.656080961227417,0.7484099163389368,39.0,391.0,0.0
Y,R,"[5, 7]",1.0,2.0,0.2916269302368164,1.7195019721984863,0.4180700196139124,39.0,392.0,0.0
Y,R,"[5, 8]",1.0,3.0,0.3898611068725586,1.933135986328125,0.5511393583379478,39.0,393.0,0.0
G,D,"[6, 8]",1.0,4.0,0.28054189682006836,1.7029688358306885,0.4210016211472584,39.0,394.0,0.0
Y,R,"[6, 9]",1.0,5.0,0.410491943359375,2.101024866104126,0.688401434476643,39.0,395.0,0.0
Y,R,"[6, 10]",1.0,6.0,0.2324979305267334,1.7425758838653564,0.5143409848336941,39.0,396.0,0.0
R,U,"[5, 10]",1.0,7.0,0.42851996421813965,1.7824480533599854,0.3470226717663909,39.0,397.0,0.0
R,U,"[4, 10]",1.0,8.0,0.3951709270477295,1.8783929347991943,0.4752620322106785,39.0,398.0,0.0
B,L,"[4, 9]",1.0,9.0,0.8904480934143066,2.5998239517211914,0.7081336025424958,39.0,399.0,0.0
Y,R,"[4, 10]",0.0,9.0,0.23448586463928223,1.8638148307800293,0.6387290707649038,39.0,400.0,0.0
,,"(6, 6)",,,,,,,,
R,U,"[5, 6]",1.0,1.0,0.36750292778015137,2.867992877960205,0.30693501984878746,40.0,401.0,0.0
Y,R,"[5, 7]",1.0,2.0,0.2710380554199219,1.9202518463134766,0.6603121295414311,40.0,402.0,0.0
Y,R,"[5, 8]",1.0,3.0,0.29564595222473145,1.701474905014038,0.411972115283313,40.0,403.0,0.0
G,D,"[6, 8]",1.0,4.0,0.2951540946960449,1.6958279609680176,0.4078254556156179,40.0,404.0,0.0
Y,R,"[6, 9]",1.0,5.0,0.26238107681274414,1.6869988441467285,0.42808912120345477,40.0,405.0,0.0
Y,R,"[6, 10]",1.0,6.0,0.22809219360351562,1.4873359203338623,0.2655801927164977,40.0,406.0,0.0
R,U,"[5, 10]",1.0,7.0,0.3020510673522949,1.7522940635681152,0.45102363054098127,40.0,407.0,0.0
R,U,"[4, 10]",1.0,8.0,0.24016213417053223,1.8033959865570068,0.5542665308689066,40.0,408.0,0.0
B,L,"[4, 9]",1.0,9.0,0.49805307388305664,2.151392936706543,0.6554118031150586,40.0,409.0,0.0
B,L,"[4, 8]",0.0,9.0,0.25097012519836426,1.5411019325256348,0.2968870707833979,40.0,410.0,0.0
,,"(6, 6)",,,,,,,,
R,U,"[5, 6]",1.0,1.0,0.6077659130096436,3.8641140460968018,0.36099808119718685,41.0,411.0,0.0
Y,R,"[5, 7]",1.0,2.0,0.25795698165893555,1.632308006286621,0.3765997886774511,41.0,412.0,0.0
Y,R,"[5, 8]",1.0,3.0,0.36963891983032227,1.7640581130981445,0.40730620784784977,41.0,413.0,0.0
G,D,"[6, 8]",1.0,4.0,0.27390503883361816,2.0184950828552246,0.7421385048748085,41.0,414.0,0.0
Y,R,"[6, 9]",1.0,5.0,0.23137784004211426,1.7752840518951416,0.5508018017718583,41.0,415.0,0.0
Y,R,"[6, 10]",1.0,6.0,0.21235299110412598,1.7335948944091797,0.5176971233372556,41.0,416.0,0.0
R,U,"[5, 10]",1.0,7.0,0.22655987739562988,1.5198562145233154,0.28781469299980383,41.0,417.0,0.0
R,U,"[4, 10]",1.0,8.0,0.38080692291259766,1.6715810298919678,0.29281270868278947,41.0,418.0,0.0
B,L,"[4, 9]",1.0,9.0,0.8062119483947754,2.423718214035034,0.6161779475671832,41.0,419.0,0.0
R,U,"[3, 9]",1.0,10.0,0.2758939266204834,1.6941850185394287,0.4105890175703455,41.0,420.0,0.0
,,"(6, 6)",,,,,,,,
R,U,"[5, 6]",1.0,1.0,0.40627002716064453,3.8632919788360596,0.45714502376329785,42.0,421.0,0.0
Y,R,"[5, 7]",1.0,2.0,0.5288348197937012,2.001338005065918,0.4750782703287609,42.0,422.0,0.0
Y,R,"[5, 8]",1.0,3.0,0.28880906105041504,1.7147951126098633,0.4399311760717226,42.0,423.0,0.0
G,D,"[6, 8]",1.0,4.0,0.3811490535736084,1.900386095046997,0.5237739242965014,42.0,424.0,0.0
Y,R,"[6, 9]",1.0,5.0,0.34207797050476074,1.9598309993743896,0.616576203747518,42.0,425.0,0.0
Y,R,"[6, 10]",1.0,6.0,0.33246397972106934,1.837143898010254,0.5038813610830304,42.0,426.0,0.0
R,U,"[5, 10]",1.0,7.0,0.2910590171813965,1.964109182357788,0.6677499370393453,42.0,427.0,0.0
R,U,"[4, 10]",1.0,8.0,0.505439043045044,2.0428409576416016,0.5273216161916845,42.0,428.0,0.0
G,D,"[5, 10]",0.0,8.0,0.543018102645874,2.1100308895111084,0.5705748246123551,42.0,429.0,0.0
R,U,"[4, 10]",0.0,8.0,0.540351152420044,1.9042229652404785,0.3583763976727366,42.0,430.0,0.0
,,"(6, 6)",,,,,,,,
R,U,"[5, 6]",1.0,1.0,0.7564880847930908,5.432284116744995,0.5571083871797169,43.0,431.0,0.0
Y,R,"[5, 7]",1.0,2.0,0.2529771327972412,1.9876289367675781,0.7444426442925771,43.0,432.0,0.0
Y,R,"[5, 8]",1.0,3.0,0.34170985221862793,2.080422878265381,0.7416312825285081,43.0,433.0,0.0
G,D,"[6, 8]",1.0,4.0,0.413254976272583,1.857292890548706,0.4492578623665462,43.0,434.0,0.0
Y,R,"[6, 9]",1.0,5.0,0.6565980911254883,1.9459939002990723,0.2785979911386641,43.0,435.0,0.0
Y,R,"[6, 10]",1.0,6.0,0.2800109386444092,1.9414072036743164,0.6696945049905452,43.0,436.0,0.0
R,U,"[5, 10]",1.0,7.0,0.22326087951660156,1.9253730773925781,0.6949941107810019,43.0,437.0,0.0
R,U,"[4, 10]",1.0,8.0,0.37529420852661133,1.793708086013794,0.4222279865575697,43.0,438.0,0.0
B,L,"[4, 9]",1.0,9.0,0.5065751075744629,1.7894680500030518,0.27849434298793374,43.0,439.0,0.0
R,U,"[3, 9]",1.0,10.0,0.4812140464782715,1.8578920364379883,0.38626198044092425,43.0,440.0,0.0
,,"(6, 6)",,,,,,,,
R,U,"[5, 6]",1.0,1.0,0.44440293312072754,2.9889261722564697,0.258730020684185,44.0,441.0,0.0
Y,R,"[5, 7]",1.0,2.0,0.3342881202697754,1.7930550575256348,0.46823250081227163,44.0,442.0,0.0
Y,R,"[5, 8]",1.0,3.0,0.28216004371643066,1.5586299896240234,0.2769315984264819,44.0,443.0,0.0
G,D,"[6, 8]",1.0,4.0,0.36139822006225586,1.827815055847168,0.4712582576357632,44.0,444.0,0.0
Y,R,"[6, 9]",1.0,5.0,0.27173590660095215,1.8047289848327637,0.542569545664299,44.0,445.0,0.0
Y,R,"[6, 10]",1.0,6.0,0.2088627815246582,1.6606879234313965,0.45330903776940407,44.0,446.0,0.0
R,U,"[5, 10]",1.0,7.0,0.2801179885864258,1.8773019313812256,0.5971598040632904,44.0,447.0,0.0
R,U,"[4, 10]",1.0,8.0,0.32275915145874023,1.7597150802612305,0.4237135240875412,44.0,448.0,0.0
B,L,"[4, 9]",1.0,9.0,0.6768448352813721,1.9817640781402588,0.3055000747458735,44.0,449.0,0.0
R,U,"[3, 9]",1.0,10.0,0.6804349422454834,2.0710151195526123,0.39306514165748296,44.0,450.0,0.0
,,"(6, 6)",,,,,,,,
R,U,"[5, 6]",1.0,1.0,0.44478392601013184,3.8824870586395264,0.7090099885304506,45.0,451.0,0.0
Y,R,"[5, 7]",1.0,2.0,0.2163839340209961,1.711677074432373,0.5038606292607788,45.0,452.0,0.0
Y,R,"[5, 8]",1.0,3.0,0.33871912956237793,1.9973061084747314,0.6509886484250751,45.0,453.0,0.0
R,U,"[4, 8]",0.0,3.0,0.30170297622680664,1.6133341789245605,0.31463022811157215,45.0,454.0,0.0
R,U,"[3, 8]",-2.0,3.0,1.1070430278778076,2.545356035232544,0.4597953984417464,45.0,455.0,0.0
Y,R,"[3, 9]",1.0,4.0,0.9476678371429443,2.4418671131134033,0.5017046072477056,45.0,456.0,0.0
R,U,"[2, 9]",0.0,4.0,0.20466089248657227,1.7312731742858887,0.5328271263694186,45.0,457.0,0.0
R,U,"[1, 9]",0.0,4.0,0.17232608795166016,1.6262240409851074,0.44244596530400504,45.0,458.0,0.0
B,L,"[1, 8]",0.0,4.0,0.2949249744415283,1.7259900569915771,0.4351775619017067,45.0,459.0,0.0
R,U,"[1, 9]",-3.0,4.0,0.21732091903686523,1.8829431533813477,0.6678299516004267,45.0,460.0,0.0
,,"(6, 6)",,,,,,,,
R,U,"[5, 6]",1.0,1.0,0.34249186515808105,3.1921281814575195,0.6100022910307266,46.0,461.0,0.0
Y,R,"[5, 7]",1.0,2.0,0.23055791854858398,1.8044829368591309,0.5811559573290945,46.0,462.0,0.0
Y,R,"[5, 8]",1.0,3.0,0.20391106605529785,1.6871180534362793,0.4850188484607474,46.0,463.0,0.0
G,D,"[6, 8]",1.0,4.0,0.2627420425415039,1.6867749691009521,0.4217388507342428,46.0,464.0,0.0
Y,R,"[6, 9]",1.0,5.0,0.26125311851501465,1.9668400287628174,0.7050681265552863,46.0,465.0,0.0
R,U,"[5, 9]",0.0,5.0,0.1700451374053955,1.5578248500823975,0.39650498368149184,46.0,466.0,0.0
R,U,"[4, 9]",-2.0,5.0,1.3108570575714111,2.8249268531799316,0.5380716887091412,46.0,467.0,0.0
R,U,"[3, 9]",1.0,6.0,0.18100309371948242,1.7367949485778809,0.5580030326160268,46.0,468.0,0.0
B,L,"[3, 8]",0.0,6.0,0.7428669929504395,2.420808792114258,0.67856001853,46.0,469.0,0.0
R,U,"[2, 8]",0.0,6.0,0.18550705909729004,1.6720988750457764,0.4842847821138481,46.0,470.0,0.0
,,"(6, 6)",,,,,,,,
R,U,"[5, 6]",1.0,1.0,0.30869293212890625,2.9967479705810547,0.414450349213253,47.0,471.0,0.0
Y,R,"[5, 7]",1.0,2.0,0.3057529926300049,1.6814179420471191,0.36264812770035754,47.0,472.0,0.0
Y,R,"[5, 8]",1.0,3.0,0.5408279895782471,2.257483959197998,0.7034774918614741,47.0,473.0,0.0
G,D,"[6, 8]",1.0,4.0,0.3473970890045166,1.799757957458496,0.453017490071375,47.0,474.0,0.0
Y,R,"[6, 9]",1.0,5.0,0.34438085556030273,2.0792181491851807,0.7319026694936706,47.0,475.0,0.0
Y,R,"[6, 10]",1.0,6.0,0.22606396675109863,1.8266050815582275,0.5919702079853209,47.0,476.0,0.0
R,U,"[5, 10]",1.0,7.0,0.26238012313842773,1.7506041526794434,0.49254948582343655,47.0,477.0,0.0
R,U,"[4, 10]",1.0,8.0,0.3893249034881592,1.6867098808288574,0.31283151127707604,47.0,478.0,0.0
B,L,"[4, 9]",1.0,9.0,0.6412911415100098,2.256438970565796,0.6022023611881683,47.0,479.0,0.0
R,U,"[3, 9]",1.0,10.0,0.4083290100097656,2.1010138988494873,0.6865824744200784,47.0,480.0,0.0
,,"(6, 6)",,,,,,,,
R,U,"[5, 6]",1.0,1.0,0.4655179977416992,2.797168016433716,0.4504811433173396,48.0,481.0,0.0
Y,R,"[5, 7]",1.0,2.0,0.2903120517730713,1.7643201351165771,0.4647994785072456,48.0,482.0,0.0
Y,R,"[5, 8]",1.0,3.0,0.31685400009155273,1.8938980102539062,0.5753317183785478,48.0,483.0,0.0
R,U,"[4, 8]",0.0,3.0,0.33728718757629395,1.6921560764312744,0.3675593420591915,48.0,484.0,0.0
Y,R,"[4, 9]",1.0,4.0,0.6521968841552734,2.186706066131592,0.5375651409223924,48.0,485.0,0.0
Y,R,"[4, 10]",1.0,5.0,0.21492409706115723,1.5955798625946045,0.3832603039531726,48.0,486.0,0.0
R,U,"[3, 10]",0.0,5.0,0.4239048957824707,1.6836199760437012,0.2503471505776472,48.0,487.0,0.0
R,U,"[2, 10]",0.0,5.0,0.4765899181365967,1.7499401569366455,0.26693774067301074,48.0,488.0,0.0
B,L,"[2, 9]",0.0,5.0,0.3285679817199707,1.586440086364746,0.2532512112930909,48.0,489.0,0.0
R,U,"[1, 9]",0.0,5.0,0.3302650451660156,1.7739689350128174,0.44380181939895874,48.0,490.0,0.0
,,"(6, 6)",,,,,,,,
R,U,"[5, 6]",1.0,1.0,0.6385970115661621,2.7554399967193604,0.5990974230422813,49.0,491.0,0.0
Y,R,"[5, 7]",1.0,2.0,0.3250429630279541,2.082900047302246,0.7489651401214206,49.0,492.0,0.0
Y,R,"[5, 8]",1.0,3.0,0.34172797203063965,1.8926639556884766,0.5412899769095821,49.0,493.0,0.0
G,D,"[6, 8]",1.0,4.0,0.3751561641693115,1.757228136062622,0.38202082503145757,49.0,494.0,0.0
Y,R,"[6, 9]",1.0,5.0,0.3445150852203369,1.8480210304260254,0.496583032456831,49.0,495.0,0.0
Y,R,"[6, 10]",1.0,6.0,0.2707810401916504,1.7256860733032227,0.45559122242635214,49.0,496.0,0.0
R,U,"[5, 10]",1.0,7.0,0.37179994583129883,1.726912021636963,0.34925645773870273,49.0,497.0,0.0
R,U,"[4, 10]",1.0,8.0,0.448422908782959,1.9226038455963135,0.4717751413365158,49.0,498.0,0.0
B,L,"[4, 9]",1.0,9.0,0.2887749671936035,1.8762469291687012,0.5811418536001458,49.0,499.0,0.0
R,U,"[3, 9]",1.0,10.0,0.3484230041503906,1.952111005783081,0.5999424422490423,49.0,500.0,0.0
,,"(6, 6)",,,,,,,,
R,U,"[5, 6]",1.0,1.0,0.38088297843933105,3.141451120376587,0.45824997137428025,50.0,501.0,0.0
Y,R,"[5, 7]",1.0,2.0,0.30005812644958496,1.8339200019836426,0.5419919444638726,50.0,502.0,0.0
Y,R,"[5, 8]",1.0,3.0,0.23770499229431152,1.9056661128997803,0.680870018373641,50.0,503.0,0.0
G,D,"[6, 8]",1.0,4.0,0.34100890159606934,1.824995994567871,0.47261462840560914,50.0,504.0,0.0
Y,R,"[6, 9]",1.0,5.0,0.23351216316223145,1.726578950881958,0.4992530698321083,50.0,505.0,0.0
Y,R,"[6, 10]",1.0,6.0,0.26617908477783203,1.8633618354797363,0.5956950119439295,50.0,506.0,0.0
R,U,"[5, 10]",1.0,7.0,0.3353748321533203,1.803483009338379,0.4660417246544533,50.0,507.0,0.0
R,U,"[4, 10]",1.0,8.0,0.3193039894104004,1.8859310150146484,0.5685276009066433,50.0,508.0,0.0
B,L,"[4, 9]",1.0,9.0,0.35891008377075195,1.92765212059021,0.5627750778675262,50.0,509.0,0.0
R,U,"[3, 9]",1.0,10.0,0.4326138496398926,2.1001501083374023,0.6628144132665119,50.0,510.0,0.0
,,"(6, 6)",,,,,,,,
R,U,"[5, 6]",1.0,1.0,0.50520920753479,3.164292097091675,0.3274859631441326,51.0,511.0,0.0
Y,R,"[5, 7]",1.0,2.0,0.49460887908935547,1.961968183517456,0.47268083809594025,51.0,512.0,0.0
Y,R,"[5, 8]",1.0,3.0,0.21399807929992676,1.7326929569244385,0.5219135657707508,51.0,513.0,0.0
G,D,"[6, 8]",1.0,4.0,0.22095394134521484,1.762009859085083,0.5505522412619639,51.0,514.0,0.0
Y,R,"[6, 9]",1.0,5.0,0.18021678924560547,1.4763929843902588,0.29393216283833523,51.0,515.0,0.0
Y,R,"[6, 10]",1.0,6.0,0.32521986961364746,1.9154400825500488,0.5923047924149536,51.0,516.0,0.0
R,U,"[5, 10]",1.0,7.0,0.23154902458190918,1.7611351013183594,0.5369391100794767,51.0,517.0,0.0
R,U,"[4, 10]",1.0,8.0,0.40479302406311035,1.9094860553741455,0.5128353909921006,51.0,518.0,0.0
B,L,"[4, 9]",1.0,9.0,0.2881629467010498,1.7836410999298096,0.4798849553985329,51.0,519.0,0.0
R,U,"[3, 9]",1.0,10.0,0.3239269256591797,1.986989974975586,0.6500979129314939,51.0,520.0,0.0
,,"(6, 6)",,,,,,,,
R,U,"[5, 6]",1.0,1.0,0.5662879943847656,3.0528159141540527,0.26991667722806456,52.0,521.0,0.0
Y,R,"[5, 7]",1.0,2.0,0.2734510898590088,1.8075859546661377,0.5437952440173341,52.0,522.0,0.0
Y,R,"[5, 8]",1.0,3.0,0.3274109363555908,1.706117868423462,0.3834965739134478,52.0,523.0,0.0
G,D,"[6, 8]",1.0,4.0,0.3027510643005371,1.6014578342437744,0.3017059705358985,52.0,524.0,0.0
Y,R,"[6, 9]",1.0,5.0,0.24079084396362305,1.6345269680023193,0.3861559623702064,52.0,525.0,0.0
Y,R,"[6, 10]",1.0,6.0,0.24439597129821777,1.7252240180969238,0.47794953956797614,52.0,526.0,0.0
R,U,"[5, 10]",1.0,7.0,0.24779605865478516,1.7488160133361816,0.5099536567326406,52.0,527.0,0.0
R,U,"[4, 10]",1.0,8.0,0.24272489547729492,1.7391119003295898,0.49917071940699065,52.0,528.0,0.0
B,L,"[4, 9]",1.0,9.0,0.2588019371032715,1.9103591442108154,0.6425492063699959,52.0,529.0,0.0
R,U,"[3, 9]",1.0,10.0,0.2577040195465088,1.7594661712646484,0.5021713965016227,52.0,530.0,0.0
,,"(6, 6)",,,,,,,,
R,U,"[5, 6]",1.0,1.0,0.397320032119751,3.369694948196411,0.5385547510266135,53.0,531.0,0.0
Y,R,"[5, 7]",1.0,2.0,0.24325919151306152,1.9559838771820068,0.7110506965704808,53.0,532.0,0.0
Y,R,"[5, 8]",1.0,3.0,0.19527482986450195,1.900467872619629,0.7114349307318555,53.0,533.0,0.0
G,D,"[6, 8]",1.0,4.0,0.2062840461730957,1.851064920425415,0.662585001299621,53.0,534.0,0.0
Y,R,"[6, 9]",1.0,5.0,0.24762415885925293,1.5917279720306396,0.3379278903495408,53.0,535.0,0.0
Y,R,"[6, 10]",1.0,6.0,0.4293539524078369,1.9511301517486572,0.5221160116024859,53.0,536.0,0.0
R,U,"[5, 10]",1.0,7.0,0.1852269172668457,1.7138221263885498,0.5359355621279932,53.0,537.0,0.0
R,U,"[4, 10]",1.0,8.0,0.1865530014038086,1.7803449630737305,0.5995906486828688,53.0,538.0,0.0
B,L,"[4, 9]",1.0,9.0,0.5652439594268799,1.9743359088897705,0.40735771056697084,53.0,539.0,0.0
R,U,"[3, 9]",1.0,10.0,0.3725578784942627,1.742624044418335,0.366629706540444,53.0,540.0,0.0
,,"(6, 6)",,,,,,,,
R,U,"[5, 6]",1.0,1.0,0.4143390655517578,3.38309907913208,0.6662268771990706,54.0,541.0,0.0
Y,R,"[5, 7]",1.0,2.0,0.22526788711547852,1.8038549423217773,0.5701668483886991,54.0,542.0,0.0
Y,R,"[5, 8]",1.0,3.0,0.23318886756896973,1.8689730167388916,0.6390659386752738,54.0,543.0,0.0
G,D,"[6, 8]",1.0,4.0,0.28658223152160645,1.711487054824829,0.4340029866497525,54.0,544.0,0.0
Y,R,"[6, 9]",1.0,5.0,0.2738041877746582,1.9742238521575928,0.6915472415138679,54.0,545.0,0.0
Y,R,"[6, 10]",1.0,6.0,0.26306700706481934,1.670238971710205,0.4117056009357979,54.0,546.0,0.0
R,U,"[5, 10]",1.0,7.0,0.3225588798522949,2.0036191940307617,0.6984421481186307,54.0,547.0,0.0
R,U,"[4, 10]",1.0,8.0,0.22175312042236328,1.8042969703674316,0.5860727406794795,54.0,548.0,0.0
B,L,"[4, 9]",1.0,9.0,0.2888050079345703,1.9514429569244385,0.6708873459293061,54.0,549.0,0.0
R,U,"[3, 9]",1.0,10.0,0.2377150058746338,1.9077880382537842,0.6619819170661564,54.0,550.0,0.0
,,"(6, 6)",,,,,,,,
R,U,"[5, 6]",1.0,1.0,0.4766569137573242,2.9113879203796387,0.4568066899095784,55.0,551.0,0.0
Y,R,"[5, 7]",1.0,2.0,0.2800581455230713,1.7868502140045166,0.5101547925463289,55.0,552.0,0.0
Y,R,"[5, 8]",1.0,3.0,0.23273897171020508,1.8275251388549805,0.6042939679302977,55.0,553.0,0.0
G,D,"[6, 8]",1.0,4.0,0.22346901893615723,1.5216140747070312,0.29293936069811133,55.0,554.0,0.0
Y,R,"[6, 9]",1.0,5.0,0.4386708736419678,2.0416100025177,0.6009008164422039,55.0,555.0,0.0
Y,R,"[6, 10]",1.0,6.0,0.2106180191040039,1.5357468128204346,0.320162731159794,55.0,556.0,0.0
R,U,"[5, 10]",1.0,7.0,0.42969489097595215,1.8402528762817383,0.41039866029983885,55.0,557.0,0.0
R,U,"[4, 10]",1.0,8.0,0.3079819679260254,1.902216911315918,0.5958204935928955,55.0,558.0,0.0
B,L,"[4, 9]",1.0,9.0,0.3643319606781006,1.8716449737548828,0.5008193947091464,55.0,559.0,0.0
R,U,"[3, 9]",1.0,10.0,0.37963294982910156,1.6447241306304932,0.26243238526622026,55.0,560.0,0.0
,,"(6, 6)",,,,,,,,
R,U,"[5, 6]",1.0,1.0,0.47597408294677734,3.195836067199707,0.5746091580670001,56.0,561.0,0.0
Y,R,"[5, 7]",1.0,2.0,0.30225300788879395,1.8131670951843262,0.5210350447253245,56.0,562.0,0.0
Y,R,"[5, 8]",1.0,3.0,0.2883880138397217,2.0172832012176514,0.7214093739661487,56.0,563.0,0.0
G,D,"[6, 8]",1.0,4.0,0.31783485412597656,1.666640043258667,0.3550926212818726,56.0,564.0,0.0
Y,R,"[6, 9]",1.0,5.0,0.27817606925964355,1.9734110832214355,0.6949046273570494,56.0,565.0,0.0
Y,R,"[6, 10]",1.0,6.0,0.23328876495361328,1.6623129844665527,0.44106383084123396,56.0,566.0,0.0
R,U,"[5, 10]",1.0,7.0,0.3588697910308838,2.002769947052002,0.643340899998528,56.0,567.0,0.0
R,U,"[4, 10]",1.0,8.0,0.21485495567321777,1.7229509353637695,0.5163813328147635,56.0,568.0,0.0
B,L,"[4, 9]",1.0,9.0,0.25850796699523926,1.6785881519317627,0.41176697250018823,56.0,569.0,0.0
R,U,"[3, 9]",1.0,10.0,0.3738241195678711,1.7413170337677002,0.3696851174023246,56.0,570.0,0.0
,,"(6, 6)",,,,,,,,
R,U,"[5, 6]",1.0,1.0,0.44796013832092285,3.6196951866149902,0.6890934525993782,57.0,571.0,0.0
Y,R,"[5, 7]",1.0,2.0,0.46107006072998047,1.9247889518737793,0.4640870928886251,57.0,572.0,0.0
Y,R,"[5, 8]",1.0,3.0,0.26222991943359375,1.5397019386291504,0.27062625622494635,57.0,573.0,0.0
G,D,"[6, 8]",1.0,4.0,0.46867799758911133,1.7704479694366455,0.307614912021346,57.0,574.0,0.0
Y,R,"[6, 9]",1.0,5.0,0.31575894355773926,1.6293771266937256,0.3203689820981744,57.0,575.0,0.0
R,U,"[5, 9]",0.0,5.0,0.4128241539001465,1.9044899940490723,0.491286432969596,57.0,576.0,0.0
R,U,"[4, 9]",1.0,6.0,0.2674520015716553,1.6310741901397705,0.3725178229921392,57.0,577.0,0.0
R,U,"[3, 9]",1.0,7.0,0.27759718894958496,1.7744290828704834,0.4968031069469872,57.0,578.0,0.0
G,D,"[4, 9]",0.0,7.0,0.36971497535705566,2.0079519748687744,0.6379456127714971,57.0,579.0,0.0
R,U,"[3, 9]",0.0,7.0,0.3489339351654053,1.6776950359344482,0.3326046421641485,57.0,580.0,0.0
,,"(6, 6)",,,,,,,,
R,U,"[5, 6]",1.0,1.0,0.34363293647766113,2.5658199787139893,0.5815002100725604,58.0,581.0,0.0
Y,R,"[5, 7]",1.0,2.0,0.23793506622314453,1.6775169372558594,0.44245481024672745,58.0,582.0,0.0
Y,R,"[5, 8]",1.0,3.0,0.23515796661376953,1.8640711307525635,0.6395348750812431,58.0,583.0,0.0
G,D,"[6, 8]",1.0,4.0,0.21875214576721191,1.7712891101837158,0.5610136406762565,58.0,584.0,0.0
Y,R,"[6, 9]",1.0,5.0,0.3146181106567383,1.9619550704956055,0.6560641458557622,58.0,585.0,0.0
Y,R,"[6, 10]",1.0,6.0,0.3419370651245117,1.8392632007598877,0.4955063378858522,58.0,586.0,0.0
R,U,"[5, 10]",1.0,7.0,0.2669508457183838,1.6491031646728516,0.3779896759030312,58.0,587.0,0.0
R,U,"[4, 10]",1.0,8.0,0.36496496200561523,2.054460048675537,0.6989344689699297,58.0,588.0,0.0
B,L,"[4, 9]",1.0,9.0,0.281965970993042,1.6574909687042236,0.3734020506011806,58.0,589.0,0.0
R,U,"[3, 9]",1.0,10.0,0.2902109622955322,1.9167048931121826,0.6231955422268733,58.0,590.0,0.0
,,"(6, 6)",,,,,,,,
R,U,"[5, 6]",1.0,1.0,0.3834109306335449,3.284144878387451,0.4408308283755081,59.0,591.0,0.0
Y,R,"[5, 7]",1.0,2.0,0.24515891075134277,1.6599910259246826,0.41761490449010025,59.0,592.0,0.0
Y,R,"[5, 8]",1.0,3.0,0.13745498657226562,1.6993770599365234,0.566695708882494,59.0,593.0,0.0
G,D,"[6, 8]",1.0,4.0,0.18618392944335938,1.5273661613464355,0.3441644345164873,59.0,594.0,0.0
Y,R,"[6, 9]",1.0,5.0,0.322465181350708,2.0093140602111816,0.6865142647131577,59.0,595.0,0.0
Y,R,"[6, 10]",1.0,6.0,0.20592999458312988,1.9559648036956787,0.7425178723934105,59.0,596.0,0.0
R,U,"[5, 10]",-1.0,6.0,0.05837893486022949,5.4459168910980225,0.3386353625809167,59.0,597.0,0.0
R,U,"[4, 10]",1.0,7.0,0.2647860050201416,1.8808660507202148,0.6192153115277161,59.0,598.0,0.0
R,U,"[3, 10]",0.0,7.0,0.24741291999816895,1.6544880867004395,0.40731015888746364,59.0,599.0,0.0
B,L,"[3, 9]",1.0,8.0,0.28742289543151855,1.9969379901885986,0.720509638573918,59.0,600.0,0.0
,,"(6, 6)",,,,,,,,
R,U,"[5, 6]",1.0,1.0,0.31888508796691895,3.6941661834716797,0.6814231654339112,60.0,601.0,0.0
Y,R,"[5, 7]",1.0,2.0,0.2523510456085205,1.6137700080871582,0.36211842346100304,60.0,602.0,0.0
R,U,"[4, 7]",0.0,2.0,0.31798315048217773,2.0309789180755615,0.7093441431550876,60.0,603.0,0.0
G,D,"[5, 7]",0.0,2.0,0.3679990768432617,1.9055750370025635,0.5483708535245493,60.0,604.0,0.0
R,U,"[4, 7]",0.0,2.0,0.8773260116577148,2.3645060062408447,0.47964984315562215,60.0,605.0,0.0
Y,R,"[4, 8]",0.0,2.0,0.4425511360168457,1.7185509204864502,0.26509202024738393,60.0,606.0,0.0
R,U,"[3, 8]",0.0,2.0,0.7205288410186768,2.389727830886841,0.6710955512218071,60.0,607.0,0.0
B,L,"[3, 7]",0.0,2.0,0.3987250328063965,1.7573649883270264,0.36206033623000183,60.0,608.0,0.0
R,U,"[2, 7]",0.0,2.0,0.26189398765563965,1.545619010925293,0.27433059045213315,60.0,609.0,0.0
R,U,"[1, 7]",0.0,2.0,0.39270591735839844,1.7885119915008545,0.39606295707546885,60.0,610.0,0.0
,,"(6, 6)",,,,,,,,
R,U,"[5, 6]",1.0,1.0,0.3361508846282959,2.75885009765625,0.421554166156612,61.0,611.0,0.0
Y,R,"[5, 7]",1.0,2.0,0.37955284118652344,1.8297910690307617,0.4513368072448051,61.0,612.0,0.0
Y,R,"[5, 8]",1.0,3.0,0.5722048282623291,1.9492170810699463,0.36719177231738326,61.0,613.0,0.0
G,D,"[6, 8]",1.0,4.0,0.47021913528442383,1.8207199573516846,0.3546438772319987,61.0,614.0,0.0
Y,R,"[6, 9]",1.0,5.0,0.5702788829803467,1.9144001007080078,0.3524204908857728,61.0,615.0,0.0
Y,R,"[6, 10]",1.0,6.0,0.28889012336730957,1.9580039978027344,0.6765968663250825,61.0,616.0,0.0
R,U,"[5, 10]",1.0,7.0,0.21776485443115234,1.5882389545440674,0.3818959070188328,61.0,617.0,0.0
R,U,"[4, 10]",1.0,8.0,0.2818000316619873,1.840118169784546,0.555110275389376,61.0,618.0,0.0
G,D,"[5, 10]",0.0,8.0,0.285506010055542,1.6246249675750732,0.3466365148363242,61.0,619.0,0.0
R,U,"[4, 10]",0.0,8.0,0.2331850528717041,1.8265740871429443,0.5898082985042199,61.0,620.0,0.0
,,"(6, 6)",,,,,,,,
R,U,"[5, 6]",1.0,1.0,0.388761043548584,2.489668130874634,0.2629396830510158,62.0,621.0,0.0
Y,R,"[5, 7]",1.0,2.0,0.24942612648010254,1.6402359008789062,0.386288523072216,62.0,622.0,0.0
Y,R,"[5, 8]",1.0,3.0,0.2806367874145508,1.5923380851745605,0.3121386443391741,62.0,623.0,0.0
R,U,"[4, 8]",0.0,3.0,0.2733750343322754,1.7141859531402588,0.4427390140043081,62.0,624.0,0.0
Y,R,"[4, 9]",1.0,4.0,0.14133715629577637,1.4544758796691895,0.3140832229740428,62.0,625.0,0.0
Y,R,"[4, 10]",1.0,5.0,0.23640823364257812,1.7773408889770508,0.5411724470352808,62.0,626.0,0.0
R,U,"[3, 10]",0.0,5.0,0.2859230041503906,1.7019798755645752,0.4265938911082877,62.0,627.0,0.0
R,U,"[2, 10]",0.0,5.0,0.23596596717834473,1.6969289779663086,0.47343184300973723,62.0,628.0,0.0
B,L,"[2, 9]",0.0,5.0,0.2046821117401123,1.4451930522918701,0.2521135897184372,62.0,629.0,0.0
R,U,"[1, 9]",0.0,5.0,0.6097331047058105,1.9411001205444336,0.3263778652712655,62.0,630.0,0.0
,,"(6, 6)",,,,,,,,
R,U,"[5, 6]",1.0,1.0,0.31806302070617676,2.3636209964752197,0.35668381643266084,63.0,631.0,0.0
Y,R,"[5, 7]",1.0,2.0,0.2716500759124756,1.5924208164215088,0.3158566246168576,63.0,632.0,0.0
Y,R,"[5, 8]",1.0,3.0,0.36072492599487305,1.7064099311828613,0.3388835598933274,63.0,633.0,0.0
G,D,"[6, 8]",1.0,4.0,0.24763202667236328,1.6818718910217285,0.4373082171954884,63.0,634.0,0.0
Y,R,"[6, 9]",1.0,5.0,0.3235738277435303,1.902540922164917,0.573023627329686,63.0,635.0,0.0
Y,R,"[6, 10]",1.0,6.0,0.23227715492248535,1.4901659488677979,0.2635419473251103,63.0,636.0,0.0
R,U,"[5, 10]",1.0,7.0,0.42824482917785645,2.0416619777679443,0.6048034791425521,63.0,637.0,0.0
R,U,"[4, 10]",1.0,8.0,0.2798948287963867,1.675468921661377,0.39717685131950026,63.0,638.0,0.0
G,D,"[5, 10]",0.0,8.0,0.3875911235809326,1.9338641166687012,0.5475042825683141,63.0,639.0,0.0
R,U,"[4, 10]",0.0,8.0,0.2967491149902344,2.0391640663146973,0.7364650867107557,63.0,640.0,0.0
,,"(6, 6)",,,,,,,,
R,U,"[5, 6]",1.0,1.0,0.48009181022644043,2.445240020751953,0.44862483423820426,64.0,641.0,0.0
Y,R,"[5, 7]",1.0,2.0,0.23406291007995605,1.5991320610046387,0.36440128134107486,64.0,642.0,0.0
Y,R,"[5, 8]",1.0,3.0,0.2603011131286621,1.5466740131378174,0.27781303677015173,64.0,643.0,0.0
R,U,"[4, 8]",0.0,3.0,0.35500597953796387,1.843508005142212,0.5045062966703835,64.0,644.0,0.0
Y,R,"[4, 9]",1.0,4.0,0.2522549629211426,1.7536749839782715,0.5080579112003336,64.0,645.0,0.0
Y,R,"[4, 10]",1.0,5.0,0.18352699279785156,1.80503511428833,0.6296961010593152,64.0,646.0,0.0
R,U,"[3, 10]",0.0,5.0,0.18918609619140625,1.4977850914001465,0.2944853651241652,64.0,647.0,0.0
R,U,"[2, 10]",0.0,5.0,0.34441184997558594,1.7149391174316406,0.3760202115490194,64.0,648.0,0.0
B,L,"[2, 9]",0.0,5.0,0.2759668827056885,1.6667590141296387,0.3926038345975431,64.0,649.0,0.0
R,U,"[1, 9]",0.0,5.0,0.19757485389709473,1.5439298152923584,0.3533409169582896,64.0,650.0,0.0
,,"(6, 6)",,,,,,,,
R,U,"[5, 6]",1.0,1.0,0.6417810916900635,2.773303985595703,0.5433525845578842,65.0,651.0,0.0
Y,R,"[5, 7]",1.0,2.0,0.25742506980895996,1.8088300228118896,0.5685731328868462,65.0,652.0,0.0
Y,R,"[5, 8]",1.0,3.0,0.21469402313232422,1.8765969276428223,0.6617885162354695,65.0,653.0,0.0
G,D,"[6, 8]",1.0,4.0,0.25260400772094727,1.9338960647583008,0.6956296781650244,65.0,654.0,0.0
Y,R,"[6, 9]",1.0,5.0,0.2613999843597412,1.6673550605773926,0.39643588794876833,65.0,655.0,0.0
Y,R,"[6, 10]",1.0,6.0,0.3555021286010742,1.7463629245758057,0.3762471302264107,65.0,656.0,0.0
R,U,"[5, 10]",1.0,7.0,0.2719721794128418,1.7625620365142822,0.4886495111200148,65.0,657.0,0.0
R,U,"[4, 10]",1.0,8.0,0.26828598976135254,1.6363389492034912,0.37515514418149165,65.0,658.0,0.0
B,L,"[4, 9]",1.0,9.0,0.3379971981048584,1.6501271724700928,0.3085579124719791,65.0,659.0,0.0
R,U,"[3, 9]",1.0,10.0,0.3629939556121826,1.836817979812622,0.47850736721637516,65.0,660.0,0.0
,,"(6, 6)",,,,,,,,
R,U,"[5, 6]",1.0,1.0,0.40251898765563965,3.0275678634643555,0.37278091143564296,66.0,661.0,0.0
Y,R,"[5, 7]",1.0,2.0,0.2602710723876953,1.8830549716949463,0.6226495722305718,66.0,662.0,0.0
Y,R,"[5, 8]",1.0,3.0,0.250993013381958,1.761080026626587,0.5168952439741532,66.0,663.0,0.0
G,D,"[6, 8]",1.0,4.0,0.3961789608001709,1.7436408996582031,0.3438493771452256,66.0,664.0,0.0
Y,R,"[6, 9]",1.0,5.0,0.32489991188049316,1.6616342067718506,0.3389530575706675,66.0,665.0,0.0
Y,R,"[6, 10]",1.0,6.0,0.3852519989013672,1.6976590156555176,0.31986034900868576,66.0,666.0,0.0
R,U,"[5, 10]",1.0,7.0,0.45613813400268555,2.041656017303467,0.594690232829662,66.0,667.0,0.0
R,U,"[4, 10]",1.0,8.0,0.374910831451416,1.9110510349273682,0.5390841806465895,66.0,668.0,0.0
G,D,"[5, 10]",0.0,8.0,0.8801989555358887,2.2571351528167725,0.3797053967244069,66.0,669.0,0.0
R,U,"[4, 10]",0.0,8.0,0.2365410327911377,1.4953341484069824,0.2585237397618186,66.0,670.0,0.0
,,"(6, 6)",,,,,,,,
R,U,"[5, 6]",1.0,1.0,0.2900199890136719,3.0106749534606934,0.3024180526513378,67.0,671.0,0.0
Y,R,"[5, 7]",1.0,2.0,0.3074638843536377,1.7092969417572021,0.3949316070718012,67.0,672.0,0.0
Y,R,"[5, 8]",1.0,3.0,0.2514481544494629,1.5709431171417236,0.3325955914435911,67.0,673.0,0.0
G,D,"[6, 8]",1.0,4.0,0.3590819835662842,1.8492250442504883,0.4815382981853795,67.0,674.0,0.0
Y,R,"[6, 9]",1.0,5.0,0.2631509304046631,1.9305059909820557,0.6618963571834834,67.0,675.0,0.0
Y,R,"[6, 10]",1.0,6.0,0.23874688148498535,1.7223148345947266,0.48440116947262185,67.0,676.0,0.0
R,U,"[5, 10]",1.0,7.0,0.2551100254058838,1.9683959484100342,0.7192687579723297,67.0,677.0,0.0
R,U,"[4, 10]",1.0,8.0,0.15441107749938965,1.685317039489746,0.5380581203740054,67.0,678.0,0.0
B,L,"[4, 9]",1.0,9.0,0.341717004776001,1.8459827899932861,0.5007065186430812,67.0,679.0,0.0
R,U,"[3, 9]",1.0,10.0,0.22108912467956543,1.875675916671753,0.6595254113603588,67.0,680.0,0.0
,,"(6, 6)",,,,,,,,
R,U,"[5, 6]",1.0,1.0,0.3549809455871582,3.4144740104675293,0.6239809027387702,68.0,681.0,0.0
Y,R,"[5, 7]",1.0,2.0,0.26569509506225586,1.7681550979614258,0.508929568149081,68.0,682.0,0.0
Y,R,"[5, 8]",1.0,3.0,0.3870251178741455,1.853489875793457,0.4790084509635081,68.0,683.0,0.0
G,D,"[6, 8]",1.0,4.0,0.41927313804626465,2.05941104888916,0.6382178161984192,68.0,684.0,0.0
Y,R,"[6, 9]",1.0,5.0,0.3832709789276123,1.6630439758300781,0.28506064851212876,68.0,685.0,0.0
Y,R,"[6, 10]",1.0,6.0,0.700645923614502,1.9705159664154053,0.2721990281375916,68.0,686.0,0.0
R,U,"[5, 10]",1.0,7.0,0.3489680290222168,1.8764691352844238,0.5317799963640524,68.0,687.0,0.0
R,U,"[4, 10]",1.0,8.0,0.24756407737731934,1.904555082321167,0.6528132130684596,68.0,688.0,0.0
B,L,"[4, 9]",1.0,9.0,0.2714879512786865,1.8138089179992676,0.5500460152459848,68.0,689.0,0.0
R,U,"[3, 9]",1.0,10.0,0.40595221519470215,1.9437990188598633,0.5271191557421787,68.0,690.0,0.0
,,"(6, 6)",,,,,,,,
R,U,"[5, 6]",1.0,1.0,0.53826904296875,2.7262370586395264,0.3369578340814476,69.0,691.0,0.0
Y,R,"[5, 7]",1.0,2.0,0.3681759834289551,2.0719351768493652,0.70846621349652,69.0,692.0,0.0
Y,R,"[5, 8]",1.0,3.0,0.3744688034057617,1.8818531036376953,0.5072179733930644,69.0,693.0,0.0
G,D,"[6, 8]",1.0,4.0,0.4152381420135498,1.7237591743469238,0.31437322861036715,69.0,694.0,0.0
Y,R,"[6, 9]",1.0,5.0,0.3937849998474121,1.6987719535827637,0.2964917371176181,69.0,695.0,0.0
Y,R,"[6, 10]",1.0,6.0,0.38478899002075195,1.7283809185028076,0.3415567631918341,69.0,696.0,0.0
R,U,"[5, 10]",1.0,7.0,0.307171106338501,1.9988970756530762,0.6900081990300513,69.0,697.0,0.0
R,U,"[4, 10]",1.0,8.0,0.25614309310913086,1.6483027935028076,0.38857377438397833,69.0,698.0,0.0
B,L,"[4, 9]",1.0,9.0,0.6302568912506104,2.2051849365234375,0.576916727210836,69.0,699.0,0.0
R,U,"[3, 9]",1.0,10.0,0.46906185150146484,1.838819980621338,0.38252727693623584,69.0,700.0,0.0
,,"(6, 6)",,,,,,,,
R,U,"[5, 6]",1.0,1.0,0.8353698253631592,3.282392978668213,0.5815130864716335,70.0,701.0,0.0
Y,R,"[5, 7]",1.0,2.0,0.4127840995788574,2.122191905975342,0.7035486056157864,70.0,702.0,0.0
Y,R,"[5, 8]",1.0,3.0,0.2541160583496094,1.97658109664917,0.7300102134744528,70.0,703.0,0.0
G,D,"[6, 8]",1.0,4.0,0.2397618293762207,1.6993019580841064,0.44631337997565185,70.0,704.0,0.0
Y,R,"[6, 9]",1.0,5.0,0.3506598472595215,1.6550779342651367,0.3015199799027696,70.0,705.0,0.0
R,U,"[5, 9]",0.0,5.0,0.22269892692565918,1.5261030197143555,0.3109776186480717,70.0,706.0,0.0
R,U,"[4, 9]",1.0,6.0,0.21798205375671387,1.4780991077423096,0.27240876229025607,70.0,707.0,0.0
R,U,"[3, 9]",1.0,7.0,0.20971012115478516,1.9029350280761719,0.691651038839137,70.0,708.0,0.0
B,L,"[3, 8]",0.0,7.0,0.2626819610595703,1.941270112991333,0.6828065328003246,70.0,709.0,0.0
R,U,"[2, 8]",0.0,7.0,0.21864604949951172,1.89823579788208,0.6809842986978338,70.0,710.0,0.0
,,"(6, 6)",,,,,,,,
R,U,"[5, 6]",1.0,1.0,0.537898063659668,2.4871718883514404,0.40168496064696735,71.0,711.0,0.0
Y,R,"[5, 7]",1.0,2.0,0.23724794387817383,1.6824488639831543,0.4509216221953267,71.0,712.0,0.0
Y,R,"[5, 8]",1.0,3.0,0.2179248332977295,1.6902568340301514,0.47428323451541826,71.0,713.0,0.0
G,D,"[6, 8]",1.0,4.0,0.49560999870300293,2.1437718868255615,0.6515744962224825,71.0,714.0,0.0
Y,R,"[6, 9]",1.0,5.0,0.3295631408691406,1.8416588306427002,0.5097483184868565,71.0,715.0,0.0
Y,R,"[6, 10]",1.0,6.0,0.28156495094299316,1.7074429988861084,0.433961629210247,71.0,716.0,0.0
R,U,"[5, 10]",1.0,7.0,0.3485250473022461,1.8726108074188232,0.5230753825660261,71.0,717.0,0.0
R,U,"[4, 10]",1.0,8.0,0.5150220394134521,1.8196330070495605,0.3095909881889128,71.0,718.0,0.0
B,L,"[4, 9]",1.0,9.0,0.6711709499359131,2.065264940261841,0.4080904379438456,71.0,719.0,0.0
R,U,"[3, 9]",1.0,10.0,0.25309109687805176,1.57224702835083,0.33030234304337874,71.0,720.0,0.0
,,"(6, 6)",,,,,,,,
R,U,"[5, 6]",1.0,1.0,0.4186248779296875,3.3653531074523926,0.3789894280007896,72.0,721.0,0.0
Y,R,"[5, 7]",1.0,2.0,0.2825889587402344,1.851633071899414,0.5636867351100235,72.0,722.0,0.0
Y,R,"[5, 8]",1.0,3.0,0.3744971752166748,1.6884000301361084,0.3024422226565697,72.0,723.0,0.0
G,D,"[6, 8]",-2.0,3.0,1.132148027420044,2.4679079055786133,0.37022026320169105,72.0,724.0,0.0
Y,R,"[6, 9]",1.0,4.0,0.2424159049987793,1.7553508281707764,0.5087782140586887,72.0,725.0,0.0
Y,R,"[6, 10]",1.0,5.0,0.20740318298339844,1.507369041442871,0.29966952777844097,72.0,726.0,0.0
R,U,"[5, 10]",1.0,6.0,0.2527921199798584,1.6469690799713135,0.39654038259749474,72.0,727.0,0.0
R,U,"[4, 10]",1.0,7.0,0.2767040729522705,1.8929240703582764,0.605735383041162,72.0,728.0,0.0
B,L,"[4, 9]",1.0,8.0,0.22239112854003906,1.600268840789795,0.37296820179811196,72.0,729.0,0.0
R,U,"[3, 9]",1.0,9.0,0.307405948638916,1.8985869884490967,0.5880967641444693,72.0,730.0,0.0
,,"(6, 6)",,,,,,,,
R,U,"[5, 6]",1.0,1.0,0.3472151756286621,3.415436029434204,0.6700543864167996,73.0,731.0,0.0
Y,R,"[5, 7]",1.0,2.0,0.2548329830169678,1.6900889873504639,0.42695595520551216,73.0,732.0,0.0
Y,R,"[5, 8]",1.0,3.0,0.2742879390716553,1.632037878036499,0.35903222357129694,73.0,733.0,0.0
G,D,"[6, 8]",1.0,4.0,0.2539708614349365,1.9442059993743896,0.7029307284533065,73.0,734.0,0.0
Y,R,"[6, 9]",1.0,5.0,0.16925311088562012,1.7134580612182617,0.5498289187548921,73.0,735.0,0.0
R,U,"[5, 9]",0.0,5.0,0.26832103729248047,1.672093152999878,0.4054370531565939,73.0,736.0,0.0
R,U,"[4, 9]",1.0,6.0,0.1786649227142334,1.49281907081604,0.3149687820604617,73.0,737.0,0.0
R,U,"[3, 9]",1.0,7.0,0.15452790260314941,1.6856250762939453,0.533748045852581,73.0,738.0,0.0
B,L,"[3, 8]",-1.0,7.0,0.02078700065612793,5.408375978469849,0.32558654449395075,73.0,739.0,0.0
R,U,"[2, 8]",0.0,7.0,0.27324485778808594,1.6216039657592773,0.3471448450067735,73.0,740.0,0.0
,,"(6, 6)",,,,,,,,
R,U,"[5, 6]",1.0,1.0,0.31975507736206055,3.338973045349121,0.6524495694635297,74.0,741.0,0.0
Y,R,"[5, 7]",1.0,2.0,0.26656198501586914,1.9441568851470947,0.6799413956291964,74.0,742.0,0.0
Y,R,"[5, 8]",1.0,3.0,0.30484509468078613,1.6137897968292236,0.3105998384233269,74.0,743.0,0.0
G,D,"[6, 8]",1.0,4.0,0.4145219326019287,1.7718169689178467,0.36576192860444756,74.0,744.0,0.0
Y,R,"[6, 9]",1.0,5.0,0.22412586212158203,1.5855281352996826,0.35122009496677603,74.0,745.0,0.0
Y,R,"[6, 10]",1.0,6.0,0.2878232002258301,1.8467390537261963,0.5645186242535883,74.0,746.0,0.0
R,U,"[5, 10]",1.0,7.0,0.28598880767822266,1.7251050472259521,0.4397380175943644,74.0,747.0,0.0
R,U,"[4, 10]",1.0,8.0,0.36612582206726074,1.6915478706359863,0.33128947831372874,74.0,748.0,0.0
B,L,"[4, 9]",1.0,9.0,0.6011521816253662,2.3000848293304443,0.6976938814387266,74.0,749.0,0.0
R,U,"[3, 9]",1.0,10.0,0.4400818347930908,2.192725896835327,0.7404000330007907,74.0,750.0,0.0
,,"(6, 6)",,,,,,,,
R,U,"[5, 6]",1.0,1.0,0.4463980197906494,3.2577970027923584,0.6982161572111181,75.0,751.0,0.0
Y,R,"[5, 7]",1.0,2.0,0.3961029052734375,1.6753289699554443,0.27399099385747266,75.0,752.0,0.0
Y,R,"[5, 8]",1.0,3.0,0.5603430271148682,1.9009568691253662,0.3413457207971762,75.0,753.0,0.0
G,D,"[6, 8]",1.0,4.0,0.6574711799621582,2.286456823348999,0.6276763107584526,75.0,754.0,0.0
Y,R,"[6, 9]",1.0,5.0,0.3581118583679199,1.7257459163665771,0.37030832408062214,75.0,755.0,0.0
Y,R,"[6, 10]",1.0,6.0,0.5276679992675781,2.169724941253662,0.6397241471003687,75.0,756.0,0.0
R,U,"[5, 10]",1.0,7.0,0.3310060501098633,1.8033831119537354,0.4766277004823019,75.0,757.0,0.0
R,U,"[4, 10]",1.0,8.0,0.47527289390563965,1.7344110012054443,0.26122339812768136,75.0,758.0,0.0
B,L,"[4, 9]",1.0,9.0,0.872948169708252,2.3322219848632812,0.4766244309286007,75.0,759.0,0.0
R,U,"[3, 9]",1.0,10.0,0.26331305503845215,1.998169183731079,0.7409456325372282,75.0,760.0,0.0
,,"(6, 6)",,,,,,,,
R,U,"[5, 6]",1.0,1.0,0.3820610046386719,3.32715106010437,0.6349059959397456,76.0,761.0,0.0
Y,R,"[5, 7]",1.0,2.0,0.20099210739135742,1.8723020553588867,0.6738877532219842,76.0,762.0,0.0
Y,R,"[5, 8]",1.0,3.0,0.769711971282959,2.331183910369873,0.5718194059447645,76.0,763.0,0.0
G,D,"[6, 8]",1.0,4.0,0.26993298530578613,1.8500277996063232,0.5888523708248938,76.0,764.0,0.0
Y,R,"[6, 9]",1.0,5.0,0.4490799903869629,1.7921078205108643,0.3475002633225395,76.0,765.0,0.0
Y,R,"[6, 10]",1.0,6.0,0.3748500347137451,1.7293319702148438,0.34354996089373485,76.0,766.0,0.0
R,U,"[5, 10]",1.0,7.0,0.5042269229888916,2.2200019359588623,0.7297583586269224,76.0,767.0,0.0
R,U,"[4, 10]",1.0,8.0,0.3178567886352539,1.8265299797058105,0.5064339744862241,76.0,768.0,0.0
G,D,"[5, 10]",0.0,8.0,0.5361309051513672,2.08101487159729,0.5540830844265536,76.0,769.0,0.0
R,U,"[4, 10]",0.0,8.0,0.3148009777069092,1.7536768913269043,0.44108404942564844,76.0,770.0,0.0
,,"(6, 6)",,,,,,,,
R,U,"[5, 6]",1.0,1.0,0.6077699661254883,3.833371877670288,0.7411356135484093,77.0,771.0,0.0
Y,R,"[5, 7]",1.0,2.0,0.2597360610961914,1.6109919548034668,0.35212756455089395,77.0,772.0,0.0
Y,R,"[5, 8]",1.0,3.0,0.32073497772216797,1.735515832901001,0.4042893432665234,77.0,773.0,0.0
G,D,"[6, 8]",1.0,4.0,0.48841404914855957,2.0123279094696045,0.53318022636087,77.0,774.0,0.0
Y,R,"[6, 9]",1.0,5.0,0.24374794960021973,1.7433750629425049,0.49322085652856695,77.0,775.0,0.0
Y,R,"[6, 10]",1.0,6.0,0.7454349994659424,2.4307539463043213,0.6903899555014024,77.0,776.0,0.0
R,U,"[5, 10]",1.0,7.0,0.275022029876709,1.7967770099639893,0.5208023253677049,77.0,777.0,0.0
R,U,"[4, 10]",1.0,8.0,0.2980470657348633,1.922394037246704,0.6263483085585939,77.0,778.0,0.0
B,L,"[4, 9]",1.0,9.0,0.4234120845794678,1.6868610382080078,0.2635520051129836,77.0,779.0,0.0
R,U,"[3, 9]",1.0,10.0,0.3603019714355469,2.0747289657592773,0.7045412106943698,77.0,780.0,0.0
,,"(6, 6)",,,,,,,,
R,U,"[5, 6]",1.0,1.0,0.4703490734100342,3.284111976623535,0.7052493977411904,78.0,781.0,0.0
Y,R,"[5, 7]",1.0,2.0,0.20728802680969238,1.8513178825378418,0.6398673508192891,78.0,782.0,0.0
Y,R,"[5, 8]",1.0,3.0,0.24546003341674805,1.9042928218841553,0.6608062551631955,78.0,783.0,0.0
G,D,"[6, 8]",1.0,4.0,0.28928589820861816,1.6335089206695557,0.3445918313912022,78.0,784.0,0.0
Y,R,"[6, 9]",1.0,5.0,0.4559180736541748,1.78684401512146,0.3313977359595114,78.0,785.0,0.0
Y,R,"[6, 10]",1.0,6.0,0.3110640048980713,1.9392929077148438,0.6205040830227203,78.0,786.0,0.0
R,U,"[5, 10]",1.0,7.0,0.2795689105987549,1.8801898956298828,0.6006247686166787,78.0,787.0,0.0
R,U,"[4, 10]",1.0,8.0,0.2992069721221924,1.6331629753112793,0.3341038792090105,78.0,788.0,0.0
B,L,"[4, 9]",1.0,9.0,0.6518299579620361,2.034579038619995,0.38520160127082537,78.0,789.0,0.0
R,U,"[3, 9]",1.0,10.0,0.37049388885498047,2.0260608196258545,0.6613839371026161,78.0,790.0,0.0
,,"(6, 6)",,,,,,,,
R,U,"[5, 6]",1.0,1.0,0.4619450569152832,2.7039589881896973,0.4152428233580297,79.0,791.0,0.0
Y,R,"[5, 7]",1.0,2.0,0.3623058795928955,1.9358179569244385,0.5675401827466138,79.0,792.0,0.0
Y,R,"[5, 8]",1.0,3.0,0.23012804985046387,1.6556119918823242,0.4232514514638322,79.0,793.0,0.0
G,D,"[6, 8]",1.0,4.0,0.3918030261993408,2.1297290325164795,0.7361860970298508,79.0,794.0,0.0
Y,R,"[6, 9]",1.0,5.0,0.3288540840148926,1.8745808601379395,0.5441249221189892,79.0,795.0,0.0
Y,R,"[6, 10]",1.0,6.0,0.24181294441223145,1.5599329471588135,0.3207919877552676,79.0,796.0,0.0
R,U,"[5, 10]",1.0,7.0,0.26209020614624023,1.6122479438781738,0.3497391279761311,79.0,797.0,0.0
R,U,"[4, 10]",1.0,8.0,0.34044504165649414,1.7802870273590088,0.4466826483591881,79.0,798.0,0.0
B,L,"[4, 9]",1.0,9.0,0.31711387634277344,1.8257050514221191,0.505525927881562,79.0,799.0,0.0
R,U,"[3, 9]",1.0,10.0,0.2035689353942871,1.7746820449829102,0.5802102972956228,79.0,800.0,0.0
,,"(6, 6)",,,,,,,,
R,U,"[5, 6]",1.0,1.0,0.401170015335083,2.7940049171447754,0.4076977819906926,80.0,801.0,0.0
Y,R,"[5, 7]",1.0,2.0,0.22800683975219727,1.5010831356048584,0.27541993477531523,80.0,802.0,0.0
Y,R,"[5, 8]",1.0,3.0,0.2906339168548584,1.582988977432251,0.2918337546378387,80.0,803.0,0.0
G,D,"[6, 8]",1.0,4.0,0.26841115951538086,1.7764618396759033,0.5180082808549125,80.0,804.0,0.0
Y,R,"[6, 9]",1.0,5.0,0.25697898864746094,1.8146100044250488,0.5492675783990295,80.0,805.0,0.0
Y,R,"[6, 10]",1.0,6.0,0.33524084091186523,1.6699512004852295,0.3361346102549981,80.0,806.0,0.0
R,U,"[5, 10]",1.0,7.0,0.8646590709686279,2.1634268760681152,0.2994516350648709,80.0,807.0,0.0
R,U,"[4, 10]",1.0,8.0,0.5032370090484619,1.8722360134124756,0.3717422288821085,80.0,808.0,0.0
B,L,"[4, 9]",1.0,9.0,0.5356791019439697,2.15834903717041,0.629771773685156,80.0,809.0,0.0
R,U,"[3, 9]",1.0,10.0,0.27820587158203125,1.9669718742370605,0.6800336550508458,80.0,810.0,0.0
,,"(6, 6)",,,,,,,,
R,U,"[5, 6]",1.0,1.0,0.4731559753417969,3.8358349800109863,0.7157931710693488,81.0,811.0,0.0
Y,R,"[5, 7]",1.0,2.0,0.2305440902709961,1.5897130966186523,0.35571447659181304,81.0,812.0,0.0
Y,R,"[5, 8]",1.0,3.0,0.35712504386901855,1.6947529315948486,0.3339076623950284,81.0,813.0,0.0
G,D,"[6, 8]",1.0,4.0,0.2542550563812256,1.8391401767730713,0.5894661206760945,81.0,814.0,0.0
Y,R,"[6, 9]",1.0,5.0,0.28586411476135254,1.5554449558258057,0.27844516503593697,81.0,815.0,0.0
Y,R,"[6, 10]",1.0,6.0,0.3698549270629883,1.9120378494262695,0.5568587059410148,81.0,816.0,0.0
R,U,"[5, 10]",1.0,7.0,0.48412203788757324,2.172353982925415,0.6957660000334587,81.0,817.0,0.0
R,U,"[4, 10]",1.0,8.0,0.23607397079467773,1.8222339153289795,0.5847418291905165,81.0,818.0,0.0
B,L,"[4, 9]",1.0,9.0,0.40909290313720703,1.8433849811553955,0.42820786106611686,81.0,819.0,0.0
R,U,"[3, 9]",1.0,10.0,0.30378198623657227,1.8687388896942139,0.5802336132678133,81.0,820.0,0.0
,,"(6, 6)",,,,,,,,
R,U,"[5, 6]",1.0,1.0,0.5130100250244141,3.730241060256958,0.4272791564724992,82.0,821.0,0.0
Y,R,"[5, 7]",1.0,2.0,0.243927001953125,1.5292229652404785,0.2899721733576181,82.0,822.0,0.0
Y,R,"[5, 8]",1.0,3.0,0.3494710922241211,1.7001841068267822,0.3566792024071243,82.0,823.0,0.0
G,D,"[6, 8]",1.0,4.0,0.26043701171875,1.5116751194000244,0.25180419947026855,82.0,824.0,0.0
Y,R,"[6, 9]",1.0,5.0,0.3386518955230713,1.9624419212341309,0.6304247074618641,82.0,825.0,0.0
Y,R,"[6, 10]",1.0,6.0,0.25543904304504395,1.7072339057922363,0.45459642515799265,82.0,826.0,0.0
R,U,"[5, 10]",1.0,7.0,0.23015999794006348,1.96822190284729,0.7390948586226544,82.0,827.0,0.0
R,U,"[4, 10]",1.0,8.0,0.22537493705749512,1.7236168384552002,0.49627911147617876,82.0,828.0,0.0
B,L,"[4, 9]",1.0,9.0,0.3072671890258789,1.9256510734558105,0.6051990958274309,82.0,829.0,0.0
R,U,"[3, 9]",1.0,10.0,0.22937607765197754,1.9043240547180176,0.6760480139465258,82.0,830.0,0.0
,,"(6, 6)",,,,,,,,
R,U,"[5, 6]",1.0,1.0,0.3515629768371582,3.1698861122131348,0.3295071741283231,83.0,831.0,0.0
Y,R,"[5, 7]",1.0,2.0,0.264955997467041,1.8942551612854004,0.6237735044711303,83.0,832.0,0.0
Y,R,"[5, 8]",1.0,3.0,0.21072816848754883,1.9266860485076904,0.716724721524364,83.0,833.0,0.0
G,D,"[6, 8]",1.0,4.0,0.22226214408874512,1.7232470512390137,0.4902632434813526,83.0,834.0,0.0
Y,R,"[6, 9]",1.0,5.0,0.24958395957946777,1.6975560188293457,0.4546577535927047,83.0,835.0,0.0
Y,R,"[6, 10]",1.0,6.0,0.3267669677734375,1.9314098358154297,0.6023868290211305,83.0,836.0,0.0
R,U,"[5, 10]",1.0,7.0,0.26621198654174805,1.7737140655517578,0.5095499794826708,83.0,837.0,0.0
R,U,"[4, 10]",1.0,8.0,0.3225719928741455,1.657099962234497,0.3334054741440083,83.0,838.0,0.0
B,L,"[4, 9]",1.0,9.0,0.3358159065246582,1.826909065246582,0.49352790682239694,83.0,839.0,0.0
R,U,"[3, 9]",1.0,10.0,0.23418092727661133,1.6850650310516357,0.46199909053422067,83.0,840.0,0.0
,,"(6, 6)",,,,,,,,
R,U,"[5, 6]",1.0,1.0,0.38332104682922363,2.9932122230529785,0.47178179233349066,84.0,841.0,0.0
Y,R,"[5, 7]",1.0,2.0,0.20077800750732422,1.5571680068969727,0.36238762222255927,84.0,842.0,0.0
Y,R,"[5, 8]",1.0,3.0,0.3001899719238281,1.9841208457946777,0.6795241437934669,84.0,843.0,0.0
G,D,"[6, 8]",1.0,4.0,0.36530590057373047,2.020052909851074,0.6495810460612595,84.0,844.0,0.0
Y,R,"[6, 9]",1.0,5.0,0.3211081027984619,1.9374518394470215,0.6037028212987599,84.0,845.0,0.0
Y,R,"[6, 10]",1.0,6.0,0.26882314682006836,1.7609338760375977,0.49809482837701585,84.0,846.0,0.0
R,U,"[5, 10]",1.0,7.0,0.304110050201416,1.5894849300384521,0.2878076566168511,84.0,847.0,0.0
R,U,"[4, 10]",1.0,8.0,0.46006202697753906,2.0265839099884033,0.5640287919964238,84.0,848.0,0.0
G,D,"[5, 10]",0.0,8.0,0.27643704414367676,1.8646581172943115,0.5787227271446139,84.0,849.0,0.0
R,U,"[4, 10]",0.0,8.0,0.18995308876037598,1.7174608707427979,0.5128659054012699,84.0,850.0,0.0
,,"(6, 6)",,,,,,,,
R,U,"[5, 6]",1.0,1.0,0.4188098907470703,2.2178611755371094,0.464002722852362,85.0,851.0,0.0
Y,R,"[5, 7]",1.0,2.0,0.2794039249420166,1.9586060047149658,0.6727515279718996,85.0,852.0,0.0
Y,R,"[5, 8]",1.0,3.0,0.251323938369751,1.7726118564605713,0.5285200166278261,85.0,853.0,0.0
G,D,"[6, 8]",1.0,4.0,0.24429893493652344,1.6403889656066895,0.4023079937795318,85.0,854.0,0.0
Y,R,"[6, 9]",1.0,5.0,0.3199160099029541,1.5679409503936768,0.25371282725761485,85.0,855.0,0.0
Y,R,"[6, 10]",1.0,6.0,0.32214784622192383,1.9035420417785645,0.5902761958141145,85.0,856.0,0.0
R,U,"[5, 10]",1.0,7.0,0.24402594566345215,1.7525081634521484,0.5094823375576474,85.0,857.0,0.0
R,U,"[4, 10]",1.0,8.0,0.4129650592803955,2.048764944076538,0.6414961232465106,85.0,858.0,0.0
B,L,"[4, 9]",1.0,9.0,0.4210169315338135,1.672806978225708,0.26466935153528176,85.0,859.0,0.0
R,U,"[3, 9]",1.0,10.0,0.35058116912841797,1.6442680358886719,0.29223402936911824,85.0,860.0,0.0
,,"(6, 6)",,,,,,,,
R,U,"[5, 6]",1.0,1.0,0.3636209964752197,3.5705151557922363,0.6123781016951313,86.0,861.0,0.0
Y,R,"[5, 7]",1.0,2.0,0.22909212112426758,1.8928859233856201,0.6552455953521448,86.0,862.0,0.0
Y,R,"[5, 8]",1.0,3.0,0.2058260440826416,1.5859649181365967,0.3914237844917557,86.0,863.0,0.0
G,D,"[6, 8]",1.0,4.0,0.34365391731262207,1.6952199935913086,0.35337036878820405,86.0,864.0,0.0
Y,R,"[6, 9]",1.0,5.0,0.3171870708465576,1.6410679817199707,0.32772517682739316,86.0,865.0,0.0
Y,R,"[6, 10]",1.0,6.0,0.4570488929748535,1.7794311046600342,0.32387030863633476,86.0,866.0,0.0
R,U,"[5, 10]",1.0,7.0,0.6284658908843994,2.0903971195220947,0.4640642297296116,86.0,867.0,0.0
R,U,"[4, 10]",1.0,8.0,0.31468796730041504,1.7239770889282227,0.40473983219127707,86.0,868.0,0.0
B,L,"[4, 9]",1.0,9.0,0.42841482162475586,2.1184279918670654,0.6894550257718335,86.0,869.0,0.0
R,U,"[3, 9]",1.0,10.0,0.2911548614501953,1.636354923248291,0.34276284471268464,86.0,870.0,0.0
,,"(6, 6)",,,,,,,,
R,U,"[5, 6]",1.0,1.0,0.43476295471191406,3.403425931930542,0.6126148434084322,87.0,871.0,0.0
Y,R,"[5, 7]",1.0,2.0,0.19309091567993164,1.9040930271148682,0.7000437101866231,87.0,872.0,0.0
Y,R,"[5, 8]",1.0,3.0,0.3601870536804199,1.7115859985351562,0.3452403532933568,87.0,873.0,0.0
G,D,"[6, 8]",1.0,4.0,0.6967620849609375,2.391430139541626,0.7028768720511845,87.0,874.0,0.0
Y,R,"[6, 9]",1.0,5.0,0.286329984664917,1.6211121082305908,0.341026947510121,87.0,875.0,0.0
Y,R,"[6, 10]",1.0,6.0,0.5143811702728271,1.9283361434936523,0.419275170883001,87.0,876.0,0.0
R,U,"[5, 10]",1.0,7.0,0.25225210189819336,1.6486611366271973,0.4013981960017487,87.0,877.0,0.0
R,U,"[4, 10]",1.0,8.0,0.38918399810791016,1.7088310718536377,0.3269235932082419,87.0,878.0,0.0
B,L,"[4, 9]",1.0,9.0,0.39895081520080566,2.139547109603882,0.7494313174687124,87.0,879.0,0.0
R,U,"[3, 9]",1.0,10.0,0.25123095512390137,1.5471081733703613,0.29696513618589293,87.0,880.0,0.0
,,"(6, 6)",,,,,,,,
R,U,"[5, 6]",1.0,1.0,0.3537411689758301,3.083970069885254,0.2641892385166518,88.0,881.0,0.0
Y,R,"[5, 7]",1.0,2.0,0.2786729335784912,1.8118619918823242,0.5258059596047119,88.0,882.0,0.0
Y,R,"[5, 8]",1.0,3.0,0.3006479740142822,1.5431489944458008,0.2523893361479867,88.0,883.0,0.0
G,D,"[6, 8]",1.0,4.0,0.3375720977783203,1.6776201725006104,0.3467062818266427,88.0,884.0,0.0
Y,R,"[6, 9]",1.0,5.0,0.37835001945495605,1.7016489505767822,0.31504751089107436,88.0,885.0,0.0
Y,R,"[6, 10]",1.0,6.0,0.3133068084716797,1.874189853668213,0.5555838365101167,88.0,886.0,0.0
R,U,"[5, 10]",1.0,7.0,0.2945399284362793,1.916363000869751,0.6219792246913239,88.0,887.0,0.0
R,U,"[4, 10]",1.0,8.0,0.32093214988708496,1.9086368083953857,0.5972443098315324,88.0,888.0,0.0
B,L,"[4, 9]",1.0,9.0,0.25634312629699707,1.855475902557373,0.5863795619461082,88.0,889.0,0.0
R,U,"[3, 9]",-1.0,9.0,0.07516789436340332,5.5894458293914795,0.44220921609078967,88.0,890.0,0.0
,,"(6, 6)",,,,,,,,
R,U,"[5, 6]",1.0,1.0,0.4807579517364502,3.8923180103302,0.6680336739863415,89.0,891.0,0.0
Y,R,"[5, 7]",1.0,2.0,0.24689483642578125,1.9167418479919434,0.6676329090389064,89.0,892.0,0.0
Y,R,"[5, 8]",1.0,3.0,0.18015313148498535,1.5765600204467773,0.39452020019869766,89.0,893.0,0.0
G,D,"[6, 8]",1.0,4.0,0.22947001457214355,1.5767018795013428,0.3545454991589188,89.0,894.0,0.0
Y,R,"[6, 9]",1.0,5.0,0.25600194931030273,1.639158010482788,0.37703446592784645,89.0,895.0,0.0
Y,R,"[6, 10]",1.0,6.0,0.30176401138305664,1.9921131134033203,0.7021253579779789,89.0,896.0,0.0
R,U,"[5, 10]",1.0,7.0,0.24377894401550293,1.7496321201324463,0.5019307077711255,89.0,897.0,0.0
R,U,"[4, 10]",1.0,8.0,0.34790992736816406,1.6518311500549316,0.3039945943257916,89.0,898.0,0.0
B,L,"[4, 9]",1.0,9.0,0.5567989349365234,2.0333240032196045,0.4704050605237839,89.0,899.0,0.0
R,U,"[3, 9]",1.0,10.0,0.3883850574493408,2.0613369941711426,0.6647980366425135,89.0,900.0,0.0
,,"(6, 6)",,,,,,,,
R,U,"[5, 6]",1.0,1.0,0.4581420421600342,2.9600560665130615,0.4750884675011467,90.0,901.0,0.0
B,L,"[5, 5]",0.0,1.0,0.3956940174102783,1.700472116470337,0.30903754759280716,90.0,902.0,0.0
Y,R,"[5, 6]",0.0,1.0,0.430621862411499,2.039278984069824,0.6147179952681248,90.0,903.0,0.0
R,U,"[4, 6]",0.0,1.0,0.2998380661010742,2.016094923019409,0.7140132297227342,90.0,904.0,0.0
Y,R,"[4, 7]",0.0,1.0,0.4079318046569824,2.115164041519165,0.6957873912805141,90.0,905.0,0.0
G,D,"[5, 7]",1.0,2.0,0.31277990341186523,1.8016269207000732,0.4810124329358375,90.0,906.0,0.0
B,L,"[5, 6]",0.0,2.0,0.32195496559143066,1.9880120754241943,0.6520926992437234,90.0,907.0,0.0
Y,R,"[5, 7]",-2.0,2.0,1.215620994567871,2.886376142501831,0.7050197166800913,90.0,908.0,0.0
Y,R,"[5, 8]",1.0,3.0,0.2655951976776123,1.9166021347045898,0.6549771848735528,90.0,909.0,0.0
R,U,"[4, 8]",0.0,3.0,0.5583670139312744,2.105983018875122,0.5444019198823128,90.0,910.0,0.0
,,"(6, 6)",,,,,,,,
R,U,"[5, 6]",1.0,1.0,0.24611496925354004,3.3726999759674072,0.7336178225241196,91.0,911.0,0.0
Y,R,"[5, 7]",1.0,2.0,0.305433988571167,1.9934329986572266,0.6937269573422709,91.0,912.0,0.0
Y,R,"[5, 8]",1.0,3.0,0.43216705322265625,2.1676688194274902,0.7446820477602119,91.0,913.0,0.0
G,D,"[6, 8]",1.0,4.0,0.5214989185333252,1.8711068630218506,0.3495090996145853,91.0,914.0,0.0
Y,R,"[6, 9]",1.0,5.0,0.7021448612213135,1.9621810913085938,0.2616205447060407,91.0,915.0,0.0
Y,R,"[6, 10]",1.0,6.0,0.41615796089172363,2.152859926223755,0.7473611643258642,91.0,916.0,0.0
R,U,"[5, 10]",1.0,7.0,0.37346410751342773,1.7316169738769531,0.34614243631973446,91.0,917.0,0.0
R,U,"[4, 10]",1.0,8.0,0.3551499843597412,1.7672269344329834,0.4132679921917122,91.0,918.0,0.0
B,L,"[4, 9]",1.0,9.0,0.3304438591003418,1.7351179122924805,0.39835126666316745,91.0,919.0,0.0
R,U,"[3, 9]",1.0,10.0,0.34902000427246094,1.924314022064209,0.5725516724949189,91.0,920.0,0.0
,,"(6, 6)",,,,,,,,
R,U,"[5, 6]",1.0,1.0,0.4212210178375244,3.0545051097869873,0.6268632301343482,92.0,921.0,0.0
Y,R,"[5, 7]",1.0,2.0,0.32239317893981934,1.6308128833770752,0.30799765866601203,92.0,922.0,0.0
Y,R,"[5, 8]",1.0,3.0,0.4780879020690918,2.0482900142669678,0.572641210974997,92.0,923.0,0.0
G,D,"[6, 8]",1.0,4.0,0.39206695556640625,1.671226978302002,0.27750812851990736,92.0,924.0,0.0
Y,R,"[6, 9]",1.0,5.0,0.3420579433441162,1.8628289699554443,0.5400596116326757,92.0,925.0,0.0
Y,R,"[6, 10]",1.0,6.0,0.46070289611816406,1.9633491039276123,0.5033726134727873,92.0,926.0,0.0
R,U,"[5, 10]",1.0,7.0,0.3180677890777588,1.9220221042633057,0.6087416108541448,92.0,927.0,0.0
R,U,"[4, 10]",1.0,8.0,0.4003779888153076,1.937196969985962,0.5458053998566232,92.0,928.0,0.0
B,L,"[4, 9]",1.0,9.0,0.2732682228088379,1.666774034500122,0.37951046081304074,92.0,929.0,0.0
R,U,"[3, 9]",1.0,10.0,0.4605739116668701,1.7787439823150635,0.30835319814424406,92.0,930.0,0.0
,,"(6, 6)",,,,,,,,
R,U,"[5, 6]",1.0,1.0,0.5190510749816895,3.6472630500793457,0.4723233037302837,93.0,931.0,0.0
Y,R,"[5, 7]",1.0,2.0,0.34795188903808594,1.9394328594207764,0.5946885455294831,93.0,932.0,0.0
Y,R,"[5, 8]",1.0,3.0,0.41451406478881836,1.7182259559631348,0.3131455761786505,93.0,933.0,0.0
G,D,"[6, 8]",1.0,4.0,0.39226293563842773,1.8128669261932373,0.40927477489206515,93.0,934.0,0.0
Y,R,"[6, 9]",1.0,5.0,0.2902548313140869,2.0216269493103027,0.7304868585590303,93.0,935.0,0.0
Y,R,"[6, 10]",1.0,6.0,0.3698899745941162,1.8483221530914307,0.4793478267544909,93.0,936.0,0.0
R,U,"[5, 10]",1.0,7.0,0.3579080104827881,1.9109199047088623,0.5398991822596786,93.0,937.0,0.0
R,U,"[4, 10]",1.0,8.0,0.22686386108398438,1.6692099571228027,0.44259775568287013,93.0,938.0,0.0
B,L,"[4, 9]",1.0,9.0,0.3223989009857178,1.6715888977050781,0.34747977288214804,93.0,939.0,0.0
R,U,"[3, 9]",1.0,10.0,0.2643129825592041,1.6885838508605957,0.41934638100052524,93.0,940.0,0.0
,,"(6, 6)",,,,,,,,
R,U,"[5, 6]",1.0,1.0,0.3909759521484375,3.4402949810028076,0.642799783656689,94.0,941.0,0.0
Y,R,"[5, 7]",1.0,2.0,0.24635601043701172,1.777130126953125,0.536658226201016,94.0,942.0,0.0
Y,R,"[5, 8]",1.0,3.0,0.3779299259185791,2.0484700202941895,0.6682673415776665,94.0,943.0,0.0
G,D,"[6, 8]",1.0,4.0,0.29477715492248535,1.5972018241882324,0.29918650330989816,94.0,944.0,0.0
Y,R,"[6, 9]",1.0,5.0,0.5087969303131104,2.2195029258728027,0.7016455589303475,94.0,945.0,0.0
Y,R,"[6, 10]",1.0,6.0,0.3244609832763672,1.9727799892425537,0.6410260430603554,94.0,946.0,0.0
R,U,"[5, 10]",1.0,7.0,0.5063920021057129,2.1020119190216064,0.6098709564525322,94.0,947.0,0.0
R,U,"[4, 10]",1.0,8.0,0.5783259868621826,2.056256055831909,0.48283581752817534,94.0,948.0,0.0
R,U,"[3, 10]",0.0,8.0,0.7427690029144287,2.34199595451355,0.5913005192073733,94.0,949.0,0.0
R,U,"[2, 10]",0.0,8.0,0.20934700965881348,1.4886589050292969,0.28020785534101156,94.0,950.0,0.0
,,"(6, 6)",,,,,,,,
R,U,"[5, 6]",1.0,1.0,0.4486989974975586,2.3867931365966797,0.40027662841006423,95.0,951.0,0.0
Y,R,"[5, 7]",1.0,2.0,0.2950019836425781,1.6942460536956787,0.394568178703558,95.0,952.0,0.0
Y,R,"[5, 8]",1.0,3.0,0.4696018695831299,1.8826518058776855,0.4271590847508538,95.0,953.0,0.0
G,D,"[6, 8]",1.0,4.0,0.3323180675506592,1.8596909046173096,0.5367149052723836,95.0,954.0,0.0
Y,R,"[6, 9]",1.0,5.0,0.3138561248779297,2.0478360652923584,0.7343404478814088,95.0,955.0,0.0
Y,R,"[6, 10]",1.0,6.0,0.2656099796295166,1.8044519424438477,0.5388906874217025,95.0,956.0,0.0
R,U,"[5, 10]",1.0,7.0,0.4095921516418457,1.980767011642456,0.5696890475732336,95.0,957.0,0.0
R,U,"[4, 10]",1.0,8.0,0.33931994438171387,1.5974740982055664,0.25070022166500794,95.0,958.0,0.0
B,L,"[4, 9]",1.0,9.0,0.599323034286499,2.324270009994507,0.7246253910031295,95.0,959.0,0.0
R,U,"[3, 9]",1.0,10.0,0.40553998947143555,2.0119829177856445,0.6198633815868122,95.0,960.0,0.0
,,"(6, 6)",,,,,,,,
R,U,"[5, 6]",1.0,1.0,0.37073302268981934,2.7271242141723633,0.3973114501717473,96.0,961.0,0.0
Y,R,"[5, 7]",1.0,2.0,0.2805159091949463,1.9927430152893066,0.7062540767363144,96.0,962.0,0.0
Y,R,"[5, 8]",1.0,3.0,0.2811708450317383,1.7003250122070312,0.42371393117374007,96.0,963.0,0.0
G,D,"[6, 8]",1.0,4.0,0.3813488483428955,1.723280906677246,0.34693195551281075,96.0,964.0,0.0
Y,R,"[6, 9]",1.0,5.0,0.4278371334075928,2.043461799621582,0.606814988266331,96.0,965.0,0.0
Y,R,"[6, 10]",1.0,6.0,0.34365391731262207,1.6950960159301758,0.35216251097865914,96.0,966.0,0.0
R,U,"[5, 10]",1.0,7.0,0.4864652156829834,2.0459771156311035,0.5645876102181066,96.0,967.0,0.0
R,U,"[4, 10]",1.0,8.0,0.28447699546813965,1.7875730991363525,0.5022002976179762,96.0,968.0,0.0
B,L,"[4, 9]",1.0,9.0,0.2981140613555908,1.8250219821929932,0.5271116388652775,96.0,969.0,0.0
R,U,"[3, 9]",1.0,10.0,0.23383092880249023,1.857882022857666,0.6353019627236657,96.0,970.0,0.0
,,"(6, 6)",,,,,,,,
R,U,"[5, 6]",1.0,1.0,0.4493591785430908,2.694567918777466,0.4630109454415112,97.0,971.0,0.0
Y,R,"[5, 7]",1.0,2.0,0.29874110221862793,1.642632007598877,0.3390900242035428,97.0,972.0,0.0
Y,R,"[5, 8]",1.0,3.0,0.32236695289611816,1.761242151260376,0.4335149812267842,97.0,973.0,0.0
G,D,"[6, 8]",1.0,4.0,0.38471388816833496,1.8041749000549316,0.4209782728153505,97.0,974.0,0.0
Y,R,"[6, 9]",1.0,5.0,0.25675296783447266,1.7244110107421875,0.4620523974336837,97.0,975.0,0.0
Y,R,"[6, 10]",1.0,6.0,0.2723679542541504,1.9482390880584717,0.6767741331770007,97.0,976.0,0.0
R,U,"[5, 10]",1.0,7.0,0.41800379753112793,2.0678460597991943,0.6616838167479088,97.0,977.0,0.0
R,U,"[4, 10]",1.0,8.0,0.33827900886535645,1.6969451904296875,0.35836753415078537,97.0,978.0,0.0
B,L,"[4, 9]",1.0,9.0,0.6642849445343018,1.9592740535736084,0.30108117022872516,97.0,979.0,0.0
R,U,"[3, 9]",1.0,10.0,0.5066239833831787,2.2224228382110596,0.7066612284909024,97.0,980.0,0.0
,,"(6, 6)",,,,,,,,
R,U,"[5, 6]",-1.0,0.0,0.09541201591491699,7.001358985900879,0.3247309134469402,98.0,981.0,0.0
Y,R,"[5, 7]",1.0,1.0,0.242919921875,1.5463261604309082,0.3044368692719746,98.0,982.0,0.0
Y,R,"[5, 8]",1.0,2.0,0.7650489807128906,2.0596749782562256,0.29740239212918546,98.0,983.0,0.0
G,D,"[6, 8]",1.0,3.0,0.44830799102783203,2.138946056365967,0.6860730110097131,98.0,984.0,0.0
Y,R,"[6, 9]",1.0,4.0,0.17691493034362793,1.8973419666290283,0.7164906611996866,98.0,985.0,0.0
Y,R,"[6, 10]",1.0,5.0,0.2640209197998047,1.8776369094848633,0.6109414599961047,98.0,986.0,0.0
R,U,"[5, 10]",1.0,6.0,0.34917688369750977,1.976067066192627,0.6370141905868609,98.0,987.0,0.0
R,U,"[4, 10]",1.0,7.0,0.2648580074310303,1.594764232635498,0.3320831778432742,98.0,988.0,0.0
B,L,"[4, 9]",1.0,8.0,0.4828300476074219,1.9791369438171387,0.4943571366130708,98.0,989.0,0.0
R,U,"[3, 9]",1.0,9.0,0.27620506286621094,1.8143489360809326,0.5420303556804571,98.0,990.0,0.0
,,"(6, 6)",,,,,,,,
R,U,"[5, 6]",1.0,1.0,0.4193568229675293,3.540719985961914,0.7491585875325852,99.0,991.0,0.0
Y,R,"[5, 7]",1.0,2.0,0.2554619312286377,1.8327398300170898,0.5653431360660852,99.0,992.0,0.0
Y,R,"[5, 8]",1.0,3.0,0.3150911331176758,1.8711488246917725,0.5532039600099938,99.0,993.0,0.0
G,D,"[6, 8]",1.0,4.0,0.28236913681030273,2.0033018589019775,0.7229988539413003,99.0,994.0,0.0
Y,R,"[6, 9]",1.0,5.0,0.25021791458129883,1.5728099346160889,0.3295721865418865,99.0,995.0,0.0
Y,R,"[6, 10]",1.0,6.0,0.3099861145019531,1.9860289096832275,0.6650688602985444,99.0,996.0,0.0
R,U,"[5, 10]",1.0,7.0,0.22272491455078125,1.4981930255889893,0.263757308174659,99.0,997.0,0.0
R,U,"[4, 10]",1.0,8.0,0.47469496726989746,2.2223758697509766,0.7357068736752772,99.0,998.0,0.0
B,L,"[4, 9]",1.0,9.0,0.28601503372192383,1.7242820262908936,0.4434320808223235,99.0,999.0,0.0
R,U,"[3, 9]",1.0,10.0,0.3402869701385498,2.028114080429077,0.6880757316316448,99.0,1000.0,0.0
