button_choice,action_choice,coordinate_choice,reward,cumulative_reward,rt,total_trial_time,iti,block_n,trial_n,trial_type
G,D,"[7, 6]",0.0,0.0,0.8020508289337158,2.308774948120117,0.4762276421790409,0.0,1.0,0.0
B,L,"[7, 5]",0.0,0.0,0.5571939945220947,2.2921409606933594,0.7353066844063343,0.0,2.0,0.0
B,L,"[7, 4]",0.0,0.0,0.21539616584777832,1.8268258571624756,0.6117768617435195,0.0,3.0,0.0
G,D,"[8, 4]",0.0,0.0,0.45736098289489746,1.927833080291748,0.47295162852949413,0.0,4.0,0.0
Y,R,"[8, 5]",0.0,0.0,0.2261199951171875,1.8993279933929443,0.6721909329820699,0.0,5.0,0.0
R,U,"[7, 5]",-1.0,0.0,0.08824896812438965,5.667885780334473,0.5067092260029347,0.0,6.0,0.0
R,U,"[6, 5]",0.0,0.0,0.16552281379699707,1.5687620639801025,0.4089600979834594,0.0,7.0,0.0
G,D,"[7, 5]",0.0,0.0,0.33576393127441406,1.9340500831604004,0.6094064783653566,0.0,8.0,0.0
B,L,"[7, 4]",0.0,0.0,0.3009459972381592,1.960226058959961,0.6699967716402899,0.0,9.0,0.0
G,D,"[8, 4]",0.0,0.0,0.18993616104125977,1.9299860000610352,0.7327277128226923,0.0,10.0,0.0
,,"(6, 6)",,,,,,,,
Y,R,"[6, 7]",0.0,0.0,0.5752720832824707,3.7431259155273438,0.542623285959386,1.0,11.0,0.0
B,L,"[6, 6]",0.0,0.0,0.2140350341796875,1.5766160488128662,0.3693731440639855,1.0,12.0,0.0
Y,R,"[6, 7]",0.0,0.0,0.22164297103881836,1.6261048316955566,0.4120608624020601,1.0,13.0,0.0
B,L,"[6, 6]",0.0,0.0,0.22056007385253906,1.5928080081939697,0.37151875091162817,1.0,14.0,0.0
G,D,"[7, 6]",0.0,0.0,0.2321779727935791,1.9575600624084473,0.7285774234385336,1.0,15.0,0.0
R,U,"[6, 6]",0.0,0.0,0.15131497383117676,1.9036121368408203,0.7488769867630235,1.0,16.0,0.0
R,U,"[5, 6]",-1.0,0.0,0.06644201278686523,5.562729120254517,0.4283885552799209,1.0,17.0,0.0
R,U,"[4, 6]",0.0,0.0,0.23246002197265625,1.9496240615844727,0.7276322015870009,1.0,18.0,0.0
G,D,"[5, 6]",0.0,0.0,0.21543097496032715,1.6298210620880127,0.4243610547547929,1.0,19.0,0.0
B,L,"[5, 5]",0.0,0.0,0.2679860591888428,1.6603498458862305,0.40135976630194437,1.0,20.0,0.0
,,"(6, 6)",,,,,,,,
Y,R,"[6, 7]",0.0,0.0,0.40380406379699707,3.6679348945617676,0.5023388263029462,2.0,21.0,0.0
Y,R,"[6, 8]",1.0,1.0,0.1965470314025879,1.6246428489685059,0.426930792674395,2.0,22.0,0.0
B,L,"[6, 7]",0.0,1.0,0.18003511428833008,1.8831629753112793,0.7098366387839339,2.0,23.0,0.0
G,D,"[7, 7]",0.0,1.0,0.3010580539703369,2.0107150077819824,0.7204105227702373,2.0,24.0,0.0
R,U,"[6, 7]",0.0,1.0,0.24400806427001953,1.6503798961639404,0.4043613057747309,2.0,25.0,0.0
R,U,"[5, 7]",1.0,2.0,0.24579191207885742,1.5715408325195312,0.325855726686987,2.0,26.0,0.0
G,D,"[6, 7]",0.0,2.0,0.35217881202697754,1.8082809448242188,0.4673724858845578,2.0,27.0,0.0
B,L,"[6, 6]",0.0,2.0,0.10145187377929688,1.7118990421295166,0.6123479827148057,2.0,28.0,0.0
Y,R,"[6, 7]",0.0,2.0,0.18176984786987305,1.6180529594421387,0.43061254835317764,2.0,29.0,0.0
B,L,"[6, 6]",-2.0,2.0,1.5733091831207275,2.9995009899139404,0.4463724294737646,2.0,30.0,0.0
,,"(6, 6)",,,,,,,,
B,L,"[6, 5]",0.0,0.0,0.5977470874786377,3.3673510551452637,0.4636620461228816,3.0,31.0,0.0
B,L,"[6, 4]",0.0,0.0,0.3063831329345703,1.8203849792480469,0.5005043290943895,3.0,32.0,0.0
B,L,"[6, 3]",-2.0,0.0,1.197782039642334,2.9129998683929443,0.746458492700697,3.0,33.0,0.0
B,L,"[6, 2]",-2.0,0.0,1.0981109142303467,2.3268518447875977,0.2569624230801079,3.0,34.0,0.0
B,L,"[6, 1]",0.0,0.0,0.5283651351928711,1.9160330295562744,0.3895287265853748,3.0,35.0,0.0
B,L,"[6, 2]",-3.0,0.0,0.5517151355743408,2.157032012939453,0.6127954716139636,3.0,36.0,0.0
G,D,"[7, 2]",0.0,0.0,0.21707510948181152,1.5476560592651367,0.32739070086180944,3.0,37.0,0.0
G,D,"[8, 2]",0.0,0.0,0.749657154083252,2.4709298610687256,0.7313178700528189,3.0,38.0,0.0
B,L,"[8, 1]",0.0,0.0,0.10082697868347168,1.57924485206604,0.47720938629209475,3.0,39.0,0.0
Y,R,"[8, 2]",0.0,0.0,0.2505760192871094,1.6085150241851807,0.36903562958938085,3.0,40.0,0.0
,,"(6, 6)",,,,,,,,
R,U,"[5, 6]",1.0,1.0,0.8256590366363525,3.6097400188446045,0.6615603326225779,4.0,41.0,0.0
R,U,"[4, 6]",0.0,1.0,0.22474122047424316,1.561316967010498,0.3398190381073616,4.0,42.0,0.0
R,U,"[3, 6]",-2.0,1.0,1.4173600673675537,2.91353702545166,0.5362500849687762,4.0,43.0,0.0
R,U,"[2, 6]",-2.0,1.0,1.50089693069458,2.895650863647461,0.43196034884120815,4.0,44.0,0.0
R,U,"[1, 6]",0.0,1.0,0.23353195190429688,1.5959670543670654,0.3611815973439923,4.0,45.0,0.0
Y,R,"[1, 7]",0.0,1.0,0.37336182594299316,2.04433012008667,0.6884728900271014,4.0,46.0,0.0
Y,R,"[1, 8]",0.0,1.0,0.39521288871765137,1.6713991165161133,0.27666079118640885,4.0,47.0,0.0
Y,R,"[1, 9]",0.0,1.0,0.4415459632873535,2.094162940979004,0.653784057226988,4.0,48.0,0.0
Y,R,"[1, 10]",0.0,1.0,0.27580690383911133,1.9779598712921143,0.6981732792345865,4.0,49.0,0.0
Y,R,"[1, 11]",0.0,1.0,0.22919797897338867,1.858388900756836,0.623226696853011,4.0,50.0,0.0
,,"(6, 6)",,,,,,,,
R,U,"[5, 6]",1.0,1.0,0.7124221324920654,16.77900195121765,0.251477056558332,5.0,51.0,0.0
Y,R,"[5, 7]",1.0,2.0,0.3096489906311035,1.7884020805358887,0.47277457531072886,5.0,52.0,0.0
Y,R,"[5, 8]",1.0,3.0,0.19063186645507812,1.8416509628295898,0.6475314398853534,5.0,53.0,0.0
Y,R,"[5, 9]",0.0,3.0,0.18634295463562012,1.5072579383850098,0.32159134221490154,5.0,54.0,0.0
R,U,"[4, 9]",1.0,4.0,0.4971480369567871,2.1771481037139893,0.6815289926762034,5.0,55.0,0.0
R,U,"[3, 9]",1.0,5.0,0.3361051082611084,1.623176097869873,0.2883976116792269,5.0,56.0,0.0
Y,R,"[3, 10]",0.0,5.0,0.5754392147064209,2.3089020252227783,0.7300460207623017,5.0,57.0,0.0
R,U,"[2, 10]",0.0,5.0,0.3937990665435791,1.805891990661621,0.40277095159126086,5.0,58.0,0.0
Y,R,"[2, 11]",0.0,5.0,0.42059898376464844,1.866697072982788,0.4526116024154311,5.0,59.0,0.0
Y,R,"[2, 10]",-3.0,5.0,0.5599370002746582,2.3007359504699707,0.736278756369761,5.0,60.0,0.0
,,"(6, 6)",,,,,,,,
R,U,"[5, 6]",1.0,1.0,0.9863948822021484,4.15310001373291,0.7392818753355641,6.0,61.0,0.0
Y,R,"[5, 7]",-1.0,1.0,0.07393407821655273,5.63839316368103,0.49379746934115654,6.0,62.0,0.0
Y,R,"[5, 8]",1.0,2.0,0.20766615867614746,1.5762810707092285,0.37007427942766863,6.0,63.0,0.0
Y,R,"[5, 9]",0.0,2.0,0.35724306106567383,2.0248420238494873,0.6779100507702931,6.0,64.0,0.0
R,U,"[4, 9]",1.0,3.0,0.23845410346984863,1.68259596824646,0.460504642587194,6.0,65.0,0.0
R,U,"[3, 9]",1.0,4.0,0.3391280174255371,1.9316070079803467,0.591799851928252,6.0,66.0,0.0
Y,R,"[3, 10]",0.0,4.0,0.4757969379425049,2.2062759399414062,0.7311907733775246,6.0,67.0,0.0
R,U,"[2, 10]",0.0,4.0,0.44713616371154785,2.09916615486145,0.6469029933646202,6.0,68.0,0.0
G,D,"[3, 10]",0.0,4.0,0.20509099960327148,1.6721351146697998,0.4524907047049534,6.0,69.0,0.0
B,L,"[3, 9]",0.0,4.0,0.22936201095581055,1.5823171138763428,0.35141232098891173,6.0,70.0,0.0
,,"(6, 6)",,,,,,,,
G,D,"[7, 6]",-2.0,0.0,1.2663249969482422,4.185606002807617,0.4199009843220174,7.0,71.0,0.0
G,D,"[8, 6]",0.0,0.0,0.34082508087158203,1.921642780303955,0.5745380604092819,7.0,72.0,0.0
B,L,"[8, 5]",0.0,0.0,0.4260141849517822,2.077660083770752,0.6519520639336007,7.0,73.0,0.0
R,U,"[7, 5]",0.0,0.0,0.15473008155822754,1.683995008468628,0.5359983302093285,7.0,74.0,0.0
Y,R,"[7, 6]",0.0,0.0,0.4774301052093506,1.7529551982879639,0.272423057013009,7.0,75.0,0.0
Y,R,"[7, 7]",0.0,0.0,0.22028493881225586,1.9523320198059082,0.7408186359982456,7.0,76.0,0.0
R,U,"[6, 7]",0.0,0.0,0.26633286476135254,1.518157958984375,0.2593023186786638,7.0,77.0,0.0
G,D,"[7, 7]",0.0,0.0,0.4467132091522217,2.145303964614868,0.7039522345387166,7.0,78.0,0.0
B,L,"[7, 6]",0.0,0.0,0.3309440612792969,1.8176660537719727,0.4883755454863044,7.0,79.0,0.0
B,L,"[7, 5]",0.0,0.0,0.2979159355163574,1.7315599918365479,0.4364747089242697,7.0,80.0,0.0
,,"(6, 6)",,,,,,,,
G,D,"[7, 6]",0.0,0.0,0.8909158706665039,3.546656847000122,0.4661435390757281,8.0,81.0,0.0
R,U,"[6, 6]",0.0,0.0,0.2498610019683838,1.916956901550293,0.6660639268525106,8.0,82.0,0.0
Y,R,"[6, 7]",0.0,0.0,0.5304839611053467,2.243520975112915,0.7093135638232896,8.0,83.0,0.0
B,L,"[6, 6]",0.0,0.0,0.22346711158752441,1.833449125289917,0.6093232819100397,8.0,84.0,0.0
G,D,"[7, 6]",0.0,0.0,0.2392258644104004,1.6989071369171143,0.4582754374597219,8.0,85.0,0.0
Y,R,"[7, 7]",0.0,0.0,0.26418590545654297,1.9477429389953613,0.6890285333008126,8.0,86.0,0.0
R,U,"[6, 7]",0.0,0.0,0.23018312454223633,1.5742850303649902,0.3468065139108912,8.0,87.0,0.0
G,D,"[7, 7]",0.0,0.0,0.38879990577697754,1.988981008529663,0.602092641236945,8.0,88.0,0.0
R,U,"[6, 7]",0.0,0.0,0.23456096649169922,1.5911040306091309,0.3599808346474037,8.0,89.0,0.0
Y,R,"[6, 8]",1.0,1.0,0.6092090606689453,2.133798122406006,0.52669580748239,8.0,90.0,0.0
,,"(6, 6)",,,,,,,,
B,L,"[6, 5]",0.0,0.0,0.5343539714813232,3.3995370864868164,0.409362798232744,9.0,91.0,0.0
Y,R,"[6, 6]",0.0,0.0,0.3528599739074707,1.8787789344787598,0.5378788728549934,9.0,92.0,0.0
Y,R,"[6, 7]",0.0,0.0,0.425137996673584,2.1236560344696045,0.6944762014770277,9.0,93.0,0.0
R,U,"[5, 7]",-1.0,0.0,0.09275293350219727,5.789098024368286,0.6331151804987125,9.0,94.0,0.0
R,U,"[4, 7]",0.0,0.0,0.33965611457824707,1.9556729793548584,0.6220195275891127,9.0,95.0,0.0
R,U,"[3, 7]",0.0,0.0,0.45371198654174805,1.7007861137390137,0.2562095189632887,9.0,96.0,0.0
G,D,"[4, 7]",0.0,0.0,0.38776302337646484,1.692168951034546,0.3149337684693332,9.0,97.0,0.0
G,D,"[5, 7]",0.0,0.0,0.22763299942016602,1.6212167739868164,0.3859113954956797,9.0,98.0,0.0
R,U,"[4, 7]",0.0,0.0,0.2900419235229492,1.606450080871582,0.3089676823575999,9.0,99.0,0.0
B,L,"[4, 6]",0.0,0.0,0.8760440349578857,2.3316071033477783,0.45682874828003617,9.0,100.0,0.0
,,"(6, 6)",,,,,,,,
R,U,"[5, 6]",1.0,1.0,0.7008810043334961,10.913908958435059,0.6195429191315986,10.0,101.0,0.0
G,D,"[6, 6]",0.0,1.0,0.1708528995513916,1.8938188552856445,0.7297894866837569,10.0,102.0,0.0
B,L,"[6, 5]",0.0,1.0,0.2558250427246094,1.6571898460388184,0.38721781848862935,10.0,103.0,0.0
Y,R,"[6, 6]",0.0,1.0,0.2899320125579834,1.6063289642333984,0.3100928377635952,10.0,104.0,0.0
Y,R,"[6, 7]",0.0,1.0,0.43683600425720215,2.0702788829803467,0.6465807871942595,10.0,105.0,0.0
R,U,"[5, 7]",1.0,2.0,0.3394908905029297,1.92103910446167,0.5673957917678679,10.0,106.0,0.0
R,U,"[4, 7]",0.0,2.0,0.35291099548339844,1.8151540756225586,0.46587402824680924,10.0,107.0,0.0
G,D,"[5, 7]",0.0,2.0,0.20317292213439941,1.6463911533355713,0.44550501722291663,10.0,108.0,0.0
B,L,"[5, 6]",-1.0,2.0,0.08719396591186523,5.824688196182251,0.6694349355253525,10.0,109.0,0.0
B,L,"[5, 5]",0.0,2.0,0.2814371585845947,1.882443904876709,0.6017320926249363,10.0,110.0,0.0
,,"(6, 6)",,,,,,,,
G,D,"[7, 6]",0.0,0.0,0.5918679237365723,3.9767489433288574,0.32826139883582656,11.0,111.0,0.0
B,L,"[7, 5]",0.0,0.0,0.45734381675720215,1.775217056274414,0.3201292819856691,11.0,112.0,0.0
B,L,"[7, 4]",0.0,0.0,0.573145866394043,1.8422060012817383,0.26224358997932795,11.0,113.0,0.0
B,L,"[7, 3]",0.0,0.0,0.3663339614868164,1.8515260219573975,0.49666980925567206,11.0,114.0,0.0
B,L,"[7, 2]",0.0,0.0,0.2690749168395996,1.948512077331543,0.678649200709194,11.0,115.0,0.0
B,L,"[7, 1]",0.0,0.0,0.24337196350097656,1.645374059677124,0.4068949685496024,11.0,116.0,0.0
B,L,"[7, 2]",-3.0,0.0,0.2446129322052002,1.6766448020935059,0.4334363923251538,11.0,117.0,0.0
B,L,"[7, 1]",0.0,0.0,0.2973358631134033,1.6852080821990967,0.38520937142920075,11.0,118.0,0.0
B,L,"[7, 2]",-3.0,0.0,0.35018396377563477,1.6927120685577393,0.34459843181602895,11.0,119.0,0.0
B,L,"[7, 1]",0.0,0.0,0.3296170234680176,2.054666042327881,0.7319020061799165,11.0,120.0,0.0
,,"(6, 6)",,,,,,,,
G,D,"[7, 6]",-2.0,0.0,1.0856361389160156,3.9188458919525146,0.43391637529457766,12.0,121.0,0.0
G,D,"[8, 6]",0.0,0.0,0.36454105377197266,2.002756118774414,0.6365089275521034,12.0,122.0,0.0
G,D,"[9, 6]",0.0,0.0,0.2102358341217041,1.7904400825500488,0.5766613159944937,12.0,123.0,0.0
G,D,"[10, 6]",0.0,0.0,0.30788612365722656,1.911837100982666,0.6049427084146702,12.0,124.0,0.0
G,D,"[11, 6]",0.0,0.0,0.14818692207336426,1.5147068500518799,0.36967601389021726,12.0,125.0,0.0
G,D,"[10, 6]",-3.0,0.0,0.2705521583557129,1.5719518661499023,0.30817457544327986,12.0,126.0,0.0
G,D,"[11, 6]",0.0,0.0,0.39083194732666016,2.1393179893493652,0.7469579852540507,12.0,127.0,0.0
G,D,"[10, 6]",-3.0,0.0,0.2187950611114502,1.8775291442871094,0.6576248739766014,12.0,128.0,0.0
G,D,"[11, 6]",-1.0,0.0,0.08203697204589844,5.4901039600372314,0.34754264468176077,12.0,129.0,0.0
G,D,"[10, 6]",-3.0,0.0,0.24313592910766602,1.6779310703277588,0.42516691799484074,12.0,130.0,0.0
,,"(6, 6)",,,,,,,,
Y,R,"[6, 7]",0.0,0.0,0.48040103912353516,3.8700509071350098,0.6780581605344309,13.0,131.0,0.0
Y,R,"[6, 8]",1.0,1.0,0.24082088470458984,1.9071788787841797,0.6683681993246524,13.0,132.0,0.0
Y,R,"[6, 9]",1.0,2.0,0.4011728763580322,1.8659849166870117,0.4676396437864413,13.0,133.0,0.0
R,U,"[5, 9]",0.0,2.0,0.3764917850494385,1.656646966934204,0.27427147733419255,13.0,134.0,0.0
Y,R,"[5, 10]",1.0,3.0,0.20939111709594727,1.8441190719604492,0.6345377375903419,13.0,135.0,0.0
Y,R,"[5, 11]",0.0,3.0,0.2575531005859375,1.7659611701965332,0.500545392919183,13.0,136.0,0.0
Y,R,"[5, 10]",-3.0,3.0,0.2466411590576172,1.5090129375457764,0.2595640878123909,13.0,137.0,0.0
R,U,"[4, 10]",1.0,4.0,0.2857038974761963,1.877471923828125,0.6031383403085655,13.0,138.0,0.0
R,U,"[3, 10]",0.0,4.0,0.25159192085266113,1.8281819820404053,0.5812092214541125,13.0,139.0,0.0
Y,R,"[3, 11]",0.0,4.0,0.2599940299987793,1.5232810974121094,0.254626856473882,13.0,140.0,0.0
,,"(6, 6)",,,,,,,,
R,U,"[5, 6]",1.0,1.0,0.38079285621643066,3.5389649868011475,0.7095519448787524,14.0,141.0,0.0
Y,R,"[5, 7]",1.0,2.0,0.20795893669128418,1.6526038646697998,0.44554581122271875,14.0,142.0,0.0
Y,R,"[5, 8]",1.0,3.0,0.23227405548095703,1.6020278930664062,0.3643513652708227,14.0,143.0,0.0
Y,R,"[5, 9]",0.0,3.0,0.24133086204528809,1.643479824066162,0.3907883145543819,14.0,144.0,0.0
Y,R,"[5, 10]",1.0,4.0,0.2849130630493164,1.927314043045044,0.6510463775768889,14.0,145.0,0.0
R,U,"[4, 10]",1.0,5.0,0.181563138961792,1.6453850269317627,0.4630888924270804,14.0,146.0,0.0
Y,R,"[4, 11]",0.0,5.0,0.21727991104125977,1.5608229637145996,0.34044954082757384,14.0,147.0,0.0
R,U,"[3, 11]",0.0,5.0,0.1635291576385498,1.6099419593811035,0.4501263711639853,14.0,148.0,0.0
G,D,"[4, 11]",0.0,5.0,0.19385790824890137,1.865790843963623,0.665571264719171,14.0,149.0,0.0
R,U,"[3, 11]",0.0,5.0,0.5822391510009766,2.2411539554595947,0.6565588749698319,14.0,150.0,0.0
,,"(6, 6)",,,,,,,,
R,U,"[5, 6]",1.0,1.0,0.42060112953186035,3.181168794631958,0.3876708319027363,15.0,151.0,0.0
Y,R,"[5, 7]",1.0,2.0,0.2744269371032715,1.748802900314331,0.46952849290246557,15.0,152.0,0.0
Y,R,"[5, 8]",1.0,3.0,0.2146611213684082,1.5311129093170166,0.31722511979769186,15.0,153.0,0.0
B,L,"[5, 7]",0.0,3.0,0.3211190700531006,1.7282419204711914,0.4119445599150887,15.0,154.0,0.0
Y,R,"[5, 8]",0.0,3.0,0.21617698669433594,1.6663029193878174,0.4613788406654988,15.0,155.0,0.0
Y,R,"[5, 9]",0.0,3.0,0.19379496574401855,1.4779291152954102,0.28941118721784964,15.0,156.0,0.0
R,U,"[4, 9]",1.0,4.0,0.22939515113830566,1.8859691619873047,0.6580061569146738,15.0,157.0,0.0
R,U,"[3, 9]",1.0,5.0,0.3523750305175781,2.021576166152954,0.6793013897015296,15.0,158.0,0.0
R,U,"[2, 9]",0.0,5.0,0.25576305389404297,1.5301949977874756,0.25987264953539063,15.0,159.0,0.0
Y,R,"[2, 10]",0.0,5.0,0.5933310985565186,2.0879127979278564,0.49738912820273934,15.0,160.0,0.0
,,"(6, 6)",,,,,,,,
R,U,"[5, 6]",1.0,1.0,0.49356603622436523,3.183713912963867,0.2642947579889096,16.0,161.0,0.0
Y,R,"[5, 7]",1.0,2.0,0.3327040672302246,2.071922779083252,0.7356184712290799,16.0,162.0,0.0
Y,R,"[5, 8]",1.0,3.0,0.3089718818664551,1.7215938568115234,0.40721324671306725,16.0,163.0,0.0
G,D,"[6, 8]",1.0,4.0,0.2485489845275879,1.918755054473877,0.6755355173152839,16.0,164.0,0.0
Y,R,"[6, 9]",-1.0,4.0,0.003958940505981445,5.783459901809692,0.7250762286131971,16.0,165.0,0.0
Y,R,"[6, 10]",1.0,5.0,0.21350312232971191,1.6977670192718506,0.489477807916014,16.0,166.0,0.0
R,U,"[5, 10]",1.0,6.0,0.4775059223175049,2.1014151573181152,0.6239748214366506,16.0,167.0,0.0
Y,R,"[5, 11]",0.0,6.0,0.3515160083770752,1.676980972290039,0.3344060742418799,16.0,168.0,0.0
B,L,"[5, 10]",0.0,6.0,0.44094109535217285,2.0418899059295654,0.5925367124973533,16.0,169.0,0.0
R,U,"[4, 10]",1.0,7.0,0.2345900535583496,1.585705041885376,0.3616350287010703,16.0,170.0,0.0
,,"(6, 6)",,,,,,,,
R,U,"[5, 6]",1.0,1.0,0.39392995834350586,3.1945278644561768,0.40564976918504897,17.0,171.0,0.0
Y,R,"[5, 7]",1.0,2.0,0.2412128448486328,1.9512050151824951,0.7065313176159138,17.0,172.0,0.0
Y,R,"[5, 8]",1.0,3.0,0.23117589950561523,1.4913451671600342,0.26497888688352617,17.0,173.0,0.0
G,D,"[6, 8]",1.0,4.0,0.26610898971557617,1.6930279731750488,0.42469592460522315,17.0,174.0,0.0
R,U,"[5, 8]",0.0,4.0,0.3997831344604492,1.7989420890808105,0.40698559581421073,17.0,175.0,0.0
Y,R,"[5, 9]",0.0,4.0,0.2727019786834717,1.8098700046539307,0.5335704428562618,17.0,176.0,0.0
B,L,"[5, 8]",0.0,4.0,0.22945785522460938,1.62394380569458,0.3912252099493979,17.0,177.0,0.0
R,U,"[4, 8]",0.0,4.0,0.26958680152893066,1.755457878112793,0.4966164127709731,17.0,178.0,0.0
G,D,"[5, 8]",0.0,4.0,0.2687540054321289,1.5497369766235352,0.28010714430712225,17.0,179.0,0.0
Y,R,"[5, 9]",0.0,4.0,0.5207209587097168,1.8205220699310303,0.30066606825154846,17.0,180.0,0.0
,,"(6, 6)",,,,,,,,
R,U,"[5, 6]",1.0,1.0,0.40465593338012695,3.5659220218658447,0.7331542402135725,18.0,181.0,0.0
Y,R,"[5, 7]",1.0,2.0,0.24834799766540527,1.84779691696167,0.5979326484857235,18.0,182.0,0.0
Y,R,"[5, 8]",1.0,3.0,0.2753739356994629,1.8782641887664795,0.5929829937946907,18.0,183.0,0.0
G,D,"[6, 8]",1.0,4.0,0.23269009590148926,1.7986578941345215,0.5751111345813085,18.0,184.0,0.0
Y,R,"[6, 9]",1.0,5.0,0.23067903518676758,1.7323541641235352,0.5080519710571861,18.0,185.0,0.0
B,L,"[6, 8]",0.0,5.0,0.27957987785339355,2.0081779956817627,0.7325043532043116,18.0,186.0,0.0
R,U,"[5, 8]",0.0,5.0,0.2666158676147461,1.715198040008545,0.44805600926807393,18.0,187.0,0.0
Y,R,"[5, 9]",0.0,5.0,0.4099259376525879,2.1429970264434814,0.7242543453308581,18.0,188.0,0.0
G,D,"[6, 9]",0.0,5.0,0.25569701194763184,1.5462830066680908,0.3043678694098064,18.0,189.0,0.0
R,U,"[5, 9]",0.0,5.0,0.4675779342651367,1.9188649654388428,0.456565187440214,18.0,190.0,0.0
,,"(6, 6)",,,,,,,,
R,U,"[5, 6]",1.0,1.0,0.3180668354034424,3.231084108352661,0.620924514031992,19.0,191.0,0.0
Y,R,"[5, 7]",1.0,2.0,0.21439790725708008,1.7881340980529785,0.5760119020261754,19.0,192.0,0.0
Y,R,"[5, 8]",1.0,3.0,0.31418704986572266,1.7927930355072021,0.4856046056757183,19.0,193.0,0.0
G,D,"[6, 8]",1.0,4.0,0.17420291900634766,1.4646849632263184,0.3006130515513876,19.0,194.0,0.0
Y,R,"[6, 9]",1.0,5.0,0.3965029716491699,1.7522120475769043,0.3530089620709224,19.0,195.0,0.0
G,D,"[7, 9]",0.0,5.0,0.28148603439331055,1.7155470848083496,0.4351231455808753,19.0,196.0,0.0
Y,R,"[7, 10]",0.0,5.0,0.32083606719970703,1.98996901512146,0.6749483565524543,19.0,197.0,0.0
Y,R,"[7, 11]",-1.0,5.0,0.06091594696044922,5.686024904251099,0.56125255052766,19.0,198.0,0.0
Y,R,"[7, 10]",-3.0,5.0,0.15214800834655762,1.3902699947357178,0.2520648252008732,19.0,199.0,0.0
Y,R,"[7, 11]",0.0,5.0,0.5370869636535645,2.0626490116119385,0.531464049926694,19.0,200.0,0.0
,,"(6, 6)",,,,,,,,
R,U,"[5, 6]",1.0,1.0,0.49480295181274414,3.1700599193573,0.4015957966082734,20.0,201.0,0.0
Y,R,"[5, 7]",1.0,2.0,0.25573110580444336,1.975403070449829,0.7101043087645855,20.0,202.0,0.0
Y,R,"[5, 8]",1.0,3.0,0.10709381103515625,1.5145621299743652,0.4083209390432114,20.0,203.0,0.0
G,D,"[6, 8]",1.0,4.0,0.25336289405822754,1.6427650451660156,0.401240917050529,20.0,204.0,0.0
Y,R,"[6, 9]",1.0,5.0,0.2073960304260254,1.8388638496398926,0.6399105625944853,20.0,205.0,0.0
R,U,"[5, 9]",0.0,5.0,0.20299792289733887,1.8344500064849854,0.6410523689974448,20.0,206.0,0.0
Y,R,"[5, 10]",1.0,6.0,0.20983409881591797,1.6942400932312012,0.48551256450284563,20.0,207.0,0.0
G,D,"[6, 10]",1.0,7.0,0.23069310188293457,1.528681993484497,0.2979106368659942,20.0,208.0,0.0
B,L,"[6, 9]",0.0,7.0,0.513253927230835,1.828136920928955,0.309468009985965,20.0,209.0,0.0
Y,R,"[6, 10]",0.0,7.0,0.28563785552978516,1.6118721961975098,0.3380284353919801,20.0,210.0,0.0
,,"(6, 6)",,,,,,,,
R,U,"[5, 6]",1.0,1.0,0.8103110790252686,3.733978033065796,0.6718011181665122,21.0,211.0,0.0
Y,R,"[5, 7]",-1.0,1.0,0.07969999313354492,5.5676209926605225,0.4231870643481566,21.0,212.0,0.0
Y,R,"[5, 8]",1.0,2.0,0.305919885635376,1.7857980728149414,0.4757234034241914,21.0,213.0,0.0
Y,R,"[5, 9]",0.0,2.0,0.20562410354614258,1.5674588680267334,0.3600065319732259,21.0,214.0,0.0
Y,R,"[5, 10]",1.0,3.0,0.21680188179016113,1.8706262111663818,0.6636328165915577,21.0,215.0,0.0
Y,R,"[5, 11]",0.0,3.0,0.2935221195220947,1.633768081665039,0.3312108001344903,21.0,216.0,0.0
R,U,"[4, 11]",0.0,3.0,0.27118396759033203,1.608931064605713,0.3402644657988009,21.0,217.0,0.0
Y,R,"[5, 11]",-3.0,3.0,0.5721769332885742,1.918910026550293,0.35913560069108624,21.0,218.0,0.0
B,L,"[5, 10]",0.0,3.0,0.36246800422668457,1.635524034500122,0.2780623419541587,21.0,219.0,0.0
G,D,"[6, 10]",1.0,4.0,0.3991689682006836,1.829298973083496,0.44066756070630486,21.0,220.0,0.0
,,"(6, 6)",,,,,,,,
R,U,"[5, 6]",-2.0,0.0,1.12819504737854,4.693759918212891,0.5677831164315608,22.0,221.0,0.0
Y,R,"[5, 7]",1.0,1.0,0.23991680145263672,1.670975923538208,0.4222994255613293,22.0,222.0,0.0
Y,R,"[5, 8]",1.0,2.0,0.37028002738952637,1.7126009464263916,0.35161161884045583,22.0,223.0,0.0
G,D,"[6, 8]",1.0,3.0,0.24475789070129395,1.7083561420440674,0.4600033577220316,22.0,224.0,0.0
Y,R,"[6, 9]",1.0,4.0,0.23644495010375977,1.660154104232788,0.43682554235627125,22.0,225.0,0.0
B,L,"[6, 8]",0.0,4.0,0.20179295539855957,1.847203016281128,0.6505739871016413,22.0,226.0,0.0
Y,R,"[6, 9]",0.0,4.0,0.1537609100341797,1.4595279693603516,0.3104914494816257,22.0,227.0,0.0
R,U,"[5, 9]",0.0,4.0,0.32770419120788574,2.0090670585632324,0.6861558171326125,22.0,228.0,0.0
G,D,"[6, 9]",0.0,4.0,0.1909959316253662,1.4524078369140625,0.255357907518709,22.0,229.0,0.0
B,L,"[6, 8]",0.0,4.0,0.4430510997772217,1.8198919296264648,0.37527092594429695,22.0,230.0,0.0
,,"(6, 6)",,,,,,,,
R,U,"[5, 6]",1.0,1.0,0.2745330333709717,2.907668113708496,0.43291662994857044,23.0,231.0,0.0
Y,R,"[5, 7]",1.0,2.0,0.19371700286865234,1.483802080154419,0.28356639816734147,23.0,232.0,0.0
Y,R,"[5, 8]",1.0,3.0,0.21335983276367188,1.612090826034546,0.3956398257069255,23.0,233.0,0.0
G,D,"[6, 8]",1.0,4.0,0.23660802841186523,1.5416820049285889,0.3040655321793493,23.0,234.0,0.0
Y,R,"[6, 9]",1.0,5.0,0.23534178733825684,1.5945830345153809,0.36532774849300936,23.0,235.0,0.0
R,U,"[5, 9]",0.0,5.0,0.1913130283355713,1.6747398376464844,0.4732691283001058,23.0,236.0,0.0
Y,R,"[5, 10]",1.0,6.0,0.14767003059387207,1.4536230564117432,0.310476432867,23.0,237.0,0.0
B,L,"[5, 9]",0.0,6.0,0.5436408519744873,2.1010329723358154,0.5611798838424789,23.0,238.0,0.0
Y,R,"[5, 10]",0.0,6.0,0.19572806358337402,1.8294768333435059,0.6406443232796957,23.0,239.0,0.0
Y,R,"[5, 11]",0.0,6.0,0.31123805046081543,1.586380958557129,0.2773441775828064,23.0,240.0,0.0
,,"(6, 6)",,,,,,,,
R,U,"[5, 6]",1.0,1.0,0.2574038505554199,3.1275768280029297,0.4381169567370702,24.0,241.0,0.0
Y,R,"[5, 7]",1.0,2.0,0.21655917167663574,1.619494915008545,0.40771976603146,24.0,242.0,0.0
Y,R,"[5, 8]",1.0,3.0,0.21886014938354492,1.6779158115386963,0.4690125406804054,24.0,243.0,0.0
G,D,"[6, 8]",1.0,4.0,0.24051308631896973,1.7138340473175049,0.4661870518756654,24.0,244.0,0.0
Y,R,"[6, 9]",1.0,5.0,0.2878079414367676,1.689697027206421,0.4059782307298205,24.0,245.0,0.0
B,L,"[6, 8]",0.0,5.0,0.31972384452819824,1.9618611335754395,0.6509677311806501,24.0,246.0,0.0
Y,R,"[6, 9]",0.0,5.0,0.3018479347229004,1.9854710102081299,0.6862453704202358,24.0,247.0,0.0
R,U,"[5, 9]",0.0,5.0,0.24899005889892578,1.8830020427703857,0.6361802485685069,24.0,248.0,0.0
R,U,"[4, 9]",1.0,6.0,0.30313920974731445,1.749985933303833,0.4530222694153465,24.0,249.0,0.0
Y,R,"[4, 10]",1.0,7.0,0.42416906356811523,2.1230740547180176,0.6925074469965868,24.0,250.0,0.0
,,"(6, 6)",,,,,,,,
R,U,"[5, 6]",1.0,1.0,0.49700498580932617,3.4744791984558105,0.46712615116299744,25.0,251.0,0.0
Y,R,"[5, 7]",1.0,2.0,0.23606014251708984,1.8844289779663086,0.6515195965468534,25.0,252.0,0.0
Y,R,"[5, 8]",1.0,3.0,0.22670197486877441,1.6357858180999756,0.4041777816277163,25.0,253.0,0.0
G,D,"[6, 8]",1.0,4.0,0.21340107917785645,1.7870910167694092,0.5744751036365414,25.0,254.0,0.0
Y,R,"[6, 9]",1.0,5.0,0.2500929832458496,1.5080571174621582,0.26612262749006954,25.0,255.0,0.0
R,U,"[5, 9]",0.0,5.0,0.29236412048339844,1.856788158416748,0.5560108319043321,25.0,256.0,0.0
B,L,"[5, 8]",0.0,5.0,0.22792720794677734,1.7928569316864014,0.5654590311096848,25.0,257.0,0.0
B,L,"[5, 7]",0.0,5.0,0.2215278148651123,1.8437950611114502,0.625916690377627,25.0,258.0,0.0
R,U,"[4, 7]",0.0,5.0,0.2309579849243164,1.8650410175323486,0.6409117383440699,25.0,259.0,0.0
G,D,"[5, 7]",0.0,5.0,0.11033082008361816,1.8060719966888428,0.6970155553047639,25.0,260.0,0.0
,,"(6, 6)",,,,,,,,
R,U,"[5, 6]",1.0,1.0,0.2391810417175293,2.858412027359009,0.2891937032990061,26.0,261.0,0.0
Y,R,"[5, 7]",1.0,2.0,0.2527492046356201,1.5669450759887695,0.3227657928982122,26.0,262.0,0.0
Y,R,"[5, 8]",1.0,3.0,0.1419229507446289,1.7727618217468262,0.6284865990044293,26.0,263.0,0.0
G,D,"[6, 8]",-1.0,3.0,0.03784608840942383,5.480299949645996,0.3757114119813033,26.0,264.0,0.0
G,D,"[7, 8]",0.0,3.0,0.22200298309326172,1.9533281326293945,0.7452569522151049,26.0,265.0,0.0
Y,R,"[7, 9]",0.0,3.0,0.3212318420410156,2.004055976867676,0.6827721823617663,26.0,266.0,0.0
Y,R,"[7, 10]",0.0,3.0,0.2771790027618408,1.7823500633239746,0.49866843488329676,26.0,267.0,0.0
Y,R,"[7, 11]",0.0,3.0,0.20697903633117676,1.714210033416748,0.4961795894261997,26.0,268.0,0.0
Y,R,"[7, 10]",-3.0,3.0,0.22721099853515625,1.559587001800537,0.32253030986541886,26.0,269.0,0.0
Y,R,"[7, 11]",0.0,3.0,0.37529993057250977,2.0292558670043945,0.651412283999204,26.0,270.0,0.0
,,"(6, 6)",,,,,,,,
R,U,"[5, 6]",1.0,1.0,0.5261750221252441,4.0616021156311035,0.5299308529827977,27.0,271.0,0.0
Y,R,"[5, 7]",1.0,2.0,0.18712377548217773,1.8201820850372314,0.6332773342099169,27.0,272.0,0.0
Y,R,"[5, 8]",-1.0,2.0,0.07101893424987793,5.621639966964722,0.4882674532900412,27.0,273.0,0.0
Y,R,"[5, 9]",-1.0,2.0,0.043135881423950195,5.697330951690674,0.6021810753489893,27.0,274.0,0.0
Y,R,"[5, 10]",1.0,3.0,0.2437880039215088,1.8367109298706055,0.588767807890862,27.0,275.0,0.0
G,D,"[6, 10]",1.0,4.0,0.15987491607666016,1.6050641536712646,0.44397799298772506,27.0,276.0,0.0
Y,R,"[6, 11]",0.0,4.0,0.25429391860961914,1.729400873184204,0.4899943492724112,27.0,277.0,0.0
B,L,"[6, 10]",0.0,4.0,0.3890547752380371,2.043220043182373,0.6664566898985598,27.0,278.0,0.0
G,D,"[7, 10]",0.0,4.0,0.21301794052124023,1.500627040863037,0.2840040672422998,27.0,279.0,0.0
R,U,"[6, 10]",-2.0,4.0,1.29414701461792,2.9130239486694336,0.6466563093429792,27.0,280.0,0.0
,,"(6, 6)",,,,,,,,
R,U,"[5, 6]",1.0,1.0,0.4281909465789795,3.1389541625976562,0.5689778887567025,28.0,281.0,0.0
Y,R,"[5, 7]",-1.0,1.0,0.032431840896606445,5.397745132446289,0.30025378748348824,28.0,282.0,0.0
Y,R,"[5, 8]",1.0,2.0,0.35489821434020996,1.658888816833496,0.30912124217734854,28.0,283.0,0.0
Y,R,"[5, 9]",0.0,2.0,0.2748739719390869,1.8431200981140137,0.5686103073851313,28.0,284.0,0.0
G,D,"[6, 9]",1.0,3.0,0.23189401626586914,1.8114221096038818,0.5800005047526722,28.0,285.0,0.0
Y,R,"[6, 10]",1.0,4.0,0.21120905876159668,1.783592939376831,0.563611554774221,28.0,286.0,0.0
R,U,"[5, 10]",1.0,5.0,0.3400290012359619,1.6597518920898438,0.3068134161789718,28.0,287.0,0.0
B,L,"[5, 9]",0.0,5.0,0.4648709297180176,2.1415998935699463,0.6813528865462667,28.0,288.0,0.0
Y,R,"[5, 10]",0.0,5.0,0.22689604759216309,1.9033238887786865,0.6680783431663355,28.0,289.0,0.0
G,D,"[6, 10]",0.0,5.0,0.1728661060333252,1.7549810409545898,0.5730458603778412,28.0,290.0,0.0
,,"(6, 6)",,,,,,,,
R,U,"[5, 6]",1.0,1.0,0.5387289524078369,3.6565639972686768,0.6628079851712388,29.0,291.0,0.0
Y,R,"[5, 7]",1.0,2.0,0.2300729751586914,1.8215429782867432,0.5843694330118969,29.0,292.0,0.0
Y,R,"[5, 8]",1.0,3.0,0.19245505332946777,1.4513499736785889,0.2526991603136374,29.0,293.0,0.0
G,D,"[6, 8]",1.0,4.0,0.3205399513244629,1.9573957920074463,0.6430305682715564,29.0,294.0,0.0
Y,R,"[6, 9]",1.0,5.0,0.2064061164855957,1.6736750602722168,0.4668721514721876,29.0,295.0,0.0
R,U,"[5, 9]",0.0,5.0,0.2053220272064209,1.5159599781036377,0.29950977448399857,29.0,296.0,0.0
Y,R,"[5, 10]",1.0,6.0,0.1904010772705078,1.64239501953125,0.4418328386335125,29.0,297.0,0.0
G,D,"[6, 10]",1.0,7.0,0.16904306411743164,1.601902961730957,0.4435500657451987,29.0,298.0,0.0
Y,R,"[6, 11]",0.0,7.0,0.2942650318145752,1.6536979675292969,0.3640720333453512,29.0,299.0,0.0
R,U,"[5, 11]",0.0,7.0,0.28240108489990234,1.7939441204071045,0.5078257696495172,29.0,300.0,0.0
,,"(6, 6)",,,,,,,,
R,U,"[5, 6]",1.0,1.0,0.6440830230712891,3.411853075027466,0.6694322940306487,30.0,301.0,0.0
Y,R,"[5, 7]",1.0,2.0,0.14946699142456055,1.764275074005127,0.6171010634685445,30.0,302.0,0.0
Y,R,"[5, 8]",1.0,3.0,0.19359493255615234,1.9232540130615234,0.7235037190474543,30.0,303.0,0.0
G,D,"[6, 8]",1.0,4.0,0.20296406745910645,1.7152800559997559,0.5222157982568498,30.0,304.0,0.0
Y,R,"[6, 9]",1.0,5.0,0.19233417510986328,1.8200390338897705,0.6256764360231226,30.0,305.0,0.0
G,D,"[7, 9]",0.0,5.0,0.23054885864257812,1.5169320106506348,0.2926986700804361,30.0,306.0,0.0
R,U,"[6, 9]",0.0,5.0,0.25998497009277344,1.5321438312530518,0.2747913683927879,30.0,307.0,0.0
Y,R,"[6, 10]",1.0,6.0,0.39557313919067383,2.0377509593963623,0.6454292829107053,30.0,308.0,0.0
Y,R,"[6, 11]",0.0,6.0,0.4625530242919922,2.1223719120025635,0.6510485650831213,30.0,309.0,0.0
Y,R,"[6, 10]",-2.0,6.0,1.346971035003662,2.7339911460876465,0.4185630828005423,30.0,310.0,0.0
,,"(6, 6)",,,,,,,,
R,U,"[5, 6]",1.0,1.0,0.46900200843811035,3.3159091472625732,0.7340419383845229,31.0,311.0,0.0
Y,R,"[5, 7]",1.0,2.0,0.19390010833740234,1.582381010055542,0.3833538277118746,31.0,312.0,0.0
Y,R,"[5, 8]",1.0,3.0,0.23951292037963867,1.8486061096191406,0.598322607798758,31.0,313.0,0.0
G,D,"[6, 8]",1.0,4.0,0.1744999885559082,1.8218979835510254,0.6370651139648109,31.0,314.0,0.0
Y,R,"[6, 9]",1.0,5.0,0.21184706687927246,1.8729619979858398,0.6596809127963735,31.0,315.0,0.0
R,U,"[5, 9]",0.0,5.0,0.2732720375061035,1.6389830112457275,0.3656353207621805,31.0,316.0,0.0
Y,R,"[5, 10]",1.0,6.0,0.23009896278381348,1.9319791793823242,0.6972600384104872,31.0,317.0,0.0
G,D,"[6, 10]",1.0,7.0,0.23676514625549316,1.5300729274749756,0.2943195291581799,31.0,318.0,0.0
Y,R,"[6, 11]",0.0,7.0,0.39108991622924805,2.124742031097412,0.7351812024160174,31.0,319.0,0.0
B,L,"[6, 10]",0.0,7.0,0.5107011795043945,1.9637470245361328,0.4491241235592825,31.0,320.0,0.0
,,"(6, 6)",,,,,,,,
R,U,"[5, 6]",1.0,1.0,0.4168708324432373,3.4416720867156982,0.7071751880601389,32.0,321.0,0.0
Y,R,"[5, 7]",1.0,2.0,0.1947159767150879,1.8638060092926025,0.6713705289398317,32.0,322.0,0.0
Y,R,"[5, 8]",1.0,3.0,0.19742107391357422,1.4502429962158203,0.25485053374015604,32.0,323.0,0.0
G,D,"[6, 8]",1.0,4.0,0.2806220054626465,1.687680959701538,0.40902672227228476,32.0,324.0,0.0
Y,R,"[6, 9]",1.0,5.0,0.19272518157958984,1.8936831951141357,0.7023846643721438,32.0,325.0,0.0
R,U,"[5, 9]",0.0,5.0,0.1968379020690918,1.8680169582366943,0.6702481167520871,32.0,326.0,0.0
Y,R,"[5, 10]",1.0,6.0,0.4149479866027832,1.6943309307098389,0.2817102110174307,32.0,327.0,0.0
G,D,"[6, 10]",1.0,7.0,0.4662320613861084,1.7698428630828857,0.3014061885777713,32.0,328.0,0.0
Y,R,"[6, 11]",0.0,7.0,0.29626893997192383,1.9875688552856445,0.6885544614165964,32.0,329.0,0.0
Y,R,"[6, 10]",-3.0,7.0,0.37192296981811523,2.0206689834594727,0.6590740011983385,32.0,330.0,0.0
,,"(6, 6)",,,,,,,,
R,U,"[5, 6]",1.0,1.0,0.4469292163848877,4.23683500289917,0.2794392489256254,33.0,331.0,0.0
Y,R,"[5, 7]",1.0,2.0,0.10033702850341797,1.3943390846252441,0.2903609734291853,33.0,332.0,0.0
Y,R,"[5, 8]",1.0,3.0,0.19214391708374023,1.7866501808166504,0.5934491284393026,33.0,333.0,0.0
G,D,"[6, 8]",-1.0,3.0,0.0029249191284179688,5.628485918045044,0.5717619582247266,33.0,334.0,0.0
G,D,"[7, 8]",0.0,3.0,0.20519089698791504,1.7980589866638184,0.5864070757720637,33.0,335.0,0.0
Y,R,"[7, 9]",0.0,3.0,0.27318787574768066,1.6417441368103027,0.3616081939706917,33.0,336.0,0.0
Y,R,"[7, 10]",0.0,3.0,0.26299095153808594,1.539747953414917,0.28467492815070156,33.0,337.0,0.0
Y,R,"[7, 11]",0.0,3.0,0.20577216148376465,1.8951640129089355,0.6792789154605191,33.0,338.0,0.0
Y,R,"[7, 10]",-3.0,3.0,0.26325297355651855,1.97381591796875,0.7030000527063407,33.0,339.0,0.0
Y,R,"[7, 11]",0.0,3.0,0.3782191276550293,2.040160894393921,0.6598997818515475,33.0,340.0,0.0
,,"(6, 6)",,,,,,,,
R,U,"[5, 6]",1.0,1.0,0.8056638240814209,3.3064098358154297,0.382925443350969,34.0,341.0,0.0
Y,R,"[5, 7]",-1.0,1.0,0.06722712516784668,5.682955980300903,0.549208445979867,34.0,342.0,0.0
Y,R,"[5, 8]",1.0,2.0,0.22768712043762207,1.5369911193847656,0.3027807471372831,34.0,343.0,0.0
Y,R,"[5, 9]",0.0,2.0,0.40065503120422363,1.798367977142334,0.40100827296610886,34.0,344.0,0.0
G,D,"[6, 9]",1.0,3.0,0.17099285125732422,1.5454258918762207,0.3630463656502413,34.0,345.0,0.0
Y,R,"[6, 10]",1.0,4.0,0.14949297904968262,1.8719098567962646,0.7178608586592835,34.0,346.0,0.0
R,U,"[5, 10]",-1.0,4.0,0.08610987663269043,5.759776830673218,0.6106800753909067,34.0,347.0,0.0
R,U,"[4, 10]",1.0,5.0,0.2896080017089844,1.8638429641723633,0.5746337152021994,34.0,348.0,0.0
Y,R,"[4, 11]",0.0,5.0,0.28592896461486816,1.7058110237121582,0.43038877383377894,34.0,349.0,0.0
G,D,"[5, 11]",0.0,5.0,0.48035502433776855,2.060987949371338,0.5745370453236271,34.0,350.0,0.0
,,"(6, 6)",,,,,,,,
R,U,"[5, 6]",1.0,1.0,0.3816871643066406,6.9324212074279785,0.29024358050915916,35.0,351.0,0.0
Y,R,"[5, 7]",1.0,2.0,0.5209019184112549,2.1558799743652344,0.645675153866355,35.0,352.0,0.0
G,D,"[6, 7]",0.0,2.0,0.4682648181915283,1.7925450801849365,0.32177046745915555,35.0,353.0,0.0
G,D,"[7, 7]",0.0,2.0,0.5798439979553223,2.296278953552246,0.7176432395929737,35.0,354.0,0.0
R,U,"[6, 7]",0.0,2.0,0.30785512924194336,2.01814603805542,0.7022572493838765,35.0,355.0,0.0
Y,R,"[6, 8]",1.0,3.0,0.14011693000793457,1.7805790901184082,0.6494225162237786,35.0,356.0,0.0
B,L,"[6, 7]",0.0,3.0,0.27576303482055664,1.6851191520690918,0.4014946812681595,35.0,357.0,0.0
G,D,"[7, 7]",0.0,3.0,0.37346911430358887,1.738239049911499,0.35624723023554666,35.0,358.0,0.0
Y,R,"[7, 8]",0.0,3.0,0.2321000099182129,1.4821979999542236,0.255119201108047,35.0,359.0,0.0
R,U,"[6, 8]",0.0,3.0,0.3968479633331299,1.66743803024292,0.2725660735481961,35.0,360.0,0.0
,,"(6, 6)",,,,,,,,
R,U,"[5, 6]",1.0,1.0,0.4687070846557617,5.044916152954102,0.25060885710272285,36.0,361.0,0.0
G,D,"[6, 6]",-1.0,1.0,0.02138805389404297,5.5162880420684814,0.43305500245833317,36.0,362.0,0.0
Y,R,"[6, 7]",0.0,1.0,0.19441890716552734,1.8183109760284424,0.6177903944772835,36.0,363.0,0.0
Y,R,"[6, 8]",1.0,2.0,0.2406909465789795,1.690298080444336,0.44140900629241586,36.0,364.0,0.0
Y,R,"[6, 9]",1.0,3.0,0.2163248062133789,1.6709821224212646,0.4623792985879961,36.0,365.0,0.0
G,D,"[7, 9]",0.0,3.0,0.4209160804748535,1.7400729656219482,0.31911219861079027,36.0,366.0,0.0
R,U,"[6, 9]",0.0,3.0,0.20364904403686523,1.8641269207000732,0.6662084483135227,36.0,367.0,0.0
Y,R,"[6, 10]",1.0,4.0,0.13995695114135742,1.6425518989562988,0.49217908102045305,36.0,368.0,0.0
B,L,"[6, 9]",0.0,4.0,0.3646259307861328,1.8694260120391846,0.5115016735339311,36.0,369.0,0.0
Y,R,"[6, 10]",0.0,4.0,0.6200809478759766,1.980560064315796,0.37538297745830385,36.0,370.0,0.0
,,"(6, 6)",,,,,,,,
R,U,"[5, 6]",1.0,1.0,0.5348780155181885,5.1723480224609375,0.6804638530873193,37.0,371.0,0.0
Y,R,"[5, 7]",-1.0,1.0,0.04059791564941406,5.741305112838745,0.6382072690446023,37.0,372.0,0.0
Y,R,"[5, 8]",1.0,2.0,0.37990689277648926,1.649878978729248,0.2716589322708721,37.0,373.0,0.0
Y,R,"[5, 9]",0.0,2.0,0.41284990310668945,1.7408368587493896,0.3290575624958825,37.0,374.0,0.0
R,U,"[4, 9]",1.0,3.0,0.4878718852996826,1.9088990688323975,0.4210966721846599,37.0,375.0,0.0
B,L,"[4, 8]",0.0,3.0,0.8579239845275879,2.1402339935302734,0.2779914778218534,37.0,376.0,0.0
Y,R,"[4, 9]",0.0,3.0,0.40847110748291016,2.1109519004821777,0.7050049090626571,37.0,377.0,0.0
Y,R,"[4, 10]",1.0,4.0,0.2898108959197998,1.8836419582366943,0.5887620410790597,37.0,378.0,0.0
R,U,"[3, 10]",0.0,4.0,0.3054490089416504,1.8416321277618408,0.5303338883771387,37.0,379.0,0.0
Y,R,"[3, 11]",0.0,4.0,0.2854640483856201,1.866706132888794,0.5801619032457483,37.0,380.0,0.0
,,"(6, 6)",,,,,,,,
R,U,"[5, 6]",1.0,1.0,0.5142018795013428,4.139228105545044,0.6856182128015396,38.0,381.0,0.0
Y,R,"[5, 7]",1.0,2.0,0.3705470561981201,1.6319029331207275,0.26794430283486215,38.0,382.0,0.0
Y,R,"[5, 8]",1.0,3.0,0.5070409774780273,2.1718568801879883,0.6725811865370956,38.0,383.0,0.0
G,D,"[6, 8]",1.0,4.0,0.2494029998779297,1.8483619689941406,0.6044917086634595,38.0,384.0,0.0
Y,R,"[6, 9]",1.0,5.0,0.2772209644317627,1.7588748931884766,0.4798472826455883,38.0,385.0,0.0
R,U,"[5, 9]",0.0,5.0,0.26972079277038574,1.7010397911071777,0.43090538519086674,38.0,386.0,0.0
Y,R,"[5, 10]",-1.0,5.0,0.03127598762512207,5.428904056549072,0.32621831577633953,38.0,387.0,0.0
Y,R,"[5, 11]",0.0,5.0,0.2310171127319336,1.6693339347839355,0.4453944432073595,38.0,388.0,0.0
Y,R,"[5, 10]",-3.0,5.0,0.5269351005554199,2.2399868965148926,0.7182608265055848,38.0,389.0,0.0
Y,R,"[5, 11]",0.0,5.0,0.5157151222229004,2.1704699993133545,0.6552309924316713,38.0,390.0,0.0
,,"(6, 6)",,,,,,,,
R,U,"[5, 6]",1.0,1.0,0.8645999431610107,6.196527004241943,0.3851975530259475,39.0,391.0,0.0
Y,R,"[5, 7]",1.0,2.0,0.35054898262023926,1.924079179763794,0.5754135215849014,39.0,392.0,0.0
Y,R,"[5, 8]",1.0,3.0,0.30694103240966797,1.6342289447784424,0.3265038039082368,39.0,393.0,0.0
G,D,"[6, 8]",1.0,4.0,0.5145699977874756,1.892570972442627,0.3856132820960028,39.0,394.0,0.0
Y,R,"[6, 9]",1.0,5.0,0.25498008728027344,1.8191258907318115,0.5545050752859335,39.0,395.0,0.0
Y,R,"[6, 10]",1.0,6.0,0.22667908668518066,1.556487798690796,0.3276412739094377,39.0,396.0,0.0
Y,R,"[6, 11]",0.0,6.0,0.2251300811767578,1.7498750686645508,0.5273792027118318,39.0,397.0,0.0
R,U,"[5, 11]",0.0,6.0,0.34374523162841797,1.7464969158172607,0.40722240343494653,39.0,398.0,0.0
Y,R,"[6, 11]",-3.0,6.0,0.32226085662841797,1.7972168922424316,0.47089747725944564,39.0,399.0,0.0
Y,R,"[5, 11]",-2.0,6.0,1.0649151802062988,2.520512819290161,0.49123840023065096,39.0,400.0,0.0
,,"(6, 6)",,,,,,,,
R,U,"[5, 6]",1.0,1.0,0.3610420227050781,6.158037900924683,0.7319936336628217,40.0,401.0,0.0
Y,R,"[5, 7]",1.0,2.0,0.3553299903869629,1.8135409355163574,0.4625072905445459,40.0,402.0,0.0
Y,R,"[5, 8]",1.0,3.0,0.2897210121154785,1.8874759674072266,0.5995912086838093,40.0,403.0,0.0
G,D,"[6, 8]",1.0,4.0,0.21535086631774902,1.9671459197998047,0.7497204976278067,40.0,404.0,0.0
Y,R,"[6, 9]",1.0,5.0,0.2588639259338379,1.780344009399414,0.5135410116140378,40.0,405.0,0.0
Y,R,"[6, 10]",1.0,6.0,0.3137068748474121,1.8308300971984863,0.5110002351796412,40.0,406.0,0.0
R,U,"[5, 10]",1.0,7.0,0.2216658592224121,1.4892570972442627,0.2837258174455702,40.0,407.0,0.0
Y,R,"[5, 11]",0.0,7.0,0.4097769260406494,2.0654211044311523,0.6485877581947782,40.0,408.0,0.0
Y,R,"[5, 10]",-2.0,7.0,1.0099780559539795,2.314310073852539,0.32973097672120866,40.0,409.0,0.0
G,D,"[6, 10]",0.0,7.0,0.5893340110778809,2.3362550735473633,0.7487901150056075,40.0,410.0,0.0
,,"(6, 6)",,,,,,,,
R,U,"[5, 6]",1.0,1.0,0.931035041809082,4.347606897354126,0.6961861297743916,41.0,411.0,0.0
Y,R,"[5, 7]",1.0,2.0,0.3368680477142334,2.001666784286499,0.6643277866349258,41.0,412.0,0.0
Y,R,"[5, 8]",1.0,3.0,0.2539210319519043,2.0019378662109375,0.7328237572706278,41.0,413.0,0.0
G,D,"[6, 8]",1.0,4.0,0.28086400032043457,1.9138779640197754,0.6300574502497791,41.0,414.0,0.0
Y,R,"[6, 9]",1.0,5.0,0.36023688316345215,1.9175798892974854,0.5474642769315461,41.0,415.0,0.0
Y,R,"[6, 10]",1.0,6.0,0.36054205894470215,2.0408010482788086,0.6713203552594735,41.0,416.0,0.0
G,D,"[7, 10]",0.0,6.0,0.4821817874908447,2.0401599407196045,0.5616314103120011,41.0,417.0,0.0
Y,R,"[7, 11]",0.0,6.0,0.2468891143798828,1.49943208694458,0.26109531073185877,41.0,418.0,0.0
Y,R,"[7, 10]",-3.0,6.0,0.4868199825286865,2.1696910858154297,0.6970284859232845,41.0,419.0,0.0
G,D,"[8, 10]",-2.0,6.0,2.5126349925994873,4.031744003295898,0.5452544888428613,41.0,420.0,0.0
,,"(6, 6)",,,,,,,,
R,U,"[5, 6]",1.0,1.0,0.5755288600921631,6.05728006362915,0.6855108715226281,42.0,421.0,0.0
Y,R,"[5, 7]",1.0,2.0,0.2100830078125,1.9630279541015625,0.7481004981103674,42.0,422.0,0.0
Y,R,"[5, 8]",1.0,3.0,0.22540688514709473,1.6739211082458496,0.43890850129133124,42.0,423.0,0.0
G,D,"[6, 8]",1.0,4.0,0.22368407249450684,1.8364160060882568,0.6251174204920454,42.0,424.0,0.0
Y,R,"[6, 9]",1.0,5.0,0.1566638946533203,1.483759880065918,0.32574916556995825,42.0,425.0,0.0
Y,R,"[6, 10]",1.0,6.0,0.23201799392700195,1.6820039749145508,0.4574930333944054,42.0,426.0,0.0
Y,R,"[6, 11]",0.0,6.0,0.17995190620422363,1.4813120365142822,0.3054914500500274,42.0,427.0,0.0
Y,R,"[6, 10]",-3.0,6.0,0.45539093017578125,2.056161880493164,0.6112727677763221,42.0,428.0,0.0
B,L,"[6, 9]",0.0,6.0,0.22232508659362793,1.528653860092163,0.3233874031629186,42.0,429.0,0.0
Y,R,"[6, 10]",0.0,6.0,0.24798083305358887,1.8697569370269775,0.6260857338265248,42.0,430.0,0.0
,,"(6, 6)",,,,,,,,
R,U,"[5, 6]",1.0,1.0,0.527087926864624,4.3209240436553955,0.2637267550520336,43.0,431.0,0.0
Y,R,"[5, 7]",1.0,2.0,0.21092700958251953,1.7535488605499268,0.5335450172819154,43.0,432.0,0.0
Y,R,"[5, 8]",1.0,3.0,0.18693304061889648,1.864227056503296,0.6809102413171069,43.0,433.0,0.0
G,D,"[6, 8]",1.0,4.0,0.22820496559143066,1.4985179901123047,0.2630529345546651,43.0,434.0,0.0
Y,R,"[6, 9]",1.0,5.0,0.22828292846679688,1.924454927444458,0.6869642335954542,43.0,435.0,0.0
Y,R,"[6, 10]",1.0,6.0,0.18451404571533203,1.8915750980377197,0.711708628501676,43.0,436.0,0.0
R,U,"[5, 10]",1.0,7.0,0.18439102172851562,1.5116350650787354,0.34026007809240644,43.0,437.0,0.0
Y,R,"[5, 11]",0.0,7.0,0.40659403800964355,2.047009229660034,0.6367207075338801,43.0,438.0,0.0
Y,R,"[5, 10]",-3.0,7.0,0.33450889587402344,1.7780530452728271,0.4483240102161824,43.0,439.0,0.0
Y,R,"[5, 11]",0.0,7.0,0.5132570266723633,2.181302785873413,0.6625002784249414,43.0,440.0,0.0
,,"(6, 6)",,,,,,,,
R,U,"[5, 6]",1.0,1.0,0.8076410293579102,3.4185409545898438,0.314445009800901,44.0,441.0,0.0
Y,R,"[5, 7]",1.0,2.0,0.254256010055542,1.8242530822753906,0.5716076723968997,44.0,442.0,0.0
Y,R,"[5, 8]",1.0,3.0,0.14541101455688477,1.4431049823760986,0.2984336585797735,44.0,443.0,0.0
G,D,"[6, 8]",1.0,4.0,0.4485490322113037,2.09879207611084,0.6466129407672205,44.0,444.0,0.0
Y,R,"[6, 9]",1.0,5.0,0.14249205589294434,1.740382194519043,0.5869838604285962,44.0,445.0,0.0
Y,R,"[6, 10]",1.0,6.0,0.23303008079528809,1.6343679428100586,0.4048084759195222,44.0,446.0,0.0
R,U,"[5, 10]",1.0,7.0,0.2089698314666748,1.7981469631195068,0.6025691271794045,44.0,447.0,0.0
G,D,"[6, 10]",0.0,7.0,0.16473793983459473,1.5782511234283447,0.4141667295824899,44.0,448.0,0.0
R,U,"[5, 10]",0.0,7.0,0.20239901542663574,1.781440019607544,0.5787491392069686,44.0,449.0,0.0
R,U,"[4, 10]",1.0,8.0,0.19000005722045898,1.7098190784454346,0.5051332871445492,44.0,450.0,0.0
,,"(6, 6)",,,,,,,,
R,U,"[5, 6]",1.0,1.0,0.646838903427124,3.1160168647766113,0.4375789520693043,45.0,451.0,0.0
Y,R,"[5, 7]",1.0,2.0,0.2506389617919922,1.9410738945007324,0.6949958410947163,45.0,452.0,0.0
Y,R,"[5, 8]",1.0,3.0,0.22360801696777344,1.7433359622955322,0.5217869992381161,45.0,453.0,0.0
G,D,"[6, 8]",1.0,4.0,0.3350350856781006,2.060871124267578,0.7322350656092871,45.0,454.0,0.0
Y,R,"[6, 9]",1.0,5.0,0.18842291831970215,1.7730391025543213,0.5720430775263057,45.0,455.0,0.0
Y,R,"[6, 10]",1.0,6.0,0.17458486557006836,1.7862908840179443,0.6081814263054091,45.0,456.0,0.0
R,U,"[5, 10]",1.0,7.0,0.27129697799682617,1.6491129398345947,0.37406317583052445,45.0,457.0,0.0
R,U,"[4, 10]",1.0,8.0,0.39829206466674805,1.9772250652313232,0.5844744454999358,45.0,458.0,0.0
R,U,"[3, 10]",0.0,8.0,0.24290800094604492,1.6432139873504639,0.3942501692692589,45.0,459.0,0.0
Y,R,"[3, 11]",0.0,8.0,0.23649001121520996,1.7697348594665527,0.5470690725386588,45.0,460.0,0.0
,,"(6, 6)",,,,,,,,
R,U,"[5, 6]",1.0,1.0,0.35561704635620117,3.747262954711914,0.4107627230426084,46.0,461.0,0.0
Y,R,"[5, 7]",1.0,2.0,0.23732209205627441,1.941586971282959,0.7186417648645089,46.0,462.0,0.0
Y,R,"[5, 8]",1.0,3.0,0.2088170051574707,1.5667948722839355,0.3523462282705612,46.0,463.0,0.0
G,D,"[6, 8]",1.0,4.0,0.302325963973999,1.633868932723999,0.3361330786573589,46.0,464.0,0.0
Y,R,"[6, 9]",1.0,5.0,0.2189769744873047,1.8521008491516113,0.6377168476522397,46.0,465.0,0.0
Y,R,"[6, 10]",1.0,6.0,0.22457289695739746,1.486236810684204,0.25747364480351415,46.0,466.0,0.0
R,U,"[5, 10]",1.0,7.0,0.4784829616546631,1.9374449253082275,0.4613056433135276,46.0,467.0,0.0
R,U,"[4, 10]",1.0,8.0,0.24914216995239258,1.731734037399292,0.4929052469608842,46.0,468.0,0.0
G,D,"[5, 10]",0.0,8.0,0.23375415802001953,1.8761370182037354,0.6521019062170409,46.0,469.0,0.0
Y,R,"[5, 11]",0.0,8.0,0.27478694915771484,1.597074031829834,0.31602134080233096,46.0,470.0,0.0
,,"(6, 6)",,,,,,,,
R,U,"[5, 6]",1.0,1.0,0.7057819366455078,3.8416872024536133,0.507261200411518,47.0,471.0,0.0
Y,R,"[5, 7]",1.0,2.0,0.20305514335632324,1.495595932006836,0.3030208295809622,47.0,472.0,0.0
Y,R,"[5, 8]",1.0,3.0,0.21709108352661133,1.7998521327972412,0.5857530418260946,47.0,473.0,0.0
G,D,"[6, 8]",1.0,4.0,0.17097711563110352,1.6145110130310059,0.43367909188587656,47.0,474.0,0.0
R,U,"[5, 8]",0.0,4.0,0.20538020133972168,1.73844313621521,0.5384929091125774,47.0,475.0,0.0
Y,R,"[5, 9]",0.0,4.0,0.25027894973754883,1.9808909893035889,0.735792672292578,47.0,476.0,0.0
R,U,"[4, 9]",1.0,5.0,0.18847203254699707,1.4368078708648682,0.2561446964308091,47.0,477.0,0.0
R,U,"[3, 9]",1.0,6.0,0.27933192253112793,1.7196059226989746,0.4421979205933776,47.0,478.0,0.0
Y,R,"[3, 10]",0.0,6.0,0.24265599250793457,1.6681098937988281,0.42695183027516165,47.0,479.0,0.0
B,L,"[3, 9]",0.0,6.0,0.2649719715118408,1.5317931175231934,0.2752974894943603,47.0,480.0,0.0
,,"(6, 6)",,,,,,,,
R,U,"[5, 6]",1.0,1.0,0.3472139835357666,11.405652046203613,0.41342931932050553,48.0,481.0,0.0
Y,R,"[5, 7]",1.0,2.0,0.23883700370788574,1.7430710792541504,0.48953458954752216,48.0,482.0,0.0
Y,R,"[5, 8]",1.0,3.0,0.288571834564209,1.6826529502868652,0.38887376170109,48.0,483.0,0.0
R,U,"[4, 8]",0.0,3.0,0.46123409271240234,1.8248438835144043,0.36359712374247544,48.0,484.0,0.0
G,D,"[5, 8]",0.0,3.0,0.3058338165283203,1.8087518215179443,0.4890918458614675,48.0,485.0,0.0
G,D,"[6, 8]",1.0,4.0,0.3278648853302002,1.9582579135894775,0.6300924563653341,48.0,486.0,0.0
R,U,"[5, 8]",0.0,4.0,0.2511940002441406,1.8014209270477295,0.5481756803224986,48.0,487.0,0.0
R,U,"[4, 8]",0.0,4.0,0.24814295768737793,1.7739641666412354,0.5219914861727859,48.0,488.0,0.0
R,U,"[3, 8]",0.0,4.0,0.2395029067993164,1.844074010848999,0.5991226710512334,48.0,489.0,0.0
R,U,"[2, 8]",0.0,4.0,0.20544195175170898,1.8429570198059082,0.6253065422059783,48.0,490.0,0.0
,,"(6, 6)",,,,,,,,
R,U,"[5, 6]",1.0,1.0,0.41996002197265625,7.297946929931641,0.2896568262423151,49.0,491.0,0.0
Y,R,"[5, 7]",1.0,2.0,0.3372621536254883,1.8658509254455566,0.5385259798223716,49.0,492.0,0.0
Y,R,"[5, 8]",1.0,3.0,0.20238995552062988,1.6888420581817627,0.49401643382571625,49.0,493.0,0.0
G,D,"[6, 8]",1.0,4.0,0.1459970474243164,1.3963449001312256,0.2571542110782284,49.0,494.0,0.0
Y,R,"[6, 9]",1.0,5.0,0.24199795722961426,1.9681179523468018,0.7251623309496305,49.0,495.0,0.0
Y,R,"[6, 10]",1.0,6.0,0.2225208282470703,1.5195708274841309,0.3111761883012055,49.0,496.0,0.0
R,U,"[5, 10]",1.0,7.0,0.39070701599121094,2.1295628547668457,0.7400770909553818,49.0,497.0,0.0
R,U,"[4, 10]",1.0,8.0,0.18134498596191406,1.6962800025939941,0.5197671888167207,49.0,498.0,0.0
Y,R,"[4, 11]",0.0,8.0,0.18526983261108398,1.7898478507995605,0.609491929081264,49.0,499.0,0.0
R,U,"[3, 11]",0.0,8.0,0.15195202827453613,1.7457330226898193,0.6050446480134715,49.0,500.0,0.0
,,"(6, 6)",,,,,,,,
R,U,"[5, 6]",1.0,1.0,0.3925790786743164,4.552710056304932,0.6740749241893997,50.0,501.0,0.0
Y,R,"[5, 7]",1.0,2.0,0.23093700408935547,1.8763151168823242,0.6502318048146563,50.0,502.0,0.0
Y,R,"[5, 8]",1.0,3.0,0.16461586952209473,1.8137409687042236,0.6472299333613756,50.0,503.0,0.0
R,U,"[4, 8]",0.0,3.0,0.23619794845581055,1.8029890060424805,0.5667324600590269,50.0,504.0,0.0
G,D,"[5, 8]",0.0,3.0,0.19090008735656738,1.4571681022644043,0.25746470995083676,50.0,505.0,0.0
G,D,"[6, 8]",1.0,4.0,0.7041351795196533,2.226078987121582,0.5164754967558723,50.0,506.0,0.0
R,U,"[5, 8]",0.0,4.0,0.4266510009765625,1.8694100379943848,0.4358229081755292,50.0,507.0,0.0
Y,R,"[5, 9]",-2.0,4.0,1.206954002380371,2.696316957473755,0.5317397640355723,50.0,508.0,0.0
Y,R,"[5, 10]",1.0,5.0,0.34888792037963867,2.0217530727386475,0.6700082505193442,50.0,509.0,0.0
B,L,"[5, 9]",0.0,5.0,0.23517584800720215,1.729382038116455,0.49937169511264845,50.0,510.0,0.0
,,"(6, 6)",,,,,,,,
R,U,"[5, 6]",1.0,1.0,0.5152671337127686,5.177991151809692,0.7266593198819775,51.0,511.0,0.0
Y,R,"[5, 7]",1.0,2.0,0.27018094062805176,1.800868034362793,0.5443558142980484,51.0,512.0,0.0
Y,R,"[5, 8]",1.0,3.0,0.2571380138397217,1.8204631805419922,0.5647196158677038,51.0,513.0,0.0
G,D,"[6, 8]",1.0,4.0,0.44671106338500977,2.0795950889587402,0.6273650408892754,51.0,514.0,0.0
Y,R,"[6, 9]",1.0,5.0,0.29125094413757324,2.000767946243286,0.7112433787440584,51.0,515.0,0.0
R,U,"[5, 9]",0.0,5.0,0.25925302505493164,1.5607640743255615,0.305571984984304,51.0,516.0,0.0
G,D,"[6, 9]",0.0,5.0,0.31636810302734375,1.9444050788879395,0.63280012243249,51.0,517.0,0.0
Y,R,"[6, 10]",1.0,6.0,0.24188518524169922,1.5538618564605713,0.3036684029196085,51.0,518.0,0.0
Y,R,"[6, 11]",0.0,6.0,0.7454249858856201,2.092179775238037,0.34555947221981365,51.0,519.0,0.0
B,L,"[6, 10]",0.0,6.0,0.3433408737182617,1.9037959575653076,0.5490514387737402,51.0,520.0,0.0
,,"(6, 6)",,,,,,,,
R,U,"[5, 6]",1.0,1.0,0.6075301170349121,3.4829161167144775,0.5150751025875027,52.0,521.0,0.0
Y,R,"[5, 7]",1.0,2.0,0.37801408767700195,1.8730239868164062,0.4879669162572231,52.0,522.0,0.0
Y,R,"[5, 8]",1.0,3.0,0.2839229106903076,1.5654540061950684,0.2868366195359635,52.0,523.0,0.0
G,D,"[6, 8]",1.0,4.0,0.31865692138671875,1.6142759323120117,0.3008616340363954,52.0,524.0,0.0
Y,R,"[6, 9]",1.0,5.0,0.18598294258117676,1.8122739791870117,0.6294652665797381,52.0,525.0,0.0
Y,R,"[6, 10]",1.0,6.0,0.2082822322845459,1.7331969738006592,0.5126981322186752,52.0,526.0,0.0
R,U,"[5, 10]",1.0,7.0,0.23127412796020508,1.6671321392059326,0.4296931697547868,52.0,527.0,0.0
R,U,"[4, 10]",1.0,8.0,0.42739391326904297,2.1421310901641846,0.7046556690372205,52.0,528.0,0.0
Y,R,"[4, 11]",-2.0,8.0,1.1411550045013428,2.800403118133545,0.6882228693738297,52.0,529.0,0.0
Y,R,"[4, 10]",-3.0,8.0,0.8248980045318604,2.361539125442505,0.5331007429687732,52.0,530.0,0.0
,,"(6, 6)",,,,,,,,
R,U,"[5, 6]",1.0,1.0,0.4744720458984375,10.193242073059082,0.3091265187621004,53.0,531.0,0.0
Y,R,"[5, 7]",1.0,2.0,0.22577714920043945,1.9207592010498047,0.6960505347882607,53.0,532.0,0.0
Y,R,"[5, 8]",-1.0,2.0,0.011780977249145508,5.495280981063843,0.40769622893760726,53.0,533.0,0.0
G,D,"[6, 8]",1.0,3.0,0.2940380573272705,2.0060181617736816,0.7135756918612035,53.0,534.0,0.0
Y,R,"[6, 9]",1.0,4.0,0.2098979949951172,1.6360290050506592,0.4161361892985039,53.0,535.0,0.0
Y,R,"[6, 10]",1.0,5.0,0.24907708168029785,1.7159888744354248,0.46526053886675023,53.0,536.0,0.0
R,U,"[5, 10]",1.0,6.0,0.14484310150146484,1.8660309314727783,0.714411679382007,53.0,537.0,0.0
B,L,"[5, 9]",-1.0,6.0,0.04326009750366211,5.366305828094482,0.26396107778348293,53.0,538.0,0.0
G,D,"[6, 9]",0.0,6.0,0.6059730052947998,2.01229190826416,0.39268142773203646,53.0,539.0,0.0
R,U,"[5, 9]",-2.0,6.0,1.9440891742706299,3.3340048789978027,0.4263955115334775,53.0,540.0,0.0
,,"(6, 6)",,,,,,,,
R,U,"[5, 6]",1.0,1.0,0.8637001514434814,4.882905006408691,0.2589719453815014,54.0,541.0,0.0
Y,R,"[5, 7]",1.0,2.0,0.5483078956604004,2.1536521911621094,0.6122134537435246,54.0,542.0,0.0
G,D,"[6, 7]",0.0,2.0,0.18157386779785156,1.7462339401245117,0.5583513581466235,54.0,543.0,0.0
G,D,"[7, 7]",0.0,2.0,0.2792050838470459,1.6753969192504883,0.4004681849474314,54.0,544.0,0.0
Y,R,"[7, 8]",0.0,2.0,0.5569779872894287,2.0757758617401123,0.5259695392754777,54.0,545.0,0.0
R,U,"[6, 8]",1.0,3.0,0.2701289653778076,1.6305620670318604,0.373127361942233,54.0,546.0,0.0
R,U,"[5, 8]",1.0,4.0,0.6709880828857422,2.3686540126800537,0.6916461887066756,54.0,547.0,0.0
B,L,"[5, 7]",0.0,4.0,0.9162330627441406,2.3787238597869873,0.46998700995101395,54.0,548.0,0.0
G,D,"[6, 7]",0.0,4.0,0.3238561153411865,1.6851799488067627,0.3551644149680354,54.0,549.0,0.0
G,D,"[7, 7]",-2.0,4.0,1.1705780029296875,2.6102230548858643,0.4816927693617578,54.0,550.0,0.0
,,"(6, 6)",,,,,,,,
R,U,"[5, 6]",1.0,1.0,0.2994959354400635,8.842917919158936,0.7071466148728384,55.0,551.0,0.0
Y,R,"[5, 7]",1.0,2.0,0.20937705039978027,1.526902198791504,0.31760266273593457,55.0,552.0,0.0
Y,R,"[5, 8]",1.0,3.0,0.27109694480895996,1.9367620944976807,0.6705533210972061,55.0,553.0,0.0
G,D,"[6, 8]",-1.0,3.0,0.07380509376525879,5.457937002182007,0.29513735165439414,55.0,554.0,0.0
Y,R,"[6, 9]",-2.0,3.0,1.3889970779418945,3.025455951690674,0.6699820716480657,55.0,555.0,0.0
Y,R,"[6, 10]",-2.0,3.0,4.309682130813599,5.9427330493927,0.6622209526930181,55.0,556.0,0.0
Y,R,"[6, 11]",-2.0,3.0,1.083655834197998,2.787024974822998,0.7323122328202027,55.0,557.0,0.0
Y,R,"[6, 10]",-3.0,3.0,0.22293806076049805,1.5001180171966553,0.2660144114162758,55.0,558.0,0.0
Y,R,"[6, 11]",-2.0,3.0,2.1411030292510986,3.6455881595611572,0.527745476781208,55.0,559.0,0.0
Y,R,"[6, 10]",-3.0,3.0,0.615839958190918,1.8829829692840576,0.27753011311596815,55.0,560.0,0.0
,,"(6, 6)",,,,,,,,
R,U,"[5, 6]",1.0,1.0,0.2918679714202881,4.993005990982056,0.27010611043639376,56.0,561.0,0.0
Y,R,"[5, 7]",1.0,2.0,0.2981529235839844,1.6322910785675049,0.3355736954879436,56.0,562.0,0.0
Y,R,"[5, 8]",1.0,3.0,0.21380901336669922,1.9644460678100586,0.7495058035226079,56.0,563.0,0.0
G,D,"[6, 8]",1.0,4.0,0.21016597747802734,1.6598470211029053,0.4426874909578608,56.0,564.0,0.0
Y,R,"[6, 9]",1.0,5.0,0.29412412643432617,1.947718858718872,0.6567257299962694,56.0,565.0,0.0
Y,R,"[6, 10]",1.0,6.0,0.3391120433807373,1.5958409309387207,0.2528524477335538,56.0,566.0,0.0
R,U,"[5, 10]",1.0,7.0,0.1466810703277588,1.4003729820251465,0.25317407762487215,56.0,567.0,0.0
R,U,"[4, 10]",1.0,8.0,0.3990929126739502,1.9944920539855957,0.5971170299009749,56.0,568.0,0.0
B,L,"[4, 9]",1.0,9.0,0.20805811882019043,1.847944974899292,0.6281825178304472,56.0,569.0,0.0
R,U,"[3, 9]",1.0,10.0,0.49960803985595703,2.1302568912506104,0.6417089132009772,56.0,570.0,0.0
,,"(6, 6)",,,,,,,,
R,U,"[5, 6]",1.0,1.0,0.4748661518096924,9.83028793334961,0.42140659387571644,57.0,571.0,0.0
Y,R,"[5, 7]",1.0,2.0,0.23631000518798828,1.9384400844573975,0.709441652170135,57.0,572.0,0.0
Y,R,"[5, 8]",1.0,3.0,0.18089914321899414,1.8780899047851562,0.7040533299969385,57.0,573.0,0.0
G,D,"[6, 8]",1.0,4.0,0.14725399017333984,1.7748548984527588,0.6288028801675271,57.0,574.0,0.0
Y,R,"[6, 9]",-1.0,4.0,0.03343796730041504,5.811730146408081,0.7067832296760873,57.0,575.0,0.0
Y,R,"[6, 10]",1.0,5.0,0.22388505935668945,1.7790601253509521,0.552378911401689,57.0,576.0,0.0
Y,R,"[6, 11]",0.0,5.0,0.3215751647949219,2.0308210849761963,0.7000569964461736,57.0,577.0,0.0
B,L,"[6, 10]",0.0,5.0,0.3861968517303467,2.0794830322265625,0.6954624896758341,57.0,578.0,0.0
B,L,"[6, 9]",0.0,5.0,0.15799212455749512,1.6262290477752686,0.4552013936292144,57.0,579.0,0.0
R,U,"[5, 9]",0.0,5.0,0.2575209140777588,1.922240972518921,0.6603583462255006,57.0,580.0,0.0
,,"(6, 6)",,,,,,,,
R,U,"[5, 6]",1.0,1.0,0.4755518436431885,5.692904949188232,0.253161299085826,58.0,581.0,0.0
Y,R,"[5, 7]",1.0,2.0,0.2827260494232178,1.7343800067901611,0.4539308074606804,58.0,582.0,0.0
Y,R,"[5, 8]",1.0,3.0,0.25415992736816406,1.8484020233154297,0.6019720320065876,58.0,583.0,0.0
G,D,"[6, 8]",1.0,4.0,0.22744107246398926,1.59791898727417,0.3667247865459881,58.0,584.0,0.0
Y,R,"[6, 9]",1.0,5.0,0.27810192108154297,1.9448869228363037,0.6615816411380802,58.0,585.0,0.0
Y,R,"[6, 10]",1.0,6.0,0.18677306175231934,1.9073867797851562,0.7350968755306181,58.0,586.0,0.0
R,U,"[5, 10]",1.0,7.0,0.3172938823699951,1.7619829177856445,0.4471190908335503,58.0,587.0,0.0
R,U,"[4, 10]",1.0,8.0,0.39746785163879395,2.1168198585510254,0.7135915157392207,58.0,588.0,0.0
B,L,"[4, 9]",1.0,9.0,0.2000579833984375,1.9044208526611328,0.7012325056698938,58.0,589.0,0.0
R,U,"[3, 9]",-1.0,9.0,0.08280491828918457,5.557186841964722,0.4082014199871453,58.0,590.0,0.0
,,"(6, 6)",,,,,,,,
R,U,"[5, 6]",1.0,1.0,0.6639881134033203,14.031962871551514,0.4888999469764564,59.0,591.0,0.0
Y,R,"[5, 7]",1.0,2.0,0.2941861152648926,2.0082449913024902,0.713347499964056,59.0,592.0,0.0
Y,R,"[5, 8]",1.0,3.0,0.19959402084350586,1.4874930381774902,0.28456614551096393,59.0,593.0,0.0
G,D,"[6, 8]",1.0,4.0,0.31818199157714844,1.5698621273040771,0.2543175323786845,59.0,594.0,0.0
Y,R,"[6, 9]",1.0,5.0,0.40058183670043945,2.144534111022949,0.7482493329858129,59.0,595.0,0.0
Y,R,"[6, 10]",1.0,6.0,0.255695104598999,1.9253261089324951,0.6734506327968519,59.0,596.0,0.0
R,U,"[5, 10]",1.0,7.0,0.21082520484924316,1.9322500228881836,0.7221547537366699,59.0,597.0,0.0
R,U,"[4, 10]",1.0,8.0,0.2624959945678711,1.7469780445098877,0.48607143788663915,59.0,598.0,0.0
B,L,"[4, 9]",1.0,9.0,0.5269958972930908,1.9042401313781738,0.37347457325685,59.0,599.0,0.0
R,U,"[3, 9]",1.0,10.0,0.4084289073944092,1.6971330642700195,0.28710690676270295,59.0,600.0,0.0
,,"(6, 6)",,,,,,,,
R,U,"[5, 6]",-2.0,0.0,1.1662728786468506,3.3943281173706055,0.29776381125169826,60.0,601.0,0.0
R,U,"[4, 6]",0.0,0.0,0.41742396354675293,1.843130111694336,0.42395874093543984,60.0,602.0,0.0
Y,R,"[4, 7]",0.0,0.0,0.6369349956512451,2.1295509338378906,0.5033852731144269,60.0,603.0,0.0
G,D,"[5, 7]",1.0,1.0,0.633793830871582,2.120274066925049,0.4901884104207242,60.0,604.0,0.0
Y,R,"[5, 8]",1.0,2.0,0.23208212852478027,1.8750419616699219,0.6482449762683261,60.0,605.0,0.0
Y,R,"[5, 9]",0.0,2.0,0.21174311637878418,1.6568379402160645,0.43850815343931443,60.0,606.0,0.0
R,U,"[4, 9]",1.0,3.0,0.45370006561279297,2.0615220069885254,0.6163307771728848,60.0,607.0,0.0
R,U,"[3, 9]",1.0,4.0,0.25304102897644043,1.9706008434295654,0.7199984414314637,60.0,608.0,0.0
B,L,"[3, 8]",0.0,4.0,0.22332501411437988,1.6841368675231934,0.45415815237602153,60.0,609.0,0.0
R,U,"[2, 8]",0.0,4.0,0.6721830368041992,2.386265993118286,0.7234369735432803,60.0,610.0,0.0
,,"(6, 6)",,,,,,,,
R,U,"[5, 6]",1.0,1.0,0.6094231605529785,3.574479103088379,0.6643772684819971,61.0,611.0,0.0
Y,R,"[5, 7]",1.0,2.0,0.17730402946472168,1.5909478664398193,0.4053723497644365,61.0,612.0,0.0
Y,R,"[5, 8]",1.0,3.0,0.32206010818481445,1.7240848541259766,0.39601042745566,61.0,613.0,0.0
G,D,"[6, 8]",1.0,4.0,0.24562311172485352,1.51289701461792,0.25880787105017133,61.0,614.0,0.0
Y,R,"[6, 9]",1.0,5.0,0.39367198944091797,2.0916199684143066,0.6999274317760742,61.0,615.0,0.0
Y,R,"[6, 10]",1.0,6.0,0.2655949592590332,1.7368359565734863,0.470222525562498,61.0,616.0,0.0
R,U,"[5, 10]",1.0,7.0,0.29725098609924316,1.647367000579834,0.3508503953642886,61.0,617.0,0.0
R,U,"[4, 10]",1.0,8.0,0.2832610607147217,1.7853379249572754,0.5025915446001128,61.0,618.0,0.0
B,L,"[4, 9]",1.0,9.0,0.21384406089782715,1.8323571681976318,0.6187349583543399,61.0,619.0,0.0
R,U,"[3, 9]",1.0,10.0,0.1744530200958252,1.5680160522460938,0.3871915261644689,61.0,620.0,0.0
,,"(6, 6)",,,,,,,,
R,U,"[5, 6]",1.0,1.0,0.9457941055297852,3.9177660942077637,0.4721894355448334,62.0,621.0,0.0
Y,R,"[5, 7]",1.0,2.0,0.23008418083190918,1.9381861686706543,0.7105760785345809,62.0,622.0,0.0
Y,R,"[5, 8]",1.0,3.0,0.43990206718444824,1.8407700061798096,0.4020162673446031,62.0,623.0,0.0
G,D,"[6, 8]",1.0,4.0,0.3567640781402588,1.61661696434021,0.25244798177780026,62.0,624.0,0.0
Y,R,"[6, 9]",1.0,5.0,0.4200000762939453,1.6658730506896973,0.25196611161811805,62.0,625.0,0.0
Y,R,"[6, 10]",1.0,6.0,0.4004700183868408,1.9457149505615234,0.548003380637182,62.0,626.0,0.0
R,U,"[5, 10]",1.0,7.0,0.24348902702331543,1.534839153289795,0.2830104267124453,62.0,627.0,0.0
R,U,"[4, 10]",1.0,8.0,0.3160219192504883,1.965149164199829,0.648570039875311,62.0,628.0,0.0
B,L,"[4, 9]",1.0,9.0,0.28441500663757324,1.8034870624542236,0.5189049874928292,62.0,629.0,0.0
R,U,"[3, 9]",1.0,10.0,0.23358917236328125,1.7063140869140625,0.47548025615197403,62.0,630.0,0.0
,,"(6, 6)",,,,,,,,
R,U,"[5, 6]",1.0,1.0,0.44341278076171875,3.1640920639038086,0.34040063262152426,63.0,631.0,0.0
Y,R,"[5, 7]",1.0,2.0,0.23964500427246094,1.6438899040222168,0.4177539844181354,63.0,632.0,0.0
Y,R,"[5, 8]",1.0,3.0,0.3186018466949463,1.7001690864562988,0.38496715949411014,63.0,633.0,0.0
G,D,"[6, 8]",1.0,4.0,0.5645921230316162,1.8370471000671387,0.27244164527553527,63.0,634.0,0.0
Y,R,"[6, 9]",1.0,5.0,0.236314058303833,1.9348552227020264,0.7070821095731257,63.0,635.0,0.0
Y,R,"[6, 10]",1.0,6.0,0.2252671718597412,1.967331886291504,0.7414084756867487,63.0,636.0,0.0
R,U,"[5, 10]",1.0,7.0,0.2952880859375,1.753082036972046,0.46181456942801935,63.0,637.0,0.0
R,U,"[4, 10]",1.0,8.0,0.2909269332885742,1.942812204360962,0.6547419350756961,63.0,638.0,0.0
B,L,"[4, 9]",1.0,9.0,0.2862691879272461,1.742539882659912,0.4644096744595447,63.0,639.0,0.0
R,U,"[3, 9]",1.0,10.0,0.2895169258117676,1.9261760711669922,0.6240698328834446,63.0,640.0,0.0
,,"(6, 6)",,,,,,,,
R,U,"[5, 6]",1.0,1.0,0.5953259468078613,3.314181089401245,0.47246436642017603,64.0,641.0,0.0
Y,R,"[5, 7]",1.0,2.0,0.2228531837463379,1.6275370121002197,0.40018033140301346,64.0,642.0,0.0
Y,R,"[5, 8]",1.0,3.0,0.23206305503845215,1.8957200050354004,0.6625331165454724,64.0,643.0,0.0
G,D,"[6, 8]",1.0,4.0,0.18354201316833496,1.6568231582641602,0.4698785995225751,64.0,644.0,0.0
B,L,"[6, 7]",0.0,4.0,0.23449301719665527,1.8402760028839111,0.6102357738299916,64.0,645.0,0.0
R,U,"[5, 7]",0.0,4.0,0.671104907989502,1.9854638576507568,0.3129457313632951,64.0,646.0,0.0
R,U,"[4, 7]",0.0,4.0,0.20512914657592773,1.4685981273651123,0.26533364043018115,64.0,647.0,0.0
R,U,"[3, 7]",0.0,4.0,0.17667412757873535,1.8975610733032227,0.7125285037836417,64.0,648.0,0.0
R,U,"[2, 7]",0.0,4.0,0.3373570442199707,2.0171799659729004,0.6800932636755721,64.0,649.0,0.0
R,U,"[1, 7]",-2.0,4.0,1.1446659564971924,2.576601982116699,0.45719237188891687,64.0,650.0,0.0
,,"(6, 6)",,,,,,,,
R,U,"[5, 6]",1.0,1.0,0.4204869270324707,2.1655280590057373,0.2567455914111074,65.0,651.0,0.0
Y,R,"[5, 7]",1.0,2.0,0.23236393928527832,1.7276530265808105,0.5009895607188819,65.0,652.0,0.0
Y,R,"[5, 8]",1.0,3.0,0.21908307075500488,1.5733180046081543,0.35810985389515737,65.0,653.0,0.0
G,D,"[6, 8]",1.0,4.0,0.21053385734558105,1.6813230514526367,0.47273354763215314,65.0,654.0,0.0
Y,R,"[6, 9]",1.0,5.0,0.2149980068206787,1.9263720512390137,0.7159721865441593,65.0,655.0,0.0
Y,R,"[6, 10]",1.0,6.0,0.285660982131958,1.5422837734222412,0.2588494419321891,65.0,656.0,0.0
R,U,"[5, 10]",1.0,7.0,0.42041802406311035,1.8217051029205322,0.4141693869485561,65.0,657.0,0.0
R,U,"[4, 10]",1.0,8.0,0.27098703384399414,1.6013638973236084,0.3322561076212123,65.0,658.0,0.0
B,L,"[4, 9]",1.0,9.0,0.2579689025878906,1.70359206199646,0.4360629654199008,65.0,659.0,0.0
R,U,"[3, 9]",1.0,10.0,0.4358999729156494,2.051909923553467,0.6212689038426452,65.0,660.0,0.0
,,"(6, 6)",,,,,,,,
R,U,"[5, 6]",1.0,1.0,0.8445909023284912,19.742292881011963,0.7330436145198541,66.0,661.0,0.0
Y,R,"[5, 7]",1.0,2.0,0.21982908248901367,1.9370229244232178,0.7199449995094356,66.0,662.0,0.0
G,D,"[6, 7]",0.0,2.0,0.16756796836853027,1.7791950702667236,0.6161641974089249,66.0,663.0,0.0
G,D,"[7, 7]",0.0,2.0,0.36208200454711914,2.0338540077209473,0.6668425517250773,66.0,664.0,0.0
Y,R,"[7, 8]",0.0,2.0,0.22181200981140137,1.5321729183197021,0.31612871205160004,66.0,665.0,0.0
Y,R,"[7, 9]",0.0,2.0,0.5004119873046875,2.2265820503234863,0.7264087101348233,66.0,666.0,0.0
R,U,"[6, 9]",-1.0,2.0,0.024662017822265625,5.751634120941162,0.6782574349150143,66.0,667.0,0.0
R,U,"[5, 9]",0.0,2.0,0.485414981842041,1.9347081184387207,0.4633396558936199,66.0,668.0,0.0
R,U,"[4, 9]",1.0,3.0,0.6936829090118408,2.1826300621032715,0.4796223584275762,66.0,669.0,0.0
R,U,"[3, 9]",1.0,4.0,0.6153378486633301,2.323169231414795,0.7028099260436633,66.0,670.0,0.0
,,"(6, 6)",,,,,,,,
R,U,"[5, 6]",1.0,1.0,0.42395591735839844,6.184133052825928,0.40453735094384125,67.0,671.0,0.0
Y,R,"[5, 7]",1.0,2.0,0.14160585403442383,1.7643399238586426,0.6188490345816691,67.0,672.0,0.0
Y,R,"[5, 8]",1.0,3.0,0.3245818614959717,1.9104728698730469,0.5794948461365027,67.0,673.0,0.0
G,D,"[6, 8]",1.0,4.0,0.39722490310668945,1.892179012298584,0.48868895853281563,67.0,674.0,0.0
R,U,"[5, 8]",0.0,4.0,0.42253899574279785,1.832772970199585,0.4050969897272467,67.0,675.0,0.0
R,U,"[4, 8]",0.0,4.0,0.5321969985961914,2.151900053024292,0.6239703759592989,67.0,676.0,0.0
R,U,"[3, 8]",0.0,4.0,0.10227203369140625,1.5664660930633545,0.4736182610746859,67.0,677.0,0.0
R,U,"[2, 8]",0.0,4.0,0.16855096817016602,1.6556990146636963,0.49608436578116144,67.0,678.0,0.0
R,U,"[1, 8]",0.0,4.0,0.3998229503631592,2.1335439682006836,0.729663850207591,67.0,679.0,0.0
R,U,"[2, 8]",-3.0,4.0,0.8644449710845947,2.3895349502563477,0.5195259702012822,67.0,680.0,0.0
,,"(6, 6)",,,,,,,,
R,U,"[5, 6]",1.0,1.0,0.3437941074371338,13.153931140899658,0.3083195260008601,68.0,681.0,0.0
Y,R,"[5, 7]",1.0,2.0,0.41110920906066895,1.8071279525756836,0.3987448819894705,68.0,682.0,0.0
Y,R,"[5, 8]",1.0,3.0,0.28461599349975586,1.8731739521026611,0.5886567535097187,68.0,683.0,0.0
G,D,"[6, 8]",1.0,4.0,0.3706650733947754,2.092167854309082,0.7307650808159315,68.0,684.0,0.0
Y,R,"[6, 9]",1.0,5.0,0.2023000717163086,1.8419480323791504,0.6396685435063512,68.0,685.0,0.0
Y,R,"[6, 10]",1.0,6.0,0.2583930492401123,1.6390480995178223,0.37913315960892413,68.0,686.0,0.0
R,U,"[5, 10]",1.0,7.0,0.42229294776916504,1.7958550453186035,0.35849021458951347,68.0,687.0,0.0
R,U,"[4, 10]",1.0,8.0,0.2970259189605713,1.6698310375213623,0.37841359917307293,68.0,688.0,0.0
B,L,"[4, 9]",1.0,9.0,0.21334505081176758,1.51682710647583,0.3121009029172071,68.0,689.0,0.0
R,U,"[3, 9]",1.0,10.0,0.2582550048828125,1.5060739517211914,0.2516945795488598,68.0,690.0,0.0
,,"(6, 6)",,,,,,,,
R,U,"[5, 6]",1.0,1.0,0.4053070545196533,5.339273929595947,0.524606276112844,69.0,691.0,0.0
Y,R,"[5, 7]",1.0,2.0,0.45659804344177246,1.7776718139648438,0.3357429594373309,69.0,692.0,0.0
Y,R,"[5, 8]",1.0,3.0,0.26625585556030273,1.5516889095306396,0.2876062100913479,69.0,693.0,0.0
G,D,"[6, 8]",1.0,4.0,0.27121901512145996,1.9106571674346924,0.6479453025020566,69.0,694.0,0.0
Y,R,"[6, 9]",1.0,5.0,0.26655006408691406,1.8166451454162598,0.5480999244038717,69.0,695.0,0.0
Y,R,"[6, 10]",1.0,6.0,0.22188091278076172,1.5762109756469727,0.3580920146269577,69.0,696.0,0.0
R,U,"[5, 10]",1.0,7.0,0.3622429370880127,1.7922208309173584,0.43356741475754795,69.0,697.0,0.0
R,U,"[4, 10]",-1.0,7.0,0.06929302215576172,5.799824953079224,0.666964762648349,69.0,698.0,0.0
B,L,"[4, 9]",1.0,8.0,0.20560908317565918,1.4979379177093506,0.2987204712131427,69.0,699.0,0.0
R,U,"[3, 9]",1.0,9.0,0.26419711112976074,1.630143165588379,0.3621533317995337,69.0,700.0,0.0
,,"(6, 6)",,,,,,,,
R,U,"[5, 6]",1.0,1.0,0.7489149570465088,4.0132060050964355,0.4421873457059744,70.0,701.0,0.0
Y,R,"[5, 7]",1.0,2.0,0.5208189487457275,2.0727179050445557,0.5650220607915686,70.0,702.0,0.0
Y,R,"[5, 8]",1.0,3.0,0.3326570987701416,2.0140819549560547,0.6791071415658725,70.0,703.0,0.0
G,D,"[6, 8]",1.0,4.0,0.1648120880126953,1.8214118480682373,0.6506356331990321,70.0,704.0,0.0
Y,R,"[6, 9]",1.0,5.0,0.22512412071228027,1.699258804321289,0.46675889793401815,70.0,705.0,0.0
Y,R,"[6, 10]",1.0,6.0,0.3141210079193115,1.794193983078003,0.4777823464114348,70.0,706.0,0.0
R,U,"[5, 10]",1.0,7.0,0.19787192344665527,1.6472737789154053,0.4585596654743516,70.0,707.0,0.0
R,U,"[4, 10]",1.0,8.0,0.4127190113067627,2.125586986541748,0.7172861369903709,70.0,708.0,0.0
B,L,"[4, 9]",1.0,9.0,0.2123270034790039,1.7355129718780518,0.5197542758248679,70.0,709.0,0.0
R,U,"[3, 9]",-1.0,9.0,0.07493400573730469,5.749819993972778,0.6030363163100283,70.0,710.0,0.0
,,"(6, 6)",,,,,,,,
R,U,"[5, 6]",1.0,1.0,0.9284870624542236,12.386098146438599,0.5066136380712574,71.0,711.0,0.0
Y,R,"[5, 7]",-1.0,1.0,0.05109095573425293,5.6849260330200195,0.5750569163967775,71.0,712.0,0.0
Y,R,"[5, 8]",1.0,2.0,0.2062220573425293,1.7291700839996338,0.5377268430516828,71.0,713.0,0.0
G,D,"[6, 8]",1.0,3.0,0.3418769836425781,1.907616138458252,0.5620764885583586,71.0,714.0,0.0
Y,R,"[6, 9]",1.0,4.0,0.4362201690673828,1.9269790649414062,0.4891047272406311,71.0,715.0,0.0
Y,R,"[6, 10]",1.0,5.0,0.5635240077972412,1.915024995803833,0.3544445536274256,71.0,716.0,0.0
R,U,"[5, 10]",1.0,6.0,0.25493502616882324,1.9116291999816895,0.6658462440350207,71.0,717.0,0.0
R,U,"[4, 10]",1.0,7.0,0.2441251277923584,1.9794869422912598,0.7286613237203782,71.0,718.0,0.0
B,L,"[4, 9]",-1.0,7.0,0.04804587364196777,5.480353832244873,0.3596244226902813,71.0,719.0,0.0
G,D,"[5, 9]",0.0,7.0,0.6571178436279297,2.333456039428711,0.6761928914898616,71.0,720.0,0.0
,,"(6, 6)",,,,,,,,
R,U,"[5, 6]",1.0,1.0,0.41980886459350586,8.191009998321533,0.26794720131615235,72.0,721.0,0.0
Y,R,"[5, 7]",1.0,2.0,0.44309115409851074,1.7705068588256836,0.321640808551569,72.0,722.0,0.0
Y,R,"[5, 8]",1.0,3.0,0.2409980297088623,1.5825159549713135,0.3376896496433279,72.0,723.0,0.0
G,D,"[6, 8]",1.0,4.0,0.4065890312194824,1.6568679809570312,0.26131000295380663,72.0,724.0,0.0
Y,R,"[6, 9]",1.0,5.0,0.2436230182647705,1.803797960281372,0.5648556023364326,72.0,725.0,0.0
Y,R,"[6, 10]",-1.0,5.0,0.08900594711303711,5.782473087310791,0.6141289098604055,72.0,726.0,0.0
R,U,"[5, 10]",1.0,6.0,0.7749249935150146,2.397258996963501,0.6115149057213889,72.0,727.0,0.0
R,U,"[4, 10]",1.0,7.0,0.18125510215759277,1.5339720249176025,0.3624215459359072,72.0,728.0,0.0
B,L,"[4, 9]",1.0,8.0,0.25846099853515625,1.9274051189422607,0.6562714328136547,72.0,729.0,0.0
R,U,"[3, 9]",1.0,9.0,0.24711394309997559,1.6957480907440186,0.4521675678274938,72.0,730.0,0.0
,,"(6, 6)",,,,,,,,
R,U,"[5, 6]",1.0,1.0,0.6986019611358643,24.92454504966736,0.5273748661634854,73.0,731.0,0.0
Y,R,"[5, 7]",1.0,2.0,0.31384897232055664,1.8011140823364258,0.495225820085993,73.0,732.0,0.0
Y,R,"[5, 8]",1.0,3.0,0.3014640808105469,1.5991218090057373,0.31122094167268854,73.0,733.0,0.0
G,D,"[6, 8]",1.0,4.0,0.2876930236816406,1.8697729110717773,0.597246005825519,73.0,734.0,0.0
Y,R,"[6, 9]",1.0,5.0,0.3343682289123535,1.7253990173339844,0.389575711006629,73.0,735.0,0.0
Y,R,"[6, 10]",1.0,6.0,0.22473788261413574,1.6546878814697266,0.427656292004481,73.0,736.0,0.0
R,U,"[5, 10]",1.0,7.0,0.3266310691833496,1.7910139560699463,0.46870066502592156,73.0,737.0,0.0
R,U,"[4, 10]",1.0,8.0,0.2566390037536621,1.8491477966308594,0.5844252021516524,73.0,738.0,0.0
B,L,"[4, 9]",1.0,9.0,0.4906151294708252,1.7593059539794922,0.26068375532062715,73.0,739.0,0.0
R,U,"[3, 9]",1.0,10.0,0.3696279525756836,1.7167539596557617,0.36080016945587706,73.0,740.0,0.0
,,"(6, 6)",,,,,,,,
R,U,"[5, 6]",1.0,1.0,0.5542731285095215,18.125606060028076,0.3866216468714581,74.0,741.0,0.0
Y,R,"[5, 7]",1.0,2.0,0.34583306312561035,2.0370290279388428,0.6900394198675759,74.0,742.0,0.0
Y,R,"[5, 8]",1.0,3.0,0.2101759910583496,1.9011609554290771,0.6911105240660894,74.0,743.0,0.0
G,D,"[6, 8]",1.0,4.0,0.21212100982666016,1.4977657794952393,0.2894554997148148,74.0,744.0,0.0
Y,R,"[6, 9]",1.0,5.0,0.25542116165161133,1.5219449996948242,0.2612700376282805,74.0,745.0,0.0
Y,R,"[6, 10]",1.0,6.0,0.15824413299560547,1.727843999862671,0.5721576153621998,74.0,746.0,0.0
R,U,"[5, 10]",1.0,7.0,0.37305593490600586,1.8062269687652588,0.42871782326115737,74.0,747.0,0.0
R,U,"[4, 10]",1.0,8.0,0.2449040412902832,1.8125300407409668,0.5747926626337934,74.0,748.0,0.0
B,L,"[4, 9]",1.0,9.0,0.3593769073486328,1.6734950542449951,0.31474541224531505,74.0,749.0,0.0
R,U,"[3, 9]",1.0,10.0,0.505108118057251,2.2320499420166016,0.7135279832650395,74.0,750.0,0.0
,,"(6, 6)",,,,,,,,
R,U,"[5, 6]",1.0,1.0,0.5692479610443115,3.354071855545044,0.40093513457702495,75.0,751.0,0.0
Y,R,"[5, 7]",1.0,2.0,0.2588651180267334,1.6712160110473633,0.4053723047647388,75.0,752.0,0.0
Y,R,"[5, 8]",1.0,3.0,0.18203091621398926,1.6066160202026367,0.4287108277326627,75.0,753.0,0.0
G,D,"[6, 8]",1.0,4.0,0.17132210731506348,1.5319159030914307,0.360648960849837,75.0,754.0,0.0
Y,R,"[6, 9]",1.0,5.0,0.269683837890625,1.7200171947479248,0.4639267654173599,75.0,755.0,0.0
Y,R,"[6, 10]",1.0,6.0,0.2655298709869385,1.8473730087280273,0.5779282398679306,75.0,756.0,0.0
R,U,"[5, 10]",1.0,7.0,0.16751503944396973,1.7622129917144775,0.6068140844270822,75.0,757.0,0.0
R,U,"[4, 10]",1.0,8.0,0.1943202018737793,1.737023115158081,0.5439124394098207,75.0,758.0,0.0
B,L,"[4, 9]",-1.0,8.0,0.05132794380187988,5.643697023391724,0.5376463170691522,75.0,759.0,0.0
R,U,"[3, 9]",1.0,9.0,0.1743631362915039,1.5147621631622314,0.33580686917367114,75.0,760.0,0.0
,,"(6, 6)",,,,,,,,
R,U,"[5, 6]",1.0,1.0,0.23945903778076172,9.382739067077637,0.4518306179482451,76.0,761.0,0.0
Y,R,"[5, 7]",1.0,2.0,0.2549149990081787,1.6893680095672607,0.4246353317198405,76.0,762.0,0.0
Y,R,"[5, 8]",-2.0,2.0,1.061532974243164,2.297693967819214,0.27245265962442566,76.0,763.0,0.0
G,D,"[6, 8]",1.0,3.0,0.5735218524932861,2.159075975418091,0.5812343892351812,76.0,764.0,0.0
Y,R,"[6, 9]",1.0,4.0,0.23807597160339355,1.6416959762573242,0.4064454645864194,76.0,765.0,0.0
Y,R,"[6, 10]",1.0,5.0,0.3415699005126953,2.0661399364471436,0.722287277276268,76.0,766.0,0.0
R,U,"[5, 10]",-1.0,5.0,0.08262085914611816,5.546203851699829,0.40206947362306694,76.0,767.0,0.0
G,D,"[6, 10]",0.0,5.0,0.18929600715637207,1.850606918334961,0.6691661973880833,76.0,768.0,0.0
R,U,"[5, 10]",0.0,5.0,0.20370221138000488,1.4643771648406982,0.26720833166244645,76.0,769.0,0.0
R,U,"[4, 10]",1.0,6.0,0.9406290054321289,2.472095012664795,0.5223857837537764,76.0,770.0,0.0
,,"(6, 6)",,,,,,,,
R,U,"[5, 6]",1.0,1.0,0.38559603691101074,9.365967035293579,0.5715865947093641,77.0,771.0,0.0
Y,R,"[5, 7]",1.0,2.0,0.38266611099243164,1.6970710754394531,0.3188245299821996,77.0,772.0,0.0
Y,R,"[5, 8]",1.0,3.0,0.3676619529724121,1.7679660320281982,0.40340048071432516,77.0,773.0,0.0
G,D,"[6, 8]",1.0,4.0,0.3889920711517334,1.957712173461914,0.5775280291739464,77.0,774.0,0.0
Y,R,"[6, 9]",1.0,5.0,0.26792001724243164,1.762740135192871,0.5070766458414342,77.0,775.0,0.0
Y,R,"[6, 10]",1.0,6.0,0.2323148250579834,1.6359319686889648,0.40977701209017314,77.0,776.0,0.0
R,U,"[5, 10]",1.0,7.0,0.2708761692047119,1.5485851764678955,0.2917803977615589,77.0,777.0,0.0
R,U,"[4, 10]",1.0,8.0,0.32793402671813965,1.7002840042114258,0.37533219914526206,77.0,778.0,0.0
B,L,"[4, 9]",1.0,9.0,0.3079109191894531,2.0503408908843994,0.7424318046712367,77.0,779.0,0.0
R,U,"[3, 9]",1.0,10.0,0.2398700714111328,1.6174638271331787,0.39310024027352586,77.0,780.0,0.0
,,"(6, 6)",,,,,,,,
R,U,"[5, 6]",1.0,1.0,0.561547040939331,3.576503038406372,0.35294895450800307,78.0,781.0,0.0
Y,R,"[5, 7]",1.0,2.0,0.34807395935058594,1.6164541244506836,0.2694347919363778,78.0,782.0,0.0
Y,R,"[5, 8]",1.0,3.0,0.2872037887573242,1.6732029914855957,0.3924414302777705,78.0,783.0,0.0
G,D,"[6, 8]",1.0,4.0,0.5814590454101562,2.10624098777771,0.5319007053854319,78.0,784.0,0.0
Y,R,"[6, 9]",1.0,5.0,0.34183597564697266,2.071540117263794,0.7199461912790452,78.0,785.0,0.0
Y,R,"[6, 10]",1.0,6.0,0.2626960277557373,1.8981590270996094,0.6347799918323989,78.0,786.0,0.0
R,U,"[5, 10]",1.0,7.0,0.2131180763244629,1.643618106842041,0.4285897267118244,78.0,787.0,0.0
R,U,"[4, 10]",1.0,8.0,0.34955716133117676,2.0608670711517334,0.7229206843393232,78.0,788.0,0.0
B,L,"[4, 9]",1.0,9.0,0.21208977699279785,1.6433250904083252,0.4327328964187776,78.0,789.0,0.0
R,U,"[3, 9]",1.0,10.0,0.40408802032470703,1.9627511501312256,0.5620830229175178,78.0,790.0,0.0
,,"(6, 6)",,,,,,,,
R,U,"[5, 6]",1.0,1.0,0.3973519802093506,6.899979114532471,0.6285408409651438,79.0,791.0,0.0
Y,R,"[5, 7]",1.0,2.0,0.22457098960876465,1.6771571636199951,0.4557787533413722,79.0,792.0,0.0
Y,R,"[5, 8]",1.0,3.0,0.34769296646118164,1.9418070316314697,0.5977593461576003,79.0,793.0,0.0
G,D,"[6, 8]",1.0,4.0,0.26621389389038086,1.5266950130462646,0.25786402677324843,79.0,794.0,0.0
Y,R,"[6, 9]",1.0,5.0,0.3580141067504883,1.7725040912628174,0.41340967545648116,79.0,795.0,0.0
Y,R,"[6, 10]",1.0,6.0,0.3256361484527588,1.8738300800323486,0.5371643641143893,79.0,796.0,0.0
R,U,"[5, 10]",1.0,7.0,0.4500279426574707,2.034071922302246,0.5877638175122926,79.0,797.0,0.0
R,U,"[4, 10]",1.0,8.0,0.23633193969726562,1.5742690563201904,0.3455759051063286,79.0,798.0,0.0
B,L,"[4, 9]",1.0,9.0,0.25629210472106934,1.578031063079834,0.3070472380310898,79.0,799.0,0.0
R,U,"[3, 9]",1.0,10.0,0.28157997131347656,1.705260992050171,0.428834326404181,79.0,800.0,0.0
,,"(6, 6)",,,,,,,,
R,U,"[5, 6]",1.0,1.0,0.47367095947265625,3.4775309562683105,0.6394355088138424,80.0,801.0,0.0
Y,R,"[5, 7]",1.0,2.0,0.2725379467010498,1.6631948947906494,0.3860515503006389,80.0,802.0,0.0
Y,R,"[5, 8]",1.0,3.0,0.49857401847839355,2.190694808959961,0.6931903102356075,80.0,803.0,0.0
G,D,"[6, 8]",1.0,4.0,0.1822209358215332,1.5360350608825684,0.3628997855660896,80.0,804.0,0.0
Y,R,"[6, 9]",1.0,5.0,0.3302290439605713,1.9606430530548096,0.623254205798381,80.0,805.0,0.0
Y,R,"[6, 10]",1.0,6.0,0.22614383697509766,1.7686920166015625,0.5419338594731553,80.0,806.0,0.0
R,U,"[5, 10]",1.0,7.0,0.3219139575958252,1.6124258041381836,0.2879445086678722,80.0,807.0,0.0
G,D,"[6, 10]",-2.0,7.0,1.1376891136169434,2.357970952987671,0.26257931902950443,80.0,808.0,0.0
R,U,"[5, 10]",0.0,7.0,0.42713117599487305,1.6973819732666016,0.259802861422279,80.0,809.0,0.0
R,U,"[4, 10]",1.0,8.0,0.8897831439971924,2.2481579780578613,0.3579111292816219,80.0,810.0,0.0
,,"(6, 6)",,,,,,,,
R,U,"[5, 6]",1.0,1.0,0.28797316551208496,7.367211818695068,0.6247093279178146,81.0,811.0,0.0
Y,R,"[5, 7]",1.0,2.0,0.32416486740112305,1.783134937286377,0.4580191421429576,81.0,812.0,0.0
Y,R,"[5, 8]",1.0,3.0,0.18170499801635742,1.7013969421386719,0.5258992278755299,81.0,813.0,0.0
G,D,"[6, 8]",1.0,4.0,0.293720006942749,1.5873501300811768,0.29690853066452677,81.0,814.0,0.0
Y,R,"[6, 9]",1.0,5.0,0.22465300559997559,1.614180088043213,0.3775836312012342,81.0,815.0,0.0
Y,R,"[6, 10]",1.0,6.0,0.23973894119262695,1.614948034286499,0.37590829671432546,81.0,816.0,0.0
R,U,"[5, 10]",1.0,7.0,0.25301599502563477,1.8133518695831299,0.5724051453381562,81.0,817.0,0.0
R,U,"[4, 10]",1.0,8.0,0.20431089401245117,1.599010944366455,0.40481494941318913,81.0,818.0,0.0
B,L,"[4, 9]",1.0,9.0,0.294327974319458,2.0347061157226562,0.7391528642949933,81.0,819.0,0.0
R,U,"[3, 9]",1.0,10.0,0.22297000885009766,1.56439208984375,0.33721958037423794,81.0,820.0,0.0
,,"(6, 6)",,,,,,,,
R,U,"[5, 6]",1.0,1.0,0.38176393508911133,13.966813087463379,0.30378128460751735,82.0,821.0,0.0
Y,R,"[5, 7]",1.0,2.0,0.23449182510375977,1.8143668174743652,0.5844530025428751,82.0,822.0,0.0
Y,R,"[5, 8]",1.0,3.0,0.1533501148223877,1.8338308334350586,0.68481706396873,82.0,823.0,0.0
G,D,"[6, 8]",1.0,4.0,0.2565269470214844,1.5286109447479248,0.2638098940389484,82.0,824.0,0.0
Y,R,"[6, 9]",1.0,5.0,0.7182080745697021,2.2827818393707275,0.5628667215673653,82.0,825.0,0.0
Y,R,"[6, 10]",1.0,6.0,0.2899010181427002,1.5545101165771484,0.2510707099095932,82.0,826.0,0.0
R,U,"[5, 10]",1.0,7.0,0.45686793327331543,1.9276189804077148,0.4617247710455058,82.0,827.0,0.0
R,U,"[4, 10]",1.0,8.0,0.3471498489379883,1.680440902709961,0.34218515207027006,82.0,828.0,0.0
B,L,"[4, 9]",1.0,9.0,0.2338700294494629,1.7611031532287598,0.536475637212567,82.0,829.0,0.0
R,U,"[3, 9]",1.0,10.0,0.26607513427734375,1.6210870742797852,0.35771987181068216,82.0,830.0,0.0
,,"(6, 6)",,,,,,,,
R,U,"[5, 6]",1.0,1.0,0.45938587188720703,4.920489072799683,0.32796545406803296,83.0,831.0,0.0
Y,R,"[5, 7]",1.0,2.0,0.4777228832244873,1.8443779945373535,0.3723858473324522,83.0,832.0,0.0
Y,R,"[5, 8]",1.0,3.0,0.24872112274169922,1.736814022064209,0.49230000746477065,83.0,833.0,0.0
Y,R,"[5, 9]",0.0,3.0,0.8353209495544434,2.1477911472320557,0.32343318519786746,83.0,834.0,0.0
Y,R,"[5, 10]",1.0,4.0,0.5723741054534912,2.1128299236297607,0.5526912840023805,83.0,835.0,0.0
Y,R,"[5, 11]",0.0,4.0,0.3217020034790039,1.7358970642089844,0.4220003281831563,83.0,836.0,0.0
R,U,"[4, 11]",0.0,4.0,0.2984781265258789,1.816148042678833,0.5213335015835237,83.0,837.0,0.0
B,L,"[4, 10]",1.0,5.0,0.2766861915588379,1.8421669006347656,0.5635653598952339,83.0,838.0,0.0
G,D,"[5, 10]",0.0,5.0,0.34560680389404297,2.0047249794006348,0.6516000263874572,83.0,839.0,0.0
R,U,"[4, 10]",0.0,5.0,0.9436619281768799,2.465085029602051,0.5165640164093785,83.0,840.0,0.0
,,"(6, 6)",,,,,,,,
R,U,"[5, 6]",1.0,1.0,0.3923609256744385,9.17674207687378,0.27664044229719464,84.0,841.0,0.0
Y,R,"[5, 7]",1.0,2.0,0.17535400390625,1.8916540145874023,0.7178071170896855,84.0,842.0,0.0
Y,R,"[5, 8]",1.0,3.0,0.12873601913452148,1.710103988647461,0.5780256774924799,84.0,843.0,0.0
G,D,"[6, 8]",-1.0,3.0,0.03783392906188965,5.593782901763916,0.5050457894893008,84.0,844.0,0.0
Y,R,"[6, 9]",1.0,4.0,0.2311840057373047,1.8107428550720215,0.5825203836286532,84.0,845.0,0.0
Y,R,"[6, 10]",1.0,5.0,0.19466090202331543,1.775195837020874,0.5740856273216974,84.0,846.0,0.0
R,U,"[5, 10]",-1.0,5.0,0.01046299934387207,5.391703844070435,0.31595257069491955,84.0,847.0,0.0
R,U,"[4, 10]",1.0,6.0,0.23478388786315918,1.7810800075531006,0.5467322229281159,84.0,848.0,0.0
B,L,"[4, 9]",1.0,7.0,0.21137499809265137,1.7153551578521729,0.4953099592223443,84.0,849.0,0.0
R,U,"[3, 9]",1.0,8.0,0.2577059268951416,1.6414880752563477,0.370328019504557,84.0,850.0,0.0
,,"(6, 6)",,,,,,,,
R,U,"[5, 6]",1.0,1.0,0.4551830291748047,3.1635549068450928,0.500351236649417,85.0,851.0,0.0
Y,R,"[5, 7]",1.0,2.0,0.17981791496276855,1.6966030597686768,0.513476153169117,85.0,852.0,0.0
Y,R,"[5, 8]",1.0,3.0,0.21465611457824707,1.5727288722991943,0.3530364181527167,85.0,853.0,0.0
G,D,"[6, 8]",1.0,4.0,0.283998966217041,1.9585061073303223,0.6777211627001478,85.0,854.0,0.0
Y,R,"[6, 9]",1.0,5.0,0.19602298736572266,1.5371730327606201,0.348635308729933,85.0,855.0,0.0
Y,R,"[6, 10]",1.0,6.0,0.5151700973510742,1.8858630657196045,0.3677068531989741,85.0,856.0,0.0
R,U,"[5, 10]",1.0,7.0,0.38164186477661133,1.8011729717254639,0.4186660299032902,85.0,857.0,0.0
R,U,"[4, 10]",1.0,8.0,0.32778191566467285,2.032366991043091,0.7007126391746322,85.0,858.0,0.0
B,L,"[4, 9]",1.0,9.0,0.17623496055603027,1.8849170207977295,0.7023582432298885,85.0,859.0,0.0
R,U,"[3, 9]",1.0,10.0,0.22706890106201172,1.5727219581604004,0.3420471698881597,85.0,860.0,0.0
,,"(6, 6)",,,,,,,,
R,U,"[5, 6]",1.0,1.0,0.4582560062408447,3.682912826538086,0.541320037535979,86.0,861.0,0.0
Y,R,"[5, 7]",1.0,2.0,0.24001002311706543,1.6613121032714844,0.41937373610576184,86.0,862.0,0.0
Y,R,"[5, 8]",1.0,3.0,0.2534778118133545,1.6932051181793213,0.445803435158947,86.0,863.0,0.0
G,D,"[6, 8]",1.0,4.0,0.40025901794433594,2.118151903152466,0.7136872752639143,86.0,864.0,0.0
Y,R,"[6, 9]",1.0,5.0,0.17052006721496582,1.8527560234069824,0.6830418167475226,86.0,865.0,0.0
Y,R,"[6, 10]",1.0,6.0,0.2295389175415039,1.8670530319213867,0.6333939800648956,86.0,866.0,0.0
R,U,"[5, 10]",1.0,7.0,0.26990604400634766,1.7280218601226807,0.4615568825956736,86.0,867.0,0.0
R,U,"[4, 10]",1.0,8.0,0.26940107345581055,1.7823269367218018,0.5270090180527567,86.0,868.0,0.0
G,D,"[5, 10]",0.0,8.0,0.49384188652038574,2.0073280334472656,0.5176217478456591,86.0,869.0,0.0
R,U,"[4, 10]",0.0,8.0,0.6462211608886719,1.9526350498199463,0.3037115570226564,86.0,870.0,0.0
,,"(6, 6)",,,,,,,,
R,U,"[5, 6]",-2.0,0.0,1.234755039215088,6.999435901641846,0.2696037019024571,87.0,871.0,0.0
Y,R,"[5, 7]",1.0,1.0,0.25721287727355957,1.647075891494751,0.38326546328339034,87.0,872.0,0.0
Y,R,"[5, 8]",1.0,2.0,0.22104787826538086,1.9197609424591064,0.7027264860126361,87.0,873.0,0.0
G,D,"[6, 8]",-1.0,2.0,0.0028831958770751953,5.537277936935425,0.4732478384724326,87.0,874.0,0.0
B,L,"[6, 7]",0.0,2.0,0.10451197624206543,1.6350159645080566,0.5415355235366808,87.0,875.0,0.0
Y,R,"[6, 8]",0.0,2.0,0.3760840892791748,1.9057579040527344,0.5305019539049922,87.0,876.0,0.0
R,U,"[5, 8]",0.0,2.0,0.14603900909423828,1.8137409687042236,0.6607725195869787,87.0,877.0,0.0
R,U,"[4, 8]",-2.0,2.0,1.3490090370178223,2.7717411518096924,0.4659305590412062,87.0,878.0,0.0
R,U,"[3, 8]",0.0,2.0,0.5706651210784912,2.3174688816070557,0.7496966984469959,87.0,879.0,0.0
R,U,"[2, 8]",0.0,2.0,0.8659560680389404,2.341925859451294,0.4752102417393758,87.0,880.0,0.0
,,"(6, 6)",,,,,,,,
R,U,"[5, 6]",1.0,1.0,0.5995337963104248,4.064310073852539,0.38945386750583916,88.0,881.0,0.0
Y,R,"[5, 7]",1.0,2.0,0.2561640739440918,1.933096170425415,0.6721176340434247,88.0,882.0,0.0
Y,R,"[5, 8]",1.0,3.0,0.2729520797729492,1.6406500339508057,0.3630422065489048,88.0,883.0,0.0
G,D,"[6, 8]",1.0,4.0,0.4906630516052246,1.8744571208953857,0.3707656974006883,88.0,884.0,0.0
Y,R,"[6, 9]",1.0,5.0,0.3720741271972656,1.936232089996338,0.5567579422137363,88.0,885.0,0.0
Y,R,"[6, 10]",1.0,6.0,0.3406529426574707,1.6264278888702393,0.2833578764771363,88.0,886.0,0.0
R,U,"[5, 10]",1.0,7.0,0.3002920150756836,1.8911349773406982,0.590749486968404,88.0,887.0,0.0
R,U,"[4, 10]",1.0,8.0,0.21428489685058594,1.8782570362091064,0.6689545236261566,88.0,888.0,0.0
B,L,"[4, 9]",1.0,9.0,0.2514619827270508,1.668898105621338,0.4213684803071504,88.0,889.0,0.0
R,U,"[3, 9]",1.0,10.0,0.3415181636810303,1.745138168334961,0.3997435547012257,88.0,890.0,0.0
,,"(6, 6)",,,,,,,,
R,U,"[5, 6]",1.0,1.0,0.236983060836792,5.683371067047119,0.7325946876160758,89.0,891.0,0.0
Y,R,"[5, 7]",1.0,2.0,0.25958991050720215,1.9068331718444824,0.639476965859026,89.0,892.0,0.0
Y,R,"[5, 8]",1.0,3.0,0.2673931121826172,1.9471471309661865,0.6865004743271055,89.0,893.0,0.0
G,D,"[6, 8]",1.0,4.0,0.231611967086792,1.4861009120941162,0.25629177593022917,89.0,894.0,0.0
Y,R,"[6, 9]",1.0,5.0,0.37024903297424316,1.7640299797058105,0.40345567260530735,89.0,895.0,0.0
Y,R,"[6, 10]",1.0,6.0,0.3824481964111328,2.0145201683044434,0.6343625264947563,89.0,896.0,0.0
R,U,"[5, 10]",1.0,7.0,0.23467803001403809,1.8817870616912842,0.6493127270334261,89.0,897.0,0.0
R,U,"[4, 10]",-1.0,7.0,0.036752939224243164,5.717535972595215,0.6167797929377037,89.0,898.0,0.0
B,L,"[4, 9]",1.0,8.0,0.1451120376586914,1.8544209003448486,0.7042027960001263,89.0,899.0,0.0
R,U,"[3, 9]",1.0,9.0,0.26842188835144043,1.7183139324188232,0.45616383363030594,89.0,900.0,0.0
,,"(6, 6)",,,,,,,,
R,U,"[5, 6]",1.0,1.0,0.45958495140075684,5.372130870819092,0.727798216020492,90.0,901.0,0.0
Y,R,"[5, 7]",1.0,2.0,0.49224185943603516,2.163524866104126,0.6746046744462724,90.0,902.0,0.0
Y,R,"[5, 8]",1.0,3.0,0.1885991096496582,1.6154310703277588,0.4235003835776635,90.0,903.0,0.0
G,D,"[6, 8]",1.0,4.0,0.1608600616455078,1.538546085357666,0.37870475699135125,90.0,904.0,0.0
Y,R,"[6, 9]",1.0,5.0,0.38788700103759766,2.0926151275634766,0.7042812550142679,90.0,905.0,0.0
Y,R,"[6, 10]",1.0,6.0,0.26540303230285645,1.690702199935913,0.4285516918940715,90.0,906.0,0.0
R,U,"[5, 10]",-1.0,6.0,0.026324033737182617,5.635718107223511,0.5638994196320861,90.0,907.0,0.0
R,U,"[4, 10]",1.0,7.0,0.20115900039672852,1.9281558990478516,0.7250775757401773,90.0,908.0,0.0
B,L,"[4, 9]",1.0,8.0,0.39339303970336914,2.018017053604126,0.6265724322129512,90.0,909.0,0.0
R,U,"[3, 9]",1.0,9.0,0.3050830364227295,1.8470330238342285,0.5402075418658439,90.0,910.0,0.0
,,"(6, 6)",,,,,,,,
R,U,"[5, 6]",1.0,1.0,0.5024480819702148,3.376556158065796,0.5000382496852996,91.0,911.0,0.0
Y,R,"[5, 7]",1.0,2.0,0.2957921028137207,1.9849560260772705,0.6847381529332683,91.0,912.0,0.0
Y,R,"[5, 8]",1.0,3.0,0.3250579833984375,2.0036380290985107,0.6716671880628688,91.0,913.0,0.0
G,D,"[6, 8]",1.0,4.0,0.22405290603637695,1.6565868854522705,0.4284277440634608,91.0,914.0,0.0
Y,R,"[6, 9]",1.0,5.0,0.3940401077270508,1.7661380767822266,0.37771206474190666,91.0,915.0,0.0
Y,R,"[6, 10]",1.0,6.0,0.6864330768585205,2.0130350589752197,0.34082475647658084,91.0,916.0,0.0
R,U,"[5, 10]",1.0,7.0,0.2546839714050293,1.5099360942840576,0.25070579081984606,91.0,917.0,0.0
R,U,"[4, 10]",1.0,8.0,0.915024995803833,2.40411114692688,0.4878593037108432,91.0,918.0,0.0
B,L,"[4, 9]",1.0,9.0,0.2418060302734375,1.5656189918518066,0.32030522825132246,91.0,919.0,0.0
R,U,"[3, 9]",1.0,10.0,0.36644792556762695,1.7110779285430908,0.3478793002445856,91.0,920.0,0.0
,,"(6, 6)",,,,,,,,
R,U,"[5, 6]",1.0,1.0,0.5777020454406738,3.4414639472961426,0.6223454204094234,92.0,921.0,0.0
Y,R,"[5, 7]",1.0,2.0,0.2603728771209717,1.6423490047454834,0.38142643182671276,92.0,922.0,0.0
Y,R,"[5, 8]",1.0,3.0,0.26621484756469727,1.5956499576568604,0.32704708287871276,92.0,923.0,0.0
G,D,"[6, 8]",1.0,4.0,0.2549281120300293,1.902390956878662,0.6624530670248969,92.0,924.0,0.0
Y,R,"[6, 9]",1.0,5.0,0.2262258529663086,1.4980218410491943,0.260812144025725,92.0,925.0,0.0
Y,R,"[6, 10]",1.0,6.0,0.4148709774017334,1.9170758724212646,0.5108951912875364,92.0,926.0,0.0
R,U,"[5, 10]",1.0,7.0,0.355241060256958,1.9346568584442139,0.5786586113470824,92.0,927.0,0.0
B,L,"[5, 9]",0.0,7.0,0.3772449493408203,1.999572992324829,0.6114784385921823,92.0,928.0,0.0
R,U,"[4, 9]",1.0,8.0,0.10493612289428711,1.402461051940918,0.2975680385224236,92.0,929.0,0.0
R,U,"[3, 9]",1.0,9.0,0.42226505279541016,1.795835018157959,0.3765697816964642,92.0,930.0,0.0
,,"(6, 6)",,,,,,,,
R,U,"[5, 6]",1.0,1.0,0.42276978492736816,10.190829038619995,0.433645702183798,93.0,931.0,0.0
Y,R,"[5, 7]",1.0,2.0,0.31675100326538086,1.7827699184417725,0.46625797832373417,93.0,932.0,0.0
Y,R,"[5, 8]",1.0,3.0,0.3904860019683838,1.7142229080200195,0.3139004838330079,93.0,933.0,0.0
G,D,"[6, 8]",1.0,4.0,0.19076204299926758,1.6633870601654053,0.4603634074464685,93.0,934.0,0.0
Y,R,"[6, 9]",1.0,5.0,0.34572601318359375,1.868610143661499,0.5288849214451694,93.0,935.0,0.0
Y,R,"[6, 10]",1.0,6.0,0.16438698768615723,1.6917839050292969,0.5205512405867032,93.0,936.0,0.0
R,U,"[5, 10]",1.0,7.0,0.23514914512634277,1.5918428897857666,0.36247141793017357,93.0,937.0,0.0
B,L,"[5, 9]",0.0,7.0,0.5090579986572266,2.083005905151367,0.5619352858320925,93.0,938.0,0.0
R,U,"[4, 9]",1.0,8.0,0.22187495231628418,1.6312861442565918,0.4098555819844667,93.0,939.0,0.0
R,U,"[3, 9]",1.0,9.0,0.2299940586090088,1.679440975189209,0.4559387286581194,93.0,940.0,0.0
,,"(6, 6)",,,,,,,,
R,U,"[5, 6]",1.0,1.0,0.5444240570068359,4.189234972000122,0.4949571366312615,94.0,941.0,0.0
Y,R,"[5, 7]",1.0,2.0,0.2592611312866211,1.939190149307251,0.6843199320556742,94.0,942.0,0.0
Y,R,"[5, 8]",1.0,3.0,0.23125004768371582,1.792607069015503,0.5597441858302414,94.0,943.0,0.0
G,D,"[6, 8]",1.0,4.0,0.3001708984375,1.9514479637145996,0.6610372503910402,94.0,944.0,0.0
Y,R,"[6, 9]",1.0,5.0,0.2361900806427002,1.757814884185791,0.5356270465750252,94.0,945.0,0.0
Y,R,"[6, 10]",1.0,6.0,0.3062751293182373,1.6968128681182861,0.38252535110052216,94.0,946.0,0.0
R,U,"[5, 10]",1.0,7.0,0.25937819480895996,1.9608399868011475,0.6929844436103144,94.0,947.0,0.0
R,U,"[4, 10]",1.0,8.0,0.3282129764556885,1.991642951965332,0.6678672626303537,94.0,948.0,0.0
B,L,"[4, 9]",1.0,9.0,0.19320297241210938,1.6156830787658691,0.4170225333847061,94.0,949.0,0.0
R,U,"[3, 9]",1.0,10.0,0.44081711769104004,1.9900410175323486,0.5402726676179694,94.0,950.0,0.0
,,"(6, 6)",,,,,,,,
R,U,"[5, 6]",1.0,1.0,0.5779480934143066,8.602563858032227,0.5592472482037452,95.0,951.0,0.0
Y,R,"[5, 7]",1.0,2.0,0.2710762023925781,1.797407865524292,0.5396658483592038,95.0,952.0,0.0
Y,R,"[5, 8]",1.0,3.0,0.8661341667175293,2.229326009750366,0.36919775900541985,95.0,953.0,0.0
G,D,"[6, 8]",1.0,4.0,0.44177889823913574,1.9987380504608154,0.5510124108027918,95.0,954.0,0.0
Y,R,"[6, 9]",1.0,5.0,0.21271705627441406,1.77864408493042,0.5628679833402048,95.0,955.0,0.0
Y,R,"[6, 10]",1.0,6.0,0.19982099533081055,1.9288020133972168,0.7247675775814003,95.0,956.0,0.0
R,U,"[5, 10]",1.0,7.0,0.11123991012573242,1.3676750659942627,0.2595171247902794,95.0,957.0,0.0
R,U,"[4, 10]",1.0,8.0,0.37505388259887695,1.8164799213409424,0.4422425361999581,95.0,958.0,0.0
B,L,"[4, 9]",1.0,9.0,0.19495391845703125,1.7447960376739502,0.5536607282406223,95.0,959.0,0.0
R,U,"[3, 9]",1.0,10.0,0.7624809741973877,2.2928929328918457,0.5297784621145722,95.0,960.0,0.0
,,"(6, 6)",,,,,,,,
R,U,"[5, 6]",1.0,1.0,0.4268460273742676,5.741484880447388,0.7045720311984314,96.0,961.0,0.0
Y,R,"[5, 7]",1.0,2.0,0.35997796058654785,2.0418219566345215,0.6791933525789002,96.0,962.0,0.0
G,D,"[6, 7]",0.0,2.0,0.5049619674682617,1.8486731052398682,0.34483947873691834,96.0,963.0,0.0
G,D,"[7, 7]",0.0,2.0,0.2911219596862793,1.8926868438720703,0.6205128856835456,96.0,964.0,0.0
Y,R,"[7, 8]",0.0,2.0,0.8648018836975098,2.516234874725342,0.6532813028716122,96.0,965.0,0.0
Y,R,"[7, 9]",0.0,2.0,0.3119628429412842,1.9845709800720215,0.6710598091932325,96.0,966.0,0.0
R,U,"[6, 9]",-2.0,2.0,3.193430185317993,4.824239015579224,0.6617000665785158,96.0,967.0,0.0
Y,R,"[6, 10]",1.0,3.0,0.789546012878418,2.1719038486480713,0.38383877311763936,96.0,968.0,0.0
Y,R,"[6, 11]",-2.0,3.0,1.4386050701141357,3.151120901107788,0.7344234129680258,96.0,969.0,0.0
R,U,"[5, 11]",-2.0,3.0,1.1665410995483398,2.723684787750244,0.5915183230518635,96.0,970.0,0.0
,,"(6, 6)",,,,,,,,
R,U,"[5, 6]",1.0,1.0,0.6616299152374268,3.30361008644104,0.6282611339158022,97.0,971.0,0.0
Y,R,"[5, 7]",1.0,2.0,0.1649188995361328,1.750154972076416,0.5950671569898263,97.0,972.0,0.0
Y,R,"[5, 8]",1.0,3.0,0.18764305114746094,1.498283863067627,0.3102270248417004,97.0,973.0,0.0
G,D,"[6, 8]",1.0,4.0,0.2788419723510742,1.789367914199829,0.5159509715957502,97.0,974.0,0.0
Y,R,"[6, 9]",1.0,5.0,0.14778494834899902,1.5604939460754395,0.40975940992244975,97.0,975.0,0.0
Y,R,"[6, 10]",1.0,6.0,0.18977999687194824,1.5670709609985352,0.3768789368342575,97.0,976.0,0.0
R,U,"[5, 10]",1.0,7.0,0.29208803176879883,1.7752809524536133,0.48521110030422865,97.0,977.0,0.0
R,U,"[4, 10]",1.0,8.0,0.49367809295654297,2.1068179607391357,0.6084437708878585,97.0,978.0,0.0
B,L,"[4, 9]",1.0,9.0,0.19772005081176758,1.557253122329712,0.3659738575552882,97.0,979.0,0.0
R,U,"[3, 9]",1.0,10.0,0.3315451145172119,1.8205411434173584,0.4863038555988222,97.0,980.0,0.0
,,"(6, 6)",,,,,,,,
R,U,"[5, 6]",1.0,1.0,0.5233159065246582,3.2427990436553955,0.729103581682939,98.0,981.0,0.0
Y,R,"[5, 7]",-1.0,1.0,0.09683799743652344,5.85786509513855,0.6863957819047861,98.0,982.0,0.0
Y,R,"[5, 8]",1.0,2.0,0.2373199462890625,1.8236100673675537,0.5932372218735511,98.0,983.0,0.0
G,D,"[6, 8]",1.0,3.0,0.5225419998168945,2.045567035675049,0.5387646002701716,98.0,984.0,0.0
Y,R,"[6, 9]",1.0,4.0,0.2546060085296631,1.900496006011963,0.6558092487140889,98.0,985.0,0.0
Y,R,"[6, 10]",1.0,5.0,0.2566678524017334,1.7555131912231445,0.4947379246722489,98.0,986.0,0.0
R,U,"[5, 10]",1.0,6.0,0.13956093788146973,1.8709769248962402,0.7486619110812389,98.0,987.0,0.0
R,U,"[4, 10]",1.0,7.0,0.505230188369751,1.9944989681243896,0.4933966505700199,98.0,988.0,0.0
B,L,"[4, 9]",1.0,8.0,0.17638707160949707,1.4484939575195312,0.27532538956169955,98.0,989.0,0.0
R,U,"[3, 9]",1.0,9.0,0.7003891468048096,2.27201509475708,0.5802652163644724,98.0,990.0,0.0
,,"(6, 6)",,,,,,,,
R,U,"[5, 6]",1.0,1.0,0.42396092414855957,10.498815059661865,0.5451634192618906,99.0,991.0,0.0
Y,R,"[5, 7]",1.0,2.0,0.22371506690979004,1.7585690021514893,0.5370431546051211,99.0,992.0,0.0
Y,R,"[5, 8]",1.0,3.0,0.4134809970855713,2.078325033187866,0.6656452653784564,99.0,993.0,0.0
G,D,"[6, 8]",-1.0,3.0,0.05845999717712402,5.734563112258911,0.5994498640439683,99.0,994.0,0.0
Y,R,"[6, 9]",1.0,4.0,0.5152089595794678,1.8435840606689453,0.3265801969144674,99.0,995.0,0.0
Y,R,"[6, 10]",1.0,5.0,0.2573850154876709,1.5675411224365234,0.31079425641658565,99.0,996.0,0.0
R,U,"[5, 10]",1.0,6.0,0.4447441101074219,1.8409879207611084,0.401619645769098,99.0,997.0,0.0
R,U,"[4, 10]",1.0,7.0,0.31470203399658203,1.8416330814361572,0.5263603330949699,99.0,998.0,0.0
B,L,"[4, 9]",1.0,8.0,0.23933696746826172,1.6705610752105713,0.43021237770521054,99.0,999.0,0.0
R,U,"[3, 9]",1.0,9.0,0.17601394653320312,1.7388739585876465,0.5522058752342753,99.0,1000.0,0.0
