button_choice,action_choice,coordinate_choice,reward,cumulative_reward,rt,total_trial_time,iti,block_n,trial_n,trial_type
R,U,"[5, 6]",1.0,1.0,0.6583290100097656,2.0543389320373535,0.37207078679524064,0.0,1.0,0.0
R,U,"[4, 6]",0.0,1.0,0.6722021102905273,2.204496145248413,0.543270978161398,0.0,2.0,0.0
Y,R,"[4, 7]",0.0,1.0,0.3054790496826172,1.6853969097137451,0.3785832767675406,0.0,3.0,0.0
Y,R,"[4, 8]",0.0,1.0,0.325268030166626,1.8882310390472412,0.5834136494688542,0.0,4.0,0.0
B,L,"[4, 7]",-1.0,1.0,0.018618106842041016,5.821080207824707,0.7373489195899945,0.0,5.0,0.0
Y,R,"[4, 8]",0.0,1.0,0.41138386726379395,2.1149699687957764,0.7024247279125306,0.0,6.0,0.0
Y,R,"[4, 9]",1.0,2.0,0.3433370590209961,1.9149560928344727,0.5675033625355729,0.0,7.0,0.0
Y,R,"[4, 10]",1.0,3.0,0.311229944229126,1.9336090087890625,0.6176005474428823,0.0,8.0,0.0
Y,R,"[4, 11]",0.0,3.0,0.4679720401763916,2.0899879932403564,0.6242587146334337,0.0,9.0,0.0
B,L,"[4, 10]",0.0,3.0,0.21237707138061523,1.7254910469055176,0.5165007969091469,0.0,10.0,0.0
,,"(6, 6)",,,,,,,,
R,U,"[5, 6]",1.0,1.0,0.6378848552703857,6.8388991355896,0.3888593337425369,1.0,11.0,0.0
Y,R,"[5, 7]",1.0,2.0,0.3218839168548584,1.9531729221343994,0.6250392859555418,1.0,12.0,0.0
Y,R,"[5, 8]",1.0,3.0,0.24461007118225098,1.7832050323486328,0.5415815620565023,1.0,13.0,0.0
G,D,"[6, 8]",1.0,4.0,0.2482438087463379,1.6483030319213867,0.4066878862823302,1.0,14.0,0.0
Y,R,"[6, 9]",1.0,5.0,0.24323105812072754,1.7917349338531494,0.5482421650052979,1.0,15.0,0.0
Y,R,"[6, 10]",1.0,6.0,0.2922699451446533,1.8742828369140625,0.5724781600570783,1.0,16.0,0.0
R,U,"[5, 10]",1.0,7.0,0.328571081161499,2.004150867462158,0.6764676770947554,1.0,17.0,0.0
R,U,"[4, 10]",1.0,8.0,0.21378803253173828,1.6546640396118164,0.4479778683351005,1.0,18.0,0.0
B,L,"[4, 9]",1.0,9.0,0.2719309329986572,1.9692111015319824,0.6836998681270626,1.0,19.0,0.0
R,U,"[3, 9]",1.0,10.0,0.21843600273132324,1.6517260074615479,0.4355250452475373,1.0,20.0,0.0
,,"(6, 6)",,,,,,,,
R,U,"[5, 6]",1.0,1.0,0.4336831569671631,2.4214110374450684,0.4403134422718579,2.0,21.0,0.0
Y,R,"[5, 7]",1.0,2.0,0.32450389862060547,1.9188950061798096,0.5922599569365551,2.0,22.0,0.0
Y,R,"[5, 8]",1.0,3.0,0.3138411045074463,1.726125955581665,0.41860032746252646,2.0,23.0,0.0
G,D,"[6, 8]",1.0,4.0,0.2916131019592285,1.710522174835205,0.41250429750034023,2.0,24.0,0.0
Y,R,"[6, 9]",1.0,5.0,0.2608189582824707,1.851628065109253,0.5805803387465642,2.0,25.0,0.0
Y,R,"[6, 10]",1.0,6.0,0.23482799530029297,1.7500898838043213,0.5140303778783228,2.0,26.0,0.0
R,U,"[5, 10]",1.0,7.0,0.33080291748046875,2.0202441215515137,0.6840095250248935,2.0,27.0,0.0
R,U,"[4, 10]",1.0,8.0,0.18110990524291992,1.5282268524169922,0.3459593835933294,2.0,28.0,0.0
B,L,"[4, 9]",1.0,9.0,0.2980520725250244,1.919658899307251,0.6151844937919864,2.0,29.0,0.0
R,U,"[3, 9]",1.0,10.0,0.23012614250183105,1.7067489624023438,0.47224403797106884,2.0,30.0,0.0
,,"(6, 6)",,,,,,,,
R,U,"[5, 6]",1.0,1.0,0.32503199577331543,2.531074047088623,0.6697243811274047,3.0,31.0,0.0
Y,R,"[5, 7]",1.0,2.0,0.19279789924621582,1.9066898822784424,0.7095805990622146,3.0,32.0,0.0
Y,R,"[5, 8]",1.0,3.0,0.2147350311279297,1.8383409976959229,0.6313938341413812,3.0,33.0,0.0
G,D,"[6, 8]",1.0,4.0,0.24973607063293457,1.650832176208496,0.3990966543417985,3.0,34.0,0.0
G,D,"[7, 8]",0.0,4.0,0.28569793701171875,1.5797159671783447,0.29562344869986706,3.0,35.0,0.0
Y,R,"[7, 9]",0.0,4.0,0.8223960399627686,2.170055866241455,0.33212777771454527,3.0,36.0,0.0
R,U,"[6, 9]",1.0,5.0,0.27068305015563965,2.0070841312408447,0.7388786159481325,3.0,37.0,0.0
R,U,"[5, 9]",0.0,5.0,0.2426459789276123,1.5075697898864746,0.26344925558832816,3.0,38.0,0.0
B,L,"[5, 8]",0.0,5.0,0.40114402770996094,1.9102530479431152,0.5068928491259344,3.0,39.0,0.0
R,U,"[4, 8]",0.0,5.0,0.2184438705444336,1.5493731498718262,0.3397376881420886,3.0,40.0,0.0
,,"(6, 6)",,,,,,,,
R,U,"[5, 6]",1.0,1.0,0.34989094734191895,2.327860116958618,0.33424580583866653,4.0,41.0,0.0
Y,R,"[5, 7]",1.0,2.0,0.3798699378967285,2.078115940093994,0.695287830057018,4.0,42.0,0.0
Y,R,"[5, 8]",1.0,3.0,0.2745320796966553,1.9975290298461914,0.709427760330659,4.0,43.0,0.0
G,D,"[6, 8]",1.0,4.0,0.27288007736206055,1.607987880706787,0.3344302925084387,4.0,44.0,0.0
Y,R,"[6, 9]",1.0,5.0,0.37323784828186035,2.0590171813964844,0.6764643896881621,4.0,45.0,0.0
Y,R,"[6, 10]",1.0,6.0,0.22623300552368164,1.8835489749908447,0.6600913074740818,4.0,46.0,0.0
R,U,"[5, 10]",1.0,7.0,0.24695181846618652,1.9123389720916748,0.6721883877050183,4.0,47.0,0.0
R,U,"[4, 10]",1.0,8.0,0.23854684829711914,1.5075068473815918,0.2800169776399536,4.0,48.0,0.0
B,L,"[4, 9]",1.0,9.0,0.5025591850280762,2.1050329208374023,0.6014852519031166,4.0,49.0,0.0
R,U,"[3, 9]",1.0,10.0,0.2246088981628418,1.620255947113037,0.3885644466327702,4.0,50.0,0.0
,,"(6, 6)",,,,,,,,
R,U,"[5, 6]",1.0,1.0,0.3429441452026367,2.3515701293945312,0.3235373056705789,5.0,51.0,0.0
Y,R,"[5, 7]",1.0,2.0,0.3758978843688965,1.791398048400879,0.4148297514221321,5.0,52.0,0.0
Y,R,"[5, 8]",1.0,3.0,0.34178900718688965,2.047959804534912,0.6958477923213491,5.0,53.0,0.0
G,D,"[6, 8]",1.0,4.0,0.2902231216430664,1.5694010257720947,0.28212455382487733,5.0,54.0,0.0
Y,R,"[6, 9]",1.0,5.0,0.3651258945465088,1.6885061264038086,0.32067706921781197,5.0,55.0,0.0
Y,R,"[6, 10]",1.0,6.0,0.33280277252197266,2.0571699142456055,0.727445650293796,5.0,56.0,0.0
R,U,"[5, 10]",1.0,7.0,0.22095799446105957,1.6687901020050049,0.46311245733390793,5.0,57.0,0.0
R,U,"[4, 10]",1.0,8.0,0.32840394973754883,1.6972110271453857,0.36046378950360064,5.0,58.0,0.0
B,L,"[4, 9]",1.0,9.0,0.3123321533203125,2.0109188556671143,0.704286757259166,5.0,59.0,0.0
R,U,"[3, 9]",1.0,10.0,0.2141890525817871,1.4751648902893066,0.26310566125264045,5.0,60.0,0.0
,,"(6, 6)",,,,,,,,
R,U,"[5, 6]",1.0,1.0,0.3702239990234375,2.935863971710205,0.4488129817496809,6.0,61.0,0.0
Y,R,"[5, 7]",1.0,2.0,0.37670421600341797,2.1272189617156982,0.742727377118602,6.0,62.0,0.0
Y,R,"[5, 8]",1.0,3.0,0.2270359992980957,1.8912971019744873,0.6670578632135817,6.0,63.0,0.0
G,D,"[6, 8]",1.0,4.0,0.26501989364624023,1.8271429538726807,0.5608541529264225,6.0,64.0,0.0
Y,R,"[6, 9]",1.0,5.0,0.2914140224456787,1.6631510257720947,0.37429368045000455,6.0,65.0,0.0
Y,R,"[6, 10]",1.0,6.0,0.2986748218536377,1.6532371044158936,0.36085066365152085,6.0,66.0,0.0
R,U,"[5, 10]",1.0,7.0,0.4299650192260742,2.1610469818115234,0.7381752176456309,6.0,67.0,0.0
R,U,"[4, 10]",1.0,8.0,0.21097397804260254,1.8240149021148682,0.6123386777505031,6.0,68.0,0.0
B,L,"[4, 9]",1.0,9.0,0.22160792350769043,1.9236180782318115,0.7024261860079815,6.0,69.0,0.0
R,U,"[3, 9]",1.0,10.0,0.26401495933532715,1.9329519271850586,0.6687542686954959,6.0,70.0,0.0
,,"(6, 6)",,,,,,,,
R,U,"[5, 6]",1.0,1.0,0.35402488708496094,2.168876886367798,0.43766396908202004,7.0,71.0,0.0
Y,R,"[5, 7]",1.0,2.0,0.3148529529571533,1.9615399837493896,0.6490029640919459,7.0,72.0,0.0
Y,R,"[5, 8]",1.0,3.0,0.25548505783081055,1.9175519943237305,0.666611265509728,7.0,73.0,0.0
G,D,"[6, 8]",1.0,4.0,0.27650904655456543,1.8698229789733887,0.5864803955508294,7.0,74.0,0.0
Y,R,"[6, 9]",1.0,5.0,0.24988794326782227,1.741750955581665,0.49497301953143963,7.0,75.0,0.0
Y,R,"[6, 10]",1.0,6.0,0.41957807540893555,1.7178101539611816,0.31294325386820354,7.0,76.0,0.0
R,U,"[5, 10]",1.0,7.0,0.367434024810791,2.094036102294922,0.7232007047317086,7.0,77.0,0.0
R,U,"[4, 10]",1.0,8.0,0.21684598922729492,1.5687050819396973,0.35887008768176193,7.0,78.0,0.0
B,L,"[4, 9]",1.0,9.0,0.40914297103881836,2.1121859550476074,0.7040067547853237,7.0,79.0,0.0
R,U,"[3, 9]",1.0,10.0,0.2775459289550781,1.784466028213501,0.5053278192424919,7.0,80.0,0.0
,,"(6, 6)",,,,,,,,
R,U,"[5, 6]",1.0,1.0,0.39870405197143555,2.0863828659057617,0.3252031104279888,8.0,81.0,0.0
Y,R,"[5, 7]",1.0,2.0,0.26476597785949707,1.9293808937072754,0.6708558609512616,8.0,82.0,0.0
Y,R,"[5, 8]",1.0,3.0,0.19834494590759277,1.806102991104126,0.6103507184063592,8.0,83.0,0.0
G,D,"[6, 8]",1.0,4.0,0.2830159664154053,1.8063812255859375,0.5334668687992362,8.0,84.0,0.0
Y,R,"[6, 9]",1.0,5.0,0.23376893997192383,1.8681399822235107,0.6348105737750784,8.0,85.0,0.0
Y,R,"[6, 10]",1.0,6.0,0.12108206748962402,1.5353968143463135,0.40369390977338077,8.0,86.0,0.0
R,U,"[5, 10]",1.0,7.0,0.42471814155578613,1.8171000480651855,0.38740922463029936,8.0,87.0,0.0
R,U,"[4, 10]",1.0,8.0,0.4210999011993408,1.7757809162139893,0.3631902969997615,8.0,88.0,0.0
B,L,"[4, 9]",1.0,9.0,0.3976759910583496,2.0691840648651123,0.6653648585489651,8.0,89.0,0.0
R,U,"[3, 9]",1.0,10.0,0.33820605278015137,1.82088303565979,0.4698353370507421,8.0,90.0,0.0
,,"(6, 6)",,,,,,,,
R,U,"[5, 6]",1.0,1.0,0.44761013984680176,2.626642942428589,0.5795617216821591,9.0,91.0,0.0
Y,R,"[5, 7]",1.0,2.0,0.26608705520629883,1.7229321002960205,0.4528366327873257,9.0,92.0,0.0
Y,R,"[5, 8]",1.0,3.0,0.29335594177246094,1.6385340690612793,0.3412756557779352,9.0,93.0,0.0
G,D,"[6, 8]",1.0,4.0,0.28798389434814453,1.5972259044647217,0.3217686031044396,9.0,94.0,0.0
Y,R,"[6, 9]",1.0,5.0,0.40193605422973633,2.106369972229004,0.7111690149793144,9.0,95.0,0.0
Y,R,"[6, 10]",1.0,6.0,0.19899201393127441,1.4809060096740723,0.2924372872423623,9.0,96.0,0.0
Y,R,"[6, 11]",0.0,6.0,0.46463489532470703,1.7392849922180176,0.2817005116667891,9.0,97.0,0.0
R,U,"[5, 11]",0.0,6.0,0.33661985397338867,1.7589728832244873,0.4238322185918508,9.0,98.0,0.0
B,L,"[5, 10]",1.0,7.0,0.1537458896636963,1.4197499752044678,0.27698678249035324,9.0,99.0,0.0
R,U,"[4, 10]",1.0,8.0,0.44391298294067383,1.8554129600524902,0.4155492751621467,9.0,100.0,0.0
,,"(6, 6)",,,,,,,,
R,U,"[5, 6]",1.0,1.0,0.3695399761199951,16.550559043884277,0.682237399176598,10.0,101.0,0.0
Y,R,"[5, 7]",1.0,2.0,0.24013304710388184,1.8891170024871826,0.6381288439259194,10.0,102.0,0.0
Y,R,"[5, 8]",1.0,3.0,0.21713900566101074,1.539858102798462,0.3282631358776615,10.0,103.0,0.0
G,D,"[6, 8]",1.0,4.0,0.3394889831542969,1.9233119487762451,0.6011512197021505,10.0,104.0,0.0
Y,R,"[6, 9]",1.0,5.0,0.18463397026062012,1.4850718975067139,0.3031935486699998,10.0,105.0,0.0
Y,R,"[6, 10]",1.0,6.0,0.3589000701904297,1.8135321140289307,0.45025054532302705,10.0,106.0,0.0
R,U,"[5, 10]",1.0,7.0,0.22003483772277832,1.8803629875183105,0.663380062436653,10.0,107.0,0.0
R,U,"[4, 10]",1.0,8.0,0.166748046875,1.9040679931640625,0.7340676747511539,10.0,108.0,0.0
B,L,"[4, 9]",1.0,9.0,0.3737180233001709,2.03645920753479,0.6539100558090297,10.0,109.0,0.0
R,U,"[3, 9]",1.0,10.0,0.22029900550842285,1.6019840240478516,0.38945670459646897,10.0,110.0,0.0
,,"(6, 6)",,,,,,,,
R,U,"[5, 6]",1.0,1.0,0.37491297721862793,3.07773494720459,0.6502767304649417,11.0,111.0,0.0
Y,R,"[5, 7]",1.0,2.0,0.20398592948913574,1.804844856262207,0.6051630844832522,11.0,112.0,0.0
Y,R,"[5, 8]",1.0,3.0,0.14195489883422852,1.4801011085510254,0.33534921395743067,11.0,113.0,0.0
G,D,"[6, 8]",-2.0,3.0,1.0737769603729248,2.663443088531494,0.5986284933572574,11.0,114.0,0.0
Y,R,"[6, 9]",1.0,4.0,0.6580071449279785,2.2225890159606934,0.554456274530974,11.0,115.0,0.0
Y,R,"[6, 10]",1.0,5.0,0.22733306884765625,1.7271020412445068,0.498184718559222,11.0,116.0,0.0
R,U,"[5, 10]",1.0,6.0,0.6269140243530273,2.0031659603118896,0.36810469731644224,11.0,117.0,0.0
R,U,"[4, 10]",1.0,7.0,0.3059680461883545,1.7288508415222168,0.41355302129179533,11.0,118.0,0.0
B,L,"[4, 9]",1.0,8.0,0.28458595275878906,1.565403938293457,0.2791949034647345,11.0,119.0,0.0
R,U,"[3, 9]",1.0,9.0,0.5759890079498291,2.194416046142578,0.606488147578073,11.0,120.0,0.0
,,"(6, 6)",,,,,,,,
R,U,"[5, 6]",1.0,1.0,0.17254090309143066,98.0401599407196,0.5117750192481811,12.0,121.0,0.0
Y,R,"[5, 7]",1.0,2.0,0.43028879165649414,1.873617172241211,0.4521592719583996,12.0,122.0,0.0
Y,R,"[5, 8]",1.0,3.0,0.2602729797363281,1.9104030132293701,0.6455176511091731,12.0,123.0,0.0
G,D,"[6, 8]",1.0,4.0,0.2998471260070801,2.026707887649536,0.7220842875921105,12.0,124.0,0.0
Y,R,"[6, 9]",1.0,5.0,0.25186800956726074,1.6872179508209229,0.4429773549625607,12.0,125.0,0.0
Y,R,"[6, 10]",1.0,6.0,0.34467601776123047,1.9670319557189941,0.6265443501727368,12.0,126.0,0.0
R,U,"[5, 10]",1.0,7.0,0.17987394332885742,1.5303668975830078,0.35721938232708533,12.0,127.0,0.0
R,U,"[4, 10]",1.0,8.0,0.4294929504394531,1.8697588443756104,0.4433686402573325,12.0,128.0,0.0
B,L,"[4, 9]",1.0,9.0,0.21581697463989258,1.8491370677947998,0.6422836124201932,12.0,129.0,0.0
R,U,"[3, 9]",1.0,10.0,0.20987606048583984,1.5744969844818115,0.3670402461393529,12.0,130.0,0.0
,,"(6, 6)",,,,,,,,
R,U,"[5, 6]",1.0,1.0,0.22562003135681152,2.084218978881836,0.4178555515568815,13.0,131.0,0.0
Y,R,"[5, 7]",1.0,2.0,0.2370748519897461,1.7459170818328857,0.5136439221114135,13.0,132.0,0.0
Y,R,"[5, 8]",-1.0,2.0,0.02368307113647461,5.800842046737671,0.7141544380456001,13.0,133.0,0.0
G,D,"[6, 8]",1.0,3.0,0.20507478713989258,1.7898118495941162,0.5707925345120735,13.0,134.0,0.0
Y,R,"[6, 9]",1.0,4.0,0.4797089099884033,2.0577988624572754,0.5784253577456795,13.0,135.0,0.0
Y,R,"[6, 10]",1.0,5.0,0.2123110294342041,1.5868279933929443,0.38215478743138753,13.0,136.0,0.0
R,U,"[5, 10]",1.0,6.0,0.5250229835510254,1.9567089080810547,0.422131058150576,13.0,137.0,0.0
R,U,"[4, 10]",1.0,7.0,0.30472803115844727,1.8936140537261963,0.5989660058856986,13.0,138.0,0.0
B,L,"[4, 9]",1.0,8.0,0.12267899513244629,1.8531701564788818,0.7351989930187648,13.0,139.0,0.0
R,U,"[3, 9]",1.0,9.0,0.19176292419433594,1.8616840839385986,0.6635871143291376,13.0,140.0,0.0
,,"(6, 6)",,,,,,,,
R,U,"[5, 6]",1.0,1.0,0.34218883514404297,2.3524749279022217,0.6327388468236952,14.0,141.0,0.0
Y,R,"[5, 7]",1.0,2.0,0.10996103286743164,1.5516340732574463,0.4345405407748763,14.0,142.0,0.0
Y,R,"[5, 8]",1.0,3.0,0.2959918975830078,1.7978339195251465,0.498963604429943,14.0,143.0,0.0
G,D,"[6, 8]",1.0,4.0,0.21606898307800293,1.7352430820465088,0.5174950426045298,14.0,144.0,0.0
Y,R,"[6, 9]",1.0,5.0,0.21964192390441895,1.5531220436096191,0.33743903077536413,14.0,145.0,0.0
Y,R,"[6, 10]",1.0,6.0,0.2830088138580322,1.758904218673706,0.4795210203772552,14.0,146.0,0.0
R,U,"[5, 10]",1.0,7.0,0.2819209098815918,1.5555760860443115,0.26850667409502693,14.0,147.0,0.0
R,U,"[4, 10]",1.0,8.0,0.40595483779907227,1.916363000869751,0.501225098126348,14.0,148.0,0.0
B,L,"[4, 9]",1.0,9.0,0.220228910446167,1.5465118885040283,0.3312115039569434,14.0,149.0,0.0
R,U,"[3, 9]",1.0,10.0,0.35122013092041016,1.838454008102417,0.4861842901590769,14.0,150.0,0.0
,,"(6, 6)",,,,,,,,
R,U,"[5, 6]",1.0,1.0,0.28800201416015625,2.5686991214752197,0.7213385228136506,15.0,151.0,0.0
Y,R,"[5, 7]",1.0,2.0,0.2682039737701416,1.6419899463653564,0.38024297920106304,15.0,152.0,0.0
Y,R,"[5, 8]",1.0,3.0,0.4082350730895996,2.110780954360962,0.6906426196267915,15.0,153.0,0.0
G,D,"[6, 8]",1.0,4.0,0.2151319980621338,1.863219976425171,0.6539884168778913,15.0,154.0,0.0
Y,R,"[6, 9]",1.0,5.0,0.1684708595275879,1.5520238876342773,0.3895955973576256,15.0,155.0,0.0
Y,R,"[6, 10]",1.0,6.0,0.19740819931030273,1.8511898517608643,0.6571632531507581,15.0,156.0,0.0
R,U,"[5, 10]",1.0,7.0,0.25255799293518066,1.5859198570251465,0.34331347818167623,15.0,157.0,0.0
R,U,"[4, 10]",1.0,8.0,0.21610307693481445,1.7425808906555176,0.5357067021830626,15.0,158.0,0.0
B,L,"[4, 9]",1.0,9.0,0.2641329765319824,1.6133320331573486,0.34905568535834114,15.0,159.0,0.0
R,U,"[3, 9]",1.0,10.0,0.26847386360168457,1.9873778820037842,0.7194958401837269,15.0,160.0,0.0
,,"(6, 6)",,,,,,,,
R,U,"[5, 6]",1.0,1.0,0.35206103324890137,2.5242440700531006,0.7104372861732979,16.0,161.0,0.0
Y,R,"[5, 7]",1.0,2.0,0.21941399574279785,1.5000700950622559,0.2940694021188806,16.0,162.0,0.0
Y,R,"[5, 8]",1.0,3.0,0.5564029216766357,1.9072811603546143,0.3680116223661475,16.0,163.0,0.0
G,D,"[6, 8]",1.0,4.0,0.29770803451538086,1.9824578762054443,0.6834792112727488,16.0,164.0,0.0
Y,R,"[6, 9]",1.0,5.0,0.389862060546875,2.1249070167541504,0.7418619738069896,16.0,165.0,0.0
Y,R,"[6, 10]",1.0,6.0,0.24765801429748535,1.5106852054595947,0.26930788252846066,16.0,166.0,0.0
R,U,"[5, 10]",1.0,7.0,0.39019203186035156,1.8880999088287354,0.4904875876117251,16.0,167.0,0.0
R,U,"[4, 10]",1.0,8.0,0.4097130298614502,1.9183988571166992,0.5089799726068174,16.0,168.0,0.0
B,L,"[4, 9]",1.0,9.0,0.3651158809661865,1.6384339332580566,0.2808210553587061,16.0,169.0,0.0
R,U,"[3, 9]",1.0,10.0,0.4061429500579834,1.7784311771392822,0.37593703082991603,16.0,170.0,0.0
,,"(6, 6)",,,,,,,,
R,U,"[5, 6]",1.0,1.0,0.36261892318725586,2.550153970718384,0.5594801836409822,17.0,171.0,0.0
Y,R,"[5, 7]",1.0,2.0,0.2692241668701172,1.5079069137573242,0.2506380780817215,17.0,172.0,0.0
Y,R,"[5, 8]",1.0,3.0,0.3459780216217041,2.0308690071105957,0.6810462835850519,17.0,173.0,0.0
G,D,"[6, 8]",1.0,4.0,0.2172551155090332,1.744359016418457,0.5255480647767696,17.0,174.0,0.0
Y,R,"[6, 9]",1.0,5.0,0.25295305252075195,1.537447214126587,0.29651768362038244,17.0,175.0,0.0
Y,R,"[6, 10]",1.0,6.0,0.3208780288696289,1.9887521266937256,0.6682283277032026,17.0,176.0,0.0
R,U,"[5, 10]",1.0,7.0,0.21953296661376953,1.6581809520721436,0.4433050473739998,17.0,177.0,0.0
R,U,"[4, 10]",1.0,8.0,0.221588134765625,1.4958088397979736,0.27257086943841463,17.0,178.0,0.0
B,L,"[4, 9]",1.0,9.0,0.2788231372833252,1.855069875717163,0.5772840944771511,17.0,179.0,0.0
R,U,"[3, 9]",1.0,10.0,0.2617027759552002,1.7551579475402832,0.4991267711633521,17.0,180.0,0.0
,,"(6, 6)",,,,,,,,
R,U,"[5, 6]",1.0,1.0,0.3393540382385254,2.238805055618286,0.3880569852266433,18.0,181.0,0.0
Y,R,"[5, 7]",1.0,2.0,0.3284330368041992,2.052426815032959,0.7234261815869392,18.0,182.0,0.0
Y,R,"[5, 8]",-1.0,2.0,0.06460785865783691,5.412286043167114,0.2859096417335628,18.0,183.0,0.0
G,D,"[6, 8]",1.0,3.0,0.27878713607788086,1.7586569786071777,0.4777738394781729,18.0,184.0,0.0
Y,R,"[6, 9]",1.0,4.0,0.3357429504394531,1.8935439586639404,0.5710848350286251,18.0,185.0,0.0
Y,R,"[6, 10]",1.0,5.0,0.23441314697265625,1.7344567775726318,0.505873217926152,18.0,186.0,0.0
R,U,"[5, 10]",1.0,6.0,0.2874448299407959,1.87847900390625,0.5840573600413242,18.0,187.0,0.0
R,U,"[4, 10]",1.0,7.0,0.236083984375,1.6445960998535156,0.4121773917081342,18.0,188.0,0.0
B,L,"[4, 9]",1.0,8.0,0.2601139545440674,1.7454888820648193,0.4741447135772351,18.0,189.0,0.0
R,U,"[3, 9]",1.0,9.0,0.2707960605621338,1.844235897064209,0.5848943022982029,18.0,190.0,0.0
,,"(6, 6)",,,,,,,,
R,U,"[5, 6]",1.0,1.0,0.3404221534729004,2.255688190460205,0.5575571690449714,19.0,191.0,0.0
Y,R,"[5, 7]",1.0,2.0,0.24669384956359863,1.9666500091552734,0.7236638351978323,19.0,192.0,0.0
Y,R,"[5, 8]",1.0,3.0,0.18312287330627441,1.5759429931640625,0.400042335417669,19.0,193.0,0.0
G,D,"[6, 8]",1.0,4.0,0.30072689056396484,1.8619680404663086,0.5617575275193543,19.0,194.0,0.0
Y,R,"[6, 9]",1.0,5.0,0.213270902633667,1.619612216949463,0.41491268530950765,19.0,195.0,0.0
Y,R,"[6, 10]",1.0,6.0,0.22449111938476562,1.645158052444458,0.40983580985414,19.0,196.0,0.0
R,U,"[5, 10]",1.0,7.0,0.2829310894012451,1.7069041728973389,0.4334769114986095,19.0,197.0,0.0
R,U,"[4, 10]",1.0,8.0,0.3102841377258301,1.8642230033874512,0.547516803922775,19.0,198.0,0.0
B,L,"[4, 9]",1.0,9.0,0.21665310859680176,1.6331510543823242,0.4141300127870734,19.0,199.0,0.0
R,U,"[3, 9]",1.0,10.0,0.27944397926330566,1.744847059249878,0.4589185795203969,19.0,200.0,0.0
,,"(6, 6)",,,,,,,,
R,U,"[5, 6]",1.0,1.0,0.3066089153289795,2.2685420513153076,0.427446275538239,20.0,201.0,0.0
Y,R,"[5, 7]",1.0,2.0,0.7673349380493164,2.354732036590576,0.5986184975186066,20.0,202.0,0.0
Y,R,"[5, 8]",1.0,3.0,0.23854708671569824,1.5416579246520996,0.2905911828293788,20.0,203.0,0.0
G,D,"[6, 8]",1.0,4.0,0.3661789894104004,1.7352750301361084,0.3756741709510964,20.0,204.0,0.0
Y,R,"[6, 9]",1.0,5.0,0.24913311004638672,1.5291881561279297,0.28840159413268224,20.0,205.0,0.0
Y,R,"[6, 10]",1.0,6.0,0.34767889976501465,1.958225965499878,0.6128871771830707,20.0,206.0,0.0
R,U,"[5, 10]",1.0,7.0,0.30787014961242676,2.023268938064575,0.702680548655932,20.0,207.0,0.0
R,U,"[4, 10]",1.0,8.0,0.21420812606811523,1.9010899066925049,0.6869960368550108,20.0,208.0,0.0
B,L,"[4, 9]",-1.0,8.0,0.07914304733276367,5.667518138885498,0.5212765644172432,20.0,209.0,0.0
R,U,"[3, 9]",1.0,9.0,0.28214383125305176,1.9492380619049072,0.6704190365723328,20.0,210.0,0.0
,,"(6, 6)",,,,,,,,
R,U,"[5, 6]",1.0,1.0,0.2688121795654297,4.583214044570923,0.32043706248769027,21.0,211.0,0.0
Y,R,"[5, 7]",1.0,2.0,0.5160350799560547,2.1428189277648926,0.6296750267958474,21.0,212.0,0.0
Y,R,"[5, 8]",1.0,3.0,0.3263740539550781,1.9681758880615234,0.6310646970804805,21.0,213.0,0.0
G,D,"[6, 8]",1.0,4.0,0.43335914611816406,1.7670269012451172,0.33177169592482003,21.0,214.0,0.0
Y,R,"[6, 9]",1.0,5.0,0.8088779449462891,2.339477062225342,0.5210136739249789,21.0,215.0,0.0
Y,R,"[6, 10]",1.0,6.0,0.24041199684143066,1.6200709342956543,0.3745994224257233,21.0,216.0,0.0
R,U,"[5, 10]",1.0,7.0,0.26374101638793945,1.5892958641052246,0.3305449616043415,21.0,217.0,0.0
R,U,"[4, 10]",1.0,8.0,0.37587404251098633,1.7779769897460938,0.39174568862172016,21.0,218.0,0.0
B,L,"[4, 9]",1.0,9.0,0.2640268802642822,1.6160051822662354,0.35772873934678967,21.0,219.0,0.0
R,U,"[3, 9]",1.0,10.0,0.25731706619262695,1.9587600231170654,0.6994599668674178,21.0,220.0,0.0
,,"(6, 6)",,,,,,,,
R,U,"[5, 6]",1.0,1.0,0.32979702949523926,13.112056016921997,0.32834008444058843,22.0,221.0,0.0
Y,R,"[5, 7]",1.0,2.0,0.17057394981384277,1.5059490203857422,0.3342187559390931,22.0,222.0,0.0
Y,R,"[5, 8]",-1.0,2.0,0.07401704788208008,5.874114036560059,0.7245378735942983,22.0,223.0,0.0
G,D,"[6, 8]",1.0,3.0,0.2722001075744629,1.543259859085083,0.26817226576875763,22.0,224.0,0.0
Y,R,"[6, 9]",1.0,4.0,0.547152042388916,2.25998592376709,0.7109708904163854,22.0,225.0,0.0
Y,R,"[6, 10]",1.0,5.0,0.22812414169311523,1.5658838748931885,0.3438901347779099,22.0,226.0,0.0
R,U,"[5, 10]",1.0,6.0,0.3784980773925781,1.763767957687378,0.39095406428912494,22.0,227.0,0.0
R,U,"[4, 10]",1.0,7.0,0.26882195472717285,1.5337600708007812,0.27474012167297934,22.0,228.0,0.0
B,L,"[4, 9]",1.0,8.0,0.5584859848022461,1.9179658889770508,0.35931610284944937,22.0,229.0,0.0
R,U,"[3, 9]",1.0,9.0,0.4067420959472656,2.0014188289642334,0.610478729622676,22.0,230.0,0.0
,,"(6, 6)",,,,,,,,
R,U,"[5, 6]",1.0,1.0,0.4096949100494385,2.7613730430603027,0.5218683820413436,23.0,231.0,0.0
Y,R,"[5, 7]",1.0,2.0,0.5410239696502686,2.1982810497283936,0.6534208461468944,23.0,232.0,0.0
Y,R,"[5, 8]",1.0,3.0,0.21634197235107422,1.5049710273742676,0.29192349313347893,23.0,233.0,0.0
G,D,"[6, 8]",1.0,4.0,0.4630410671234131,2.1529150009155273,0.6943578641205558,23.0,234.0,0.0
Y,R,"[6, 9]",1.0,5.0,0.27506589889526367,1.8135440349578857,0.5414157377284097,23.0,235.0,0.0
Y,R,"[6, 10]",1.0,6.0,0.2652568817138672,1.6233141422271729,0.3648530013970845,23.0,236.0,0.0
R,U,"[5, 10]",1.0,7.0,0.39317798614501953,1.6795251369476318,0.2778044770577331,23.0,237.0,0.0
R,U,"[4, 10]",1.0,8.0,0.5123550891876221,2.1987760066986084,0.692812670874311,23.0,238.0,0.0
B,L,"[4, 9]",1.0,9.0,0.2686500549316406,1.7208800315856934,0.4638790001162671,23.0,239.0,0.0
R,U,"[3, 9]",1.0,10.0,0.3139498233795166,1.7161688804626465,0.39659900521034785,23.0,240.0,0.0
,,"(6, 6)",,,,,,,,
R,U,"[5, 6]",1.0,1.0,0.3238189220428467,7.049689054489136,0.36301492253732426,24.0,241.0,0.0
Y,R,"[5, 7]",1.0,2.0,0.3923969268798828,1.6688339710235596,0.26521034263999416,24.0,242.0,0.0
Y,R,"[5, 8]",1.0,3.0,0.42652392387390137,1.990906000137329,0.555783552269336,24.0,243.0,0.0
G,D,"[6, 8]",1.0,4.0,0.32117414474487305,1.8003690242767334,0.4896645369063184,24.0,244.0,0.0
Y,R,"[6, 9]",1.0,5.0,0.2761850357055664,1.6613309383392334,0.38418528479052183,24.0,245.0,0.0
Y,R,"[6, 10]",1.0,6.0,0.4195380210876465,2.001152992248535,0.5851931477415173,24.0,246.0,0.0
R,U,"[5, 10]",1.0,7.0,0.26169896125793457,1.8266210556030273,0.5617754607563061,24.0,247.0,0.0
R,U,"[4, 10]",1.0,8.0,0.3134191036224365,1.662567138671875,0.35788059858933197,24.0,248.0,0.0
B,L,"[4, 9]",1.0,9.0,0.4591660499572754,1.928745985031128,0.46972701596252703,24.0,249.0,0.0
R,U,"[3, 9]",1.0,10.0,0.4149129390716553,2.0778470039367676,0.6640175820654182,24.0,250.0,0.0
,,"(6, 6)",,,,,,,,
R,U,"[5, 6]",1.0,1.0,0.3390331268310547,2.3733789920806885,0.38773694524993657,25.0,251.0,0.0
Y,R,"[5, 7]",1.0,2.0,0.6583139896392822,1.937859058380127,0.29228085870310466,25.0,252.0,0.0
Y,R,"[5, 8]",1.0,3.0,0.3294210433959961,1.8266639709472656,0.5020336474578351,25.0,253.0,0.0
G,D,"[6, 8]",1.0,4.0,0.30907607078552246,1.825847864151001,0.5111179270466477,25.0,254.0,0.0
Y,R,"[6, 9]",1.0,5.0,0.22944378852844238,1.804893970489502,0.5825475964081186,25.0,255.0,0.0
Y,R,"[6, 10]",1.0,6.0,0.2947561740875244,2.0081570148468018,0.7071817931025638,25.0,256.0,0.0
R,U,"[5, 10]",1.0,7.0,0.23412489891052246,1.7275900840759277,0.5016342806476896,25.0,257.0,0.0
B,L,"[5, 9]",0.0,7.0,0.3173811435699463,1.62391996383667,0.3090096381585104,25.0,258.0,0.0
R,U,"[4, 9]",1.0,8.0,0.3337290287017822,1.650434970855713,0.32618649478444045,25.0,259.0,0.0
R,U,"[3, 9]",1.0,9.0,0.37666893005371094,1.9784002304077148,0.6043011637098874,25.0,260.0,0.0
,,"(6, 6)",,,,,,,,
R,U,"[5, 6]",1.0,1.0,0.41616201400756836,2.159571886062622,0.36411616167823757,26.0,261.0,0.0
Y,R,"[5, 7]",1.0,2.0,0.2768378257751465,1.8640170097351074,0.5777951507515118,26.0,262.0,0.0
Y,R,"[5, 8]",1.0,3.0,0.19065594673156738,1.7160999774932861,0.5439337417049657,26.0,263.0,0.0
G,D,"[6, 8]",1.0,4.0,0.3039259910583496,2.0204830169677734,0.7147658383245987,26.0,264.0,0.0
Y,R,"[6, 9]",1.0,5.0,0.24364495277404785,1.5925531387329102,0.3405097080826645,26.0,265.0,0.0
Y,R,"[6, 10]",1.0,6.0,0.3323040008544922,1.8423359394073486,0.5158232501964257,26.0,266.0,0.0
R,U,"[5, 10]",1.0,7.0,0.35433101654052734,1.7794818878173828,0.4286906939620368,26.0,267.0,0.0
R,U,"[4, 10]",1.0,8.0,0.48795104026794434,1.9116430282592773,0.4236676804925142,26.0,268.0,0.0
B,L,"[4, 9]",1.0,9.0,0.2571558952331543,1.5809049606323242,0.3214018133818015,26.0,269.0,0.0
R,U,"[3, 9]",1.0,10.0,0.2973029613494873,2.028946876525879,0.7332215962266984,26.0,270.0,0.0
,,"(6, 6)",,,,,,,,
R,U,"[5, 6]",1.0,1.0,0.28815698623657227,2.607700824737549,0.6908272044647767,27.0,271.0,0.0
Y,R,"[5, 7]",1.0,2.0,0.28214502334594727,1.97393798828125,0.6980446814463037,27.0,272.0,0.0
Y,R,"[5, 8]",1.0,3.0,0.11502504348754883,1.3774840831756592,0.2594116238024544,27.0,273.0,0.0
G,D,"[6, 8]",1.0,4.0,0.4711909294128418,2.0370748043060303,0.562796213333302,27.0,274.0,0.0
Y,R,"[6, 9]",-1.0,4.0,0.06670999526977539,5.562138080596924,0.42484267611125887,27.0,275.0,0.0
Y,R,"[6, 10]",1.0,5.0,0.36111998558044434,1.9457330703735352,0.5871534708832058,27.0,276.0,0.0
R,U,"[5, 10]",1.0,6.0,0.22765111923217773,1.7625041007995605,0.5496423364742371,27.0,277.0,0.0
R,U,"[4, 10]",1.0,7.0,0.24366021156311035,1.5528030395507812,0.30259898632579124,27.0,278.0,0.0
B,L,"[4, 9]",1.0,8.0,0.39542388916015625,2.062047004699707,0.6642010296291112,27.0,279.0,0.0
R,U,"[3, 9]",1.0,9.0,0.2707350254058838,1.6598930358886719,0.3911298561496573,27.0,280.0,0.0
,,"(6, 6)",,,,,,,,
R,U,"[5, 6]",1.0,1.0,0.37875795364379883,3.168623924255371,0.45961973916356774,28.0,281.0,0.0
Y,R,"[5, 7]",1.0,2.0,0.3140528202056885,1.6896958351135254,0.3826856436922877,28.0,282.0,0.0
Y,R,"[5, 8]",1.0,3.0,0.43204402923583984,1.8728950023651123,0.4388744508830931,28.0,283.0,0.0
G,D,"[6, 8]",1.0,4.0,0.8764338493347168,2.3889830112457275,0.5109666266129953,28.0,284.0,0.0
Y,R,"[6, 9]",1.0,5.0,0.26001405715942383,1.7767460346221924,0.5211536831584689,28.0,285.0,0.0
Y,R,"[6, 10]",1.0,6.0,0.32856297492980957,1.7303221225738525,0.40153302432967786,28.0,286.0,0.0
R,U,"[5, 10]",1.0,7.0,0.2543509006500244,1.8381240367889404,0.5893948634650013,28.0,287.0,0.0
R,U,"[4, 10]",1.0,8.0,0.23652386665344238,1.5138270854949951,0.28680387796269385,28.0,288.0,0.0
B,L,"[4, 9]",1.0,9.0,0.432358980178833,2.1492128372192383,0.7189234693872687,28.0,289.0,0.0
R,U,"[3, 9]",1.0,10.0,0.21550393104553223,1.887584924697876,0.673070818220459,28.0,290.0,0.0
,,"(6, 6)",,,,,,,,
R,U,"[5, 6]",1.0,1.0,0.2981231212615967,2.7067270278930664,0.746486185054545,29.0,291.0,0.0
Y,R,"[5, 7]",1.0,2.0,0.2232658863067627,1.8917911052703857,0.6549374556216786,29.0,292.0,0.0
Y,R,"[5, 8]",1.0,3.0,0.29392409324645996,1.7526171207427979,0.4577826835328621,29.0,293.0,0.0
G,D,"[6, 8]",1.0,4.0,0.30526208877563477,1.9409329891204834,0.6316947010503089,29.0,294.0,0.0
Y,R,"[6, 9]",1.0,5.0,0.2119309902191162,1.8825979232788086,0.664316396351836,29.0,295.0,0.0
Y,R,"[6, 10]",1.0,6.0,0.25351810455322266,1.796522855758667,0.5442413678778601,29.0,296.0,0.0
R,U,"[5, 10]",1.0,7.0,0.2683589458465576,1.5706138610839844,0.3149803528958034,29.0,297.0,0.0
R,U,"[4, 10]",1.0,8.0,0.3889610767364502,1.7645988464355469,0.3795325158258126,29.0,298.0,0.0
B,L,"[4, 9]",1.0,9.0,0.28615498542785645,1.7630929946899414,0.47575955047914953,29.0,299.0,0.0
R,U,"[3, 9]",1.0,10.0,0.24517107009887695,1.6049530506134033,0.3642518901926067,29.0,300.0,0.0
,,"(6, 6)",,,,,,,,
R,U,"[5, 6]",-999.0,0.0,0.2762930393218994,4.009489059448242,0.40693363800475213,30.0,301.0,-4.0
Y,R,"[5, 7]",-999.0,0.0,0.42445898056030273,1.9027719497680664,0.4930319879741339,30.0,302.0,-4.0
Y,R,"[5, 8]",-999.0,0.0,0.3834409713745117,1.819275140762329,0.4455352184504662,30.0,303.0,-4.0
G,D,"[6, 8]",-999.0,0.0,0.4600868225097656,2.033982992172241,0.5793628427743669,30.0,304.0,-4.0
Y,R,"[6, 9]",-999.0,0.0,0.31075596809387207,1.6251389980316162,0.3046453195921713,30.0,305.0,-4.0
Y,R,"[6, 10]",-999.0,0.0,0.3970961570739746,1.8868370056152344,0.4913538792544923,30.0,306.0,-4.0
R,U,"[5, 10]",-999.0,0.0,0.47274184226989746,1.746034860610962,0.28756861563995195,30.0,307.0,-4.0
R,U,"[4, 10]",-999.0,0.0,0.5207219123840332,1.9980370998382568,0.4853909437432156,30.0,308.0,-4.0
R,U,"[3, 10]",-999.0,0.0,0.41573596000671387,2.159446954727173,0.7445868972501157,30.0,309.0,-4.0
Y,R,"[3, 11]",-999.0,0.0,0.8424150943756104,2.1566660404205322,0.301581551215034,30.0,310.0,1.0
,,"(6, 6)",,,,,,,,
R,U,"[5, 6]",-999.0,0.0,0.4597320556640625,3.589076042175293,0.3238146831778934,31.0,311.0,-4.0
Y,R,"[5, 7]",-999.0,0.0,0.35178208351135254,1.6685857772827148,0.3257220061320331,31.0,312.0,-4.0
Y,R,"[5, 8]",-999.0,0.0,0.41596412658691406,1.790503978729248,0.3829186995351209,31.0,313.0,-4.0
R,U,"[4, 8]",-999.0,0.0,0.427048921585083,2.002189874649048,0.5682184073627978,31.0,314.0,-4.0
R,U,"[3, 8]",-999.0,0.0,0.9479420185089111,2.2493698596954346,0.3009922242882273,31.0,315.0,1.0
,,"(6, 6)",,,,,,,,
B,L,"[3, 8]",-999.0,0.0,0.6725189685821533,2.4842090606689453,0.3018525381553218,32.0,316.0,-5.0
B,L,"[3, 8]",-999.0,0.0,0.4150960445404053,2.0973639488220215,0.6821390582678557,32.0,317.0,-5.0
R,U,"[3, 8]",-999.0,0.0,0.39658308029174805,1.9292209148406982,0.528136511571101,32.0,318.0,-5.0
R,U,"[3, 8]",-999.0,0.0,0.3458859920501709,1.795130968093872,0.4567418016619961,32.0,319.0,-5.0
B,L,"[3, 7]",-999.0,0.0,0.8778560161590576,2.60087513923645,0.7241989013255972,32.0,320.0,1.0
,,"(6, 6)",,,,,,,,
R,U,"[5, 6]",-2.0,0.0,1.275757074356079,3.2624611854553223,0.2534670260446032,33.0,321.0,0.0
Y,R,"[5, 7]",1.0,1.0,0.886174201965332,2.4242100715637207,0.5440683660551275,33.0,322.0,0.0
Y,R,"[5, 8]",1.0,2.0,0.5844550132751465,1.9150760173797607,0.3425889776846993,33.0,323.0,0.0
G,D,"[6, 8]",1.0,3.0,0.36517786979675293,1.6345210075378418,0.2771901557690353,33.0,324.0,0.0
Y,R,"[6, 9]",1.0,4.0,0.4584770202636719,1.9586379528045654,0.5023451752190317,33.0,325.0,0.0
Y,R,"[6, 10]",1.0,5.0,0.24972796440124512,1.7844271659851074,0.5365391337512777,33.0,326.0,0.0
R,U,"[5, 10]",1.0,6.0,0.1984391212463379,1.6116559505462646,0.4148965490919579,33.0,327.0,0.0
R,U,"[4, 10]",1.0,7.0,0.2908029556274414,2.045099973678589,0.7430662508968873,33.0,328.0,0.0
B,L,"[4, 9]",1.0,8.0,0.1200711727142334,1.7480149269104004,0.6410576804738914,33.0,329.0,0.0
R,U,"[3, 9]",1.0,9.0,0.20959091186523438,1.4786748886108398,0.2701121036271028,33.0,330.0,0.0
,,"(6, 6)",,,,,,,,
R,U,"[5, 6]",1.0,1.0,0.41002798080444336,3.0842478275299072,0.6871545632052165,34.0,331.0,0.0
Y,R,"[5, 7]",1.0,2.0,0.23292803764343262,1.9777240753173828,0.748172073045553,34.0,332.0,0.0
Y,R,"[5, 8]",1.0,3.0,0.5573651790618896,2.1519250869750977,0.5836008648161386,34.0,333.0,0.0
G,D,"[6, 8]",1.0,4.0,0.2463700771331787,1.942803144454956,0.6929424123505905,34.0,334.0,0.0
Y,R,"[6, 9]",1.0,5.0,0.2321779727935791,1.6367809772491455,0.4132875617736374,34.0,335.0,0.0
Y,R,"[6, 10]",1.0,6.0,0.34191203117370605,1.875135898590088,0.5214805689086703,34.0,336.0,0.0
R,U,"[5, 10]",1.0,7.0,0.23132014274597168,1.8717899322509766,0.6431354478208579,34.0,337.0,0.0
R,U,"[4, 10]",1.0,8.0,0.24499797821044922,1.5204789638519287,0.2806997895022256,34.0,338.0,0.0
B,L,"[4, 9]",1.0,9.0,0.2913088798522949,1.9281389713287354,0.6251559035748837,34.0,339.0,0.0
R,U,"[3, 9]",1.0,10.0,0.22809791564941406,1.527493953704834,0.3029580282731342,34.0,340.0,0.0
,,"(6, 6)",,,,,,,,
R,U,"[5, 6]",-999.0,0.0,0.520392894744873,2.563446044921875,0.549329440039302,35.0,341.0,-4.0
Y,R,"[5, 7]",-999.0,0.0,0.32063889503479004,1.9630630016326904,0.6456572969313223,35.0,342.0,-4.0
Y,R,"[5, 8]",-999.0,0.0,0.21685099601745605,1.7033309936523438,0.4825387335689009,35.0,343.0,-4.0
R,U,"[4, 8]",-999.0,0.0,0.31987905502319336,1.6684260368347168,0.3510441342071916,35.0,344.0,-4.0
R,U,"[3, 8]",-999.0,0.0,0.8941810131072998,2.276487112045288,0.3774673312624968,35.0,345.0,1.0
,,"(6, 6)",,,,,,,,
R,U,"[5, 6]",-2.0,0.0,1.12282395362854,3.6477150917053223,0.6417572831443487,36.0,346.0,0.0
R,U,"[4, 6]",0.0,0.0,0.5674889087677002,1.8130791187286377,0.25479949336997276,36.0,347.0,0.0
Y,R,"[4, 7]",0.0,0.0,0.22355318069458008,1.7088861465454102,0.49685407897327066,36.0,348.0,0.0
R,U,"[3, 7]",0.0,0.0,0.210129976272583,1.7719640731811523,0.5520827464130322,36.0,349.0,0.0
G,D,"[4, 7]",0.0,0.0,0.2636840343475342,1.7719829082489014,0.5073505777747698,36.0,350.0,0.0
,,"(6, 6)",,,,,,,,
G,D,"[4, 7]",-999.0,0.0,0.754641056060791,4.954901933670044,0.428828344976848,37.0,351.0,-5.0
G,D,"[4, 7]",-999.0,0.0,0.3711559772491455,1.696842908859253,0.32590228145206596,37.0,352.0,-5.0
G,D,"[4, 7]",-999.0,0.0,0.3927490711212158,1.9158780574798584,0.5415107577123001,37.0,353.0,-5.0
B,L,"[4, 7]",-999.0,0.0,0.4320530891418457,1.714684009552002,0.2896529392784614,37.0,354.0,-5.0
B,L,"[4, 7]",-999.0,0.0,0.32932591438293457,1.6462130546569824,0.3191823241553182,37.0,355.0,-5.0
R,U,"[4, 7]",-999.0,0.0,0.5893988609313965,1.9050848484039307,0.3242463076694753,37.0,356.0,-5.0
R,U,"[4, 7]",-999.0,0.0,0.48041200637817383,2.187371015548706,0.7111743251297122,37.0,357.0,-5.0
B,L,"[4, 7]",-999.0,0.0,0.9359090328216553,2.399792194366455,0.47807578212536067,37.0,358.0,-5.0
B,L,"[4, 7]",-999.0,0.0,0.402069091796875,1.8238251209259033,0.4349853403575105,37.0,359.0,-5.0
Y,R,"[4, 8]",-999.0,0.0,0.653717041015625,2.2196080684661865,0.5711103140011113,37.0,360.0,1.0
,,"(6, 6)",,,,,,,,
R,U,"[5, 6]",1.0,1.0,0.69150710105896,2.910794973373413,0.5984165462662732,38.0,361.0,0.0
Y,R,"[5, 7]",1.0,2.0,0.30926990509033203,1.7207870483398438,0.40277047946546235,38.0,362.0,0.0
Y,R,"[5, 8]",1.0,3.0,0.3047969341278076,1.7274589538574219,0.43016969552803247,38.0,363.0,0.0
G,D,"[6, 8]",1.0,4.0,0.2232801914215088,1.965090036392212,0.7282837901983434,38.0,364.0,0.0
Y,R,"[6, 9]",1.0,5.0,0.22414398193359375,1.88895583152771,0.6672204252489633,38.0,365.0,0.0
Y,R,"[6, 10]",1.0,6.0,0.23854398727416992,1.9326601028442383,0.6831686589508226,38.0,366.0,0.0
R,U,"[5, 10]",1.0,7.0,0.2909049987792969,1.6799330711364746,0.3800536530047112,38.0,367.0,0.0
R,U,"[4, 10]",1.0,8.0,0.42159080505371094,2.013859987258911,0.5935566261882199,38.0,368.0,0.0
B,L,"[4, 9]",1.0,9.0,0.22077202796936035,1.8884661197662354,0.6657062909873471,38.0,369.0,0.0
R,U,"[3, 9]",1.0,10.0,0.3705928325653076,1.927196979522705,0.5592800381434112,38.0,370.0,0.0
,,"(6, 6)",,,,,,,,
R,U,"[5, 6]",1.0,1.0,0.6741580963134766,2.8619070053100586,0.35469940626549484,39.0,371.0,0.0
Y,R,"[5, 7]",1.0,2.0,0.6099660396575928,2.234920024871826,0.6225953378664024,39.0,372.0,0.0
Y,R,"[5, 8]",1.0,3.0,0.48182106018066406,2.0854291915893555,0.6079538867336118,39.0,373.0,0.0
G,D,"[6, 8]",1.0,4.0,0.5265371799468994,1.8180909156799316,0.29307434427670237,39.0,374.0,0.0
Y,R,"[6, 9]",1.0,5.0,0.38378286361694336,1.7167389392852783,0.34308828931275437,39.0,375.0,0.0
Y,R,"[6, 10]",1.0,6.0,0.5063381195068359,1.7827339172363281,0.2758241261940317,39.0,376.0,0.0
R,U,"[5, 10]",1.0,7.0,0.38378000259399414,1.7671689987182617,0.39273732014203544,39.0,377.0,0.0
R,U,"[4, 10]",1.0,8.0,0.2541170120239258,1.8281350135803223,0.5874515921674628,39.0,378.0,0.0
B,L,"[4, 9]",1.0,9.0,0.20573186874389648,1.6336748600006104,0.4379940643185667,39.0,379.0,0.0
R,U,"[3, 9]",1.0,10.0,0.24220705032348633,1.9915499687194824,0.7457585522849769,39.0,380.0,0.0
,,"(6, 6)",,,,,,,,
R,U,"[5, 6]",1.0,1.0,0.5924909114837646,2.564082145690918,0.3102590178778319,40.0,381.0,0.0
Y,R,"[5, 7]",1.0,2.0,0.40735697746276855,1.8104021549224854,0.40382353946461735,40.0,382.0,0.0
Y,R,"[5, 8]",1.0,3.0,0.31470799446105957,2.0202651023864746,0.7070206490411118,40.0,383.0,0.0
G,D,"[6, 8]",1.0,4.0,0.22607183456420898,1.6734120845794678,0.44736492426854113,40.0,384.0,0.0
Y,R,"[6, 9]",1.0,5.0,0.30791187286376953,1.8540380001068115,0.5346270433685295,40.0,385.0,0.0
Y,R,"[6, 10]",1.0,6.0,0.22873806953430176,1.6262660026550293,0.3943623245120594,40.0,386.0,0.0
R,U,"[5, 10]",1.0,7.0,0.29903101921081543,1.7857680320739746,0.49662901337753595,40.0,387.0,0.0
R,U,"[4, 10]",1.0,8.0,0.26794886589050293,1.8975210189819336,0.6272202529894879,40.0,388.0,0.0
B,L,"[4, 9]",1.0,9.0,0.27863097190856934,1.6505780220031738,0.3780913542816772,40.0,389.0,0.0
R,U,"[3, 9]",1.0,10.0,0.32057785987854004,1.5756912231445312,0.2705432244419288,40.0,390.0,0.0
,,"(6, 6)",,,,,,,,
R,U,"[5, 6]",1.0,1.0,0.3757011890411377,2.3771488666534424,0.4307579335971814,41.0,391.0,0.0
Y,R,"[5, 7]",1.0,2.0,0.32090282440185547,1.9993000030517578,0.6798478000786903,41.0,392.0,0.0
Y,R,"[5, 8]",1.0,3.0,0.22498798370361328,1.7471389770507812,0.5104501133763037,41.0,393.0,0.0
G,D,"[6, 8]",1.0,4.0,0.3375821113586426,1.859740972518921,0.5368169053356144,41.0,394.0,0.0
Y,R,"[6, 9]",1.0,5.0,0.30889391899108887,1.5748820304870605,0.26184790690926435,41.0,395.0,0.0
Y,R,"[6, 10]",1.0,6.0,0.4532289505004883,2.0513839721679688,0.6128785555308902,41.0,396.0,0.0
R,U,"[5, 10]",1.0,7.0,0.4955282211303711,1.8438000679016113,0.3401997190626977,41.0,397.0,0.0
R,U,"[4, 10]",1.0,8.0,0.3901710510253906,2.1395061016082764,0.7459732638838332,41.0,398.0,0.0
B,L,"[4, 9]",1.0,9.0,0.1701810359954834,1.6484370231628418,0.47795695362040946,41.0,399.0,0.0
R,U,"[3, 9]",1.0,10.0,0.3188910484313965,1.8228018283843994,0.5177217410909263,41.0,400.0,0.0
,,"(6, 6)",,,,,,,,
R,U,"[5, 6]",1.0,1.0,0.35332417488098145,2.096381902694702,0.2640378475697751,42.0,401.0,0.0
Y,R,"[5, 7]",1.0,2.0,0.39549803733825684,1.7322618961334229,0.32965037307119016,42.0,402.0,0.0
Y,R,"[5, 8]",1.0,3.0,0.6261739730834961,2.3342580795288086,0.6966884703043217,42.0,403.0,0.0
G,D,"[6, 8]",1.0,4.0,0.44884204864501953,1.8604099750518799,0.40730991939569067,42.0,404.0,0.0
B,L,"[6, 7]",0.0,4.0,0.45171093940734863,2.1031758785247803,0.660275395869907,42.0,405.0,0.0
Y,R,"[6, 8]",-1.0,4.0,0.05718803405761719,5.707430124282837,0.6009732347512742,42.0,406.0,0.0
G,D,"[7, 8]",0.0,4.0,0.46108007431030273,1.9400560855865479,0.4744399817191882,42.0,407.0,0.0
Y,R,"[7, 9]",0.0,4.0,0.24264788627624512,1.4976801872253418,0.2556448279397663,42.0,408.0,0.0
R,U,"[6, 9]",1.0,5.0,0.27872204780578613,1.6518030166625977,0.37387789177733044,42.0,409.0,0.0
Y,R,"[6, 10]",1.0,6.0,0.39168500900268555,2.0197269916534424,0.6267438788267554,42.0,410.0,0.0
,,"(6, 6)",,,,,,,,
R,U,"[5, 6]",-999.0,0.0,0.5669999122619629,3.6878750324249268,0.7482270981735493,43.0,411.0,-4.0
Y,R,"[5, 7]",-999.0,0.0,0.38753199577331543,1.999697208404541,0.6142060204544804,43.0,412.0,-4.0
Y,R,"[5, 8]",-999.0,0.0,0.23993396759033203,1.6914100646972656,0.45591494879534455,43.0,413.0,-4.0
R,U,"[4, 8]",-999.0,0.0,0.4866318702697754,2.136009931564331,0.6584072098386324,43.0,414.0,-4.0
R,U,"[3, 8]",-999.0,0.0,0.5292320251464844,1.8003408908843994,0.27553430176056815,43.0,415.0,1.0
,,"(6, 6)",,,,,,,,
R,U,"[5, 6]",1.0,1.0,0.8247051239013672,2.8833298683166504,0.39203423753112376,44.0,416.0,0.0
Y,R,"[5, 7]",1.0,2.0,0.34987902641296387,1.851017951965332,0.5094868213311305,44.0,417.0,0.0
Y,R,"[5, 8]",1.0,3.0,0.24489188194274902,1.8537030220031738,0.6133896661513376,44.0,418.0,0.0
G,D,"[6, 8]",1.0,4.0,0.25517916679382324,1.7840590476989746,0.5139113707747137,44.0,419.0,0.0
Y,R,"[6, 9]",1.0,5.0,0.2418651580810547,1.9874780178070068,0.7343990472949284,44.0,420.0,0.0
,,"(6, 6)",,,,,,,,
G,D,"[6, 9]",-999.0,0.0,0.6485130786895752,37.41917085647583,0.28668001926440484,45.0,421.0,-5.0
G,D,"[6, 9]",-999.0,0.0,0.43161606788635254,1.9135990142822266,0.4834029643109053,45.0,422.0,-5.0
G,D,"[6, 9]",-999.0,0.0,0.3728749752044678,1.7965281009674072,0.42989893858652395,45.0,423.0,-5.0
B,L,"[6, 9]",-999.0,0.0,0.5799479484558105,1.8816699981689453,0.29492572328829586,45.0,424.0,-5.0
B,L,"[6, 9]",-999.0,0.0,0.34720921516418457,1.7998638153076172,0.4613972314193816,45.0,425.0,-5.0
R,U,"[6, 9]",-999.0,0.0,0.44719982147216797,2.1636149883270264,0.7246264048283856,45.0,426.0,-5.0
R,U,"[6, 9]",-999.0,0.0,0.3275279998779297,1.815676212310791,0.4904418086639257,45.0,427.0,-5.0
B,L,"[6, 9]",-999.0,0.0,0.42186498641967773,2.1544649600982666,0.745163070153527,45.0,428.0,-5.0
B,L,"[6, 9]",-999.0,0.0,0.44383883476257324,1.7354397773742676,0.2972375630890291,45.0,429.0,-5.0
B,L,"[6, 8]",-999.0,0.0,0.5408899784088135,1.905837059020996,0.3529633479942989,45.0,430.0,1.0
,,"(6, 6)",,,,,,,,
R,U,"[5, 6]",-999.0,0.0,0.423724889755249,2.725912094116211,0.7284451768596203,46.0,431.0,-4.0
Y,R,"[5, 7]",-999.0,0.0,0.35897397994995117,1.7134191989898682,0.375542174844794,46.0,432.0,-4.0
Y,R,"[5, 8]",-999.0,0.0,0.38466596603393555,1.6979589462280273,0.3234996280896391,46.0,433.0,-4.0
R,U,"[4, 8]",-999.0,0.0,0.4965670108795166,1.7986268997192383,0.30539854121007265,46.0,434.0,-4.0
R,U,"[3, 8]",-999.0,0.0,0.7505059242248535,2.0318479537963867,0.2872872694280499,46.0,435.0,1.0
,,"(6, 6)",,,,,,,,
G,D,"[3, 8]",-999.0,0.0,0.624596118927002,2.363154888153076,0.3503456039386747,47.0,436.0,-5.0
G,D,"[3, 8]",-999.0,0.0,0.4207620620727539,2.1423819065093994,0.7255145541382342,47.0,437.0,-5.0
G,D,"[3, 8]",-999.0,0.0,0.38406801223754883,2.022186040878296,0.6477441640236017,47.0,438.0,-5.0
B,L,"[3, 8]",-999.0,0.0,0.3567240238189697,1.867811918258667,0.515772552919473,47.0,439.0,-5.0
B,L,"[3, 8]",-999.0,0.0,0.25717592239379883,1.6015679836273193,0.3506886569146955,47.0,440.0,-5.0
,,"(6, 6)",,,,,,,,
R,U,"[5, 6]",-999.0,0.0,0.46047091484069824,3.1612141132354736,0.42850030685330437,48.0,441.0,-4.0
Y,R,"[5, 7]",-999.0,0.0,0.4480290412902832,1.9700191020965576,0.5317379418256234,48.0,442.0,-4.0
Y,R,"[5, 8]",-999.0,0.0,0.2946138381958008,1.7378849983215332,0.43629845718627197,48.0,443.0,-4.0
G,D,"[6, 8]",-999.0,0.0,0.5933961868286133,2.0541038513183594,0.45705142643954666,48.0,444.0,-4.0
Y,R,"[6, 9]",-2.0,0.0,1.1597487926483154,2.4051220417022705,0.29548172664691563,48.0,445.0,-4.0
Y,R,"[6, 10]",-999.0,0.0,0.4463021755218506,1.9213459491729736,0.4834626282762321,48.0,446.0,-4.0
R,U,"[5, 10]",-999.0,0.0,0.45598697662353516,2.041604995727539,0.5915039417811676,48.0,447.0,-4.0
R,U,"[4, 10]",-999.0,0.0,0.4066760540008545,1.8698890209197998,0.47813920310845687,48.0,448.0,-4.0
R,U,"[3, 10]",-999.0,0.0,0.36589694023132324,2.089831829071045,0.7342421357667658,48.0,449.0,-4.0
Y,R,"[3, 11]",-999.0,0.0,0.596890926361084,2.047545909881592,0.4488735702010979,48.0,450.0,1.0
,,"(6, 6)",,,,,,,,
B,L,"[3, 11]",-999.0,0.0,0.6518499851226807,2.55717396736145,0.5225177352538567,49.0,451.0,-5.0
B,L,"[3, 11]",-999.0,0.0,0.45297980308532715,2.0592691898345947,0.6149179503438755,49.0,452.0,-5.0
R,U,"[3, 11]",-999.0,0.0,0.48121213912963867,1.8690540790557861,0.38430753616924496,49.0,453.0,-5.0
R,U,"[3, 11]",-999.0,0.0,0.3625349998474121,2.0371010303497314,0.6710305699457952,49.0,454.0,-5.0
R,U,"[2, 11]",-999.0,0.0,0.7901489734649658,2.0752158164978027,0.2965773719324278,49.0,455.0,1.0
,,"(6, 6)",,,,,,,,
R,U,"[5, 6]",1.0,1.0,0.7615969181060791,2.9598100185394287,0.43947978174423,50.0,456.0,0.0
Y,R,"[5, 7]",1.0,2.0,0.2718222141265869,1.6078932285308838,0.3307770980479867,50.0,457.0,0.0
Y,R,"[5, 8]",1.0,3.0,0.2522101402282715,1.5995159149169922,0.3469910558586992,50.0,458.0,0.0
G,D,"[6, 8]",1.0,4.0,0.24457406997680664,1.7780218124389648,0.5248186203771461,50.0,459.0,0.0
Y,R,"[6, 9]",1.0,5.0,0.2394859790802002,1.5290501117706299,0.28734404352490744,50.0,460.0,0.0
,,"(6, 6)",,,,,,,,
R,U,"[5, 6]",-999.0,0.0,0.5595219135284424,3.9782330989837646,0.36549028072109746,51.0,461.0,-4.0
Y,R,"[5, 7]",-999.0,0.0,0.3607628345489502,1.8162901401519775,0.4483314355348269,51.0,462.0,-4.0
Y,R,"[5, 8]",-999.0,0.0,0.2240591049194336,1.8973169326782227,0.6787040628331414,51.0,463.0,-4.0
G,D,"[6, 8]",-999.0,0.0,0.3230559825897217,1.8293089866638184,0.5080602035861579,51.0,464.0,-4.0
Y,R,"[6, 9]",-999.0,0.0,0.2446138858795166,1.5278069972991943,0.28617608049220217,51.0,465.0,-4.0
Y,R,"[6, 10]",-999.0,0.0,0.3901100158691406,1.7550771236419678,0.37437506567782536,51.0,466.0,-4.0
R,U,"[5, 10]",-999.0,0.0,0.4042818546295166,2.0189061164855957,0.6264233576242237,51.0,467.0,-4.0
R,U,"[4, 10]",-999.0,0.0,0.22436904907226562,1.763580083847046,0.5568186144616347,51.0,468.0,-4.0
R,U,"[3, 10]",-999.0,0.0,0.30968213081359863,1.655229091644287,0.3621039052247591,51.0,469.0,-4.0
R,U,"[2, 10]",-999.0,0.0,0.5280489921569824,2.192805051803589,0.6546796938702726,51.0,470.0,1.0
,,"(6, 6)",,,,,,,,
R,U,"[5, 6]",1.0,1.0,0.5054299831390381,2.4917798042297363,0.5296887168232901,52.0,471.0,0.0
Y,R,"[5, 7]",1.0,2.0,0.18259310722351074,1.7688899040222168,0.5818398945775087,52.0,472.0,0.0
Y,R,"[5, 8]",1.0,3.0,0.18236804008483887,1.6808860301971436,0.4960996054391148,52.0,473.0,0.0
G,D,"[6, 8]",1.0,4.0,0.21669602394104004,1.8829190731048584,0.6621986804886937,52.0,474.0,0.0
Y,R,"[6, 9]",1.0,5.0,0.1954360008239746,1.7091600894927979,0.5048220581023697,52.0,475.0,0.0
R,U,"[5, 9]",0.0,5.0,0.5409581661224365,2.12312388420105,0.5777132330897659,52.0,476.0,0.0
Y,R,"[5, 10]",1.0,6.0,0.44558095932006836,2.104606866836548,0.6655861473880939,52.0,477.0,0.0
R,U,"[4, 10]",1.0,7.0,0.2658731937408447,1.6586048603057861,0.391229830826921,52.0,478.0,0.0
B,L,"[4, 9]",1.0,8.0,0.4198780059814453,1.910964012145996,0.5018432086018182,52.0,479.0,0.0
R,U,"[3, 9]",1.0,9.0,0.4311981201171875,1.948375940322876,0.5169610712796047,52.0,480.0,0.0
,,"(6, 6)",,,,,,,,
R,U,"[5, 6]",-999.0,0.0,0.48044490814208984,2.814470052719116,0.648318521777894,53.0,481.0,-4.0
Y,R,"[5, 7]",-999.0,0.0,0.3555030822753906,2.0134761333465576,0.6613218114059303,53.0,482.0,-4.0
Y,R,"[5, 8]",-999.0,0.0,0.2845749855041504,1.9926950931549072,0.7205526188304816,53.0,483.0,-4.0
R,U,"[4, 8]",-999.0,0.0,0.43038105964660645,1.9815680980682373,0.5522222773336771,53.0,484.0,-4.0
Y,R,"[4, 9]",-999.0,0.0,0.49419093132019043,1.9460341930389404,0.4482974095050649,53.0,485.0,1.0
,,"(6, 6)",,,,,,,,
R,U,"[5, 6]",1.0,1.0,0.5484378337860107,2.6433498859405518,0.6581238036418617,54.0,486.0,0.0
Y,R,"[5, 7]",1.0,2.0,0.27973008155822754,1.7356529235839844,0.46057760429999045,54.0,487.0,0.0
Y,R,"[5, 8]",1.0,3.0,0.33538389205932617,2.0678508281707764,0.7447309173118355,54.0,488.0,0.0
Y,R,"[5, 9]",0.0,3.0,0.46865200996398926,1.9443519115447998,0.489286938121141,54.0,489.0,0.0
G,D,"[6, 9]",1.0,4.0,0.22165203094482422,1.560931921005249,0.3504287125318173,54.0,490.0,0.0
,,"(6, 6)",,,,,,,,
B,L,"[6, 9]",-999.0,0.0,0.6256380081176758,3.3242218494415283,0.6912950966004389,55.0,491.0,-5.0
B,L,"[6, 9]",-999.0,0.0,0.31032299995422363,1.5692250728607178,0.2605133778053215,55.0,492.0,-5.0
R,U,"[6, 9]",-999.0,0.0,0.47263407707214355,1.8363358974456787,0.3800288922250652,55.0,493.0,-5.0
R,U,"[6, 9]",-999.0,0.0,0.27963995933532715,1.771589994430542,0.48480107202354783,55.0,494.0,-5.0
Y,R,"[6, 10]",-999.0,0.0,0.5019919872283936,1.9250221252441406,0.42651300041339163,55.0,495.0,1.0
,,"(6, 6)",,,,,,,,
R,U,"[5, 6]",1.0,1.0,0.725661039352417,2.8845081329345703,0.5275262152115991,56.0,496.0,0.0
Y,R,"[5, 7]",1.0,2.0,0.23991894721984863,1.7021000385284424,0.46300309091857167,56.0,497.0,0.0
Y,R,"[5, 8]",1.0,3.0,0.3583829402923584,1.9144208431243896,0.5439290861832204,56.0,498.0,0.0
G,D,"[6, 8]",1.0,4.0,0.38725900650024414,1.959467887878418,0.5866952209789595,56.0,499.0,0.0
Y,R,"[6, 9]",1.0,5.0,0.19355487823486328,1.5136699676513672,0.31728614242379927,56.0,500.0,0.0
,,"(6, 6)",,,,,,,,
R,U,"[5, 6]",1.0,1.0,0.5270500183105469,3.0588932037353516,0.6258110059888868,57.0,501.0,0.0
Y,R,"[5, 7]",1.0,2.0,0.25387096405029297,1.7722198963165283,0.5314088512379096,57.0,502.0,0.0
Y,R,"[5, 8]",1.0,3.0,0.31354808807373047,1.9435899257659912,0.6249118799440003,57.0,503.0,0.0
G,D,"[6, 8]",1.0,4.0,0.29919886589050293,1.8925719261169434,0.6009652473468599,57.0,504.0,0.0
Y,R,"[6, 9]",1.0,5.0,0.40319395065307617,1.9618067741394043,0.562588170354953,57.0,505.0,0.0
Y,R,"[6, 10]",1.0,6.0,0.3998880386352539,1.9954779148101807,0.5913128697643496,57.0,506.0,0.0
R,U,"[5, 10]",1.0,7.0,0.3392188549041748,2.007598876953125,0.6655163317575434,57.0,507.0,0.0
R,U,"[4, 10]",1.0,8.0,0.26723313331604004,1.5367789268493652,0.26929497007838277,57.0,508.0,0.0
B,L,"[4, 9]",1.0,9.0,0.31612396240234375,1.6147098541259766,0.30060870584079186,57.0,509.0,0.0
R,U,"[3, 9]",1.0,10.0,0.32146310806274414,1.6337840557098389,0.31766113407224417,57.0,510.0,0.0
,,"(6, 6)",,,,,,,,
R,U,"[5, 6]",1.0,1.0,0.4632909297943115,2.338809013366699,0.5229141028500783,58.0,511.0,0.0
Y,R,"[5, 7]",1.0,2.0,0.19777297973632812,1.4942870140075684,0.300616730209746,58.0,512.0,0.0
Y,R,"[5, 8]",1.0,3.0,0.23622488975524902,1.4878768920898438,0.2552599164659145,58.0,513.0,0.0
G,D,"[6, 8]",1.0,4.0,0.3804318904876709,1.7372069358825684,0.358965589938768,58.0,514.0,0.0
Y,R,"[6, 9]",1.0,5.0,0.18910598754882812,1.6108767986297607,0.41979675319767845,58.0,515.0,0.0
Y,R,"[6, 10]",1.0,6.0,0.24136781692504883,1.6820271015167236,0.435025381264928,58.0,516.0,0.0
R,U,"[5, 10]",1.0,7.0,0.2630579471588135,1.8829050064086914,0.6178009730706728,58.0,517.0,0.0
R,U,"[4, 10]",1.0,8.0,0.25568318367004395,1.6647429466247559,0.3993673580857729,58.0,518.0,0.0
B,L,"[4, 9]",1.0,9.0,0.25203800201416016,1.6478290557861328,0.39719455894852174,58.0,519.0,0.0
R,U,"[3, 9]",1.0,10.0,0.28100013732910156,1.5560321807861328,0.2699605656612182,58.0,520.0,0.0
,,"(6, 6)",,,,,,,,
R,U,"[5, 6]",-999.0,0.0,0.40700411796569824,3.0774431228637695,0.4471277724267956,59.0,521.0,-4.0
Y,R,"[5, 7]",-999.0,0.0,0.32566285133361816,2.0133121013641357,0.6768936899243303,59.0,522.0,-4.0
Y,R,"[5, 8]",-999.0,0.0,0.2556271553039551,1.9479999542236328,0.7081807628957609,59.0,523.0,-4.0
R,U,"[4, 8]",-999.0,0.0,0.3977940082550049,1.7760648727416992,0.38453067470387164,59.0,524.0,-4.0
Y,R,"[4, 9]",-999.0,0.0,0.5992701053619385,2.3234009742736816,0.7242220024137858,59.0,525.0,1.0
,,"(6, 6)",,,,,,,,
B,L,"[4, 9]",-999.0,0.0,0.6615650653839111,2.4808831214904785,0.45524284875227977,60.0,526.0,-5.0
B,L,"[4, 9]",-999.0,0.0,0.3535299301147461,1.9059650897979736,0.5611282238569087,60.0,527.0,-5.0
R,U,"[4, 9]",-999.0,0.0,0.3634779453277588,1.6904451847076416,0.33508827326457635,60.0,528.0,-5.0
R,U,"[4, 9]",-999.0,0.0,0.3452489376068115,1.9106061458587646,0.562032807491331,60.0,529.0,-5.0
B,L,"[4, 8]",-999.0,0.0,0.8715848922729492,2.5094339847564697,0.6383267650931513,60.0,530.0,1.0
,,"(6, 6)",,,,,,,,
R,U,"[5, 6]",1.0,1.0,0.6305389404296875,2.5714919567108154,0.5096420104002412,61.0,531.0,0.0
Y,R,"[5, 7]",1.0,2.0,0.21582388877868652,1.8884978294372559,0.6813210473597326,61.0,532.0,0.0
Y,R,"[5, 8]",1.0,3.0,0.20988011360168457,1.7364270687103271,0.5178536118347272,61.0,533.0,0.0
G,D,"[6, 8]",1.0,4.0,0.429462194442749,1.8684360980987549,0.4362618300452282,61.0,534.0,0.0
Y,R,"[6, 9]",1.0,5.0,0.2748119831085205,1.9862840175628662,0.7057266152918107,61.0,535.0,0.0
Y,R,"[6, 10]",1.0,6.0,0.6194970607757568,2.198596954345703,0.5876709943129232,61.0,536.0,0.0
R,U,"[5, 10]",1.0,7.0,0.19526290893554688,1.6479649543762207,0.4523388346695305,61.0,537.0,0.0
R,U,"[4, 10]",1.0,8.0,0.30647993087768555,2.0532138347625732,0.7385626228720304,61.0,538.0,0.0
B,L,"[4, 9]",1.0,9.0,0.17935585975646973,1.4639501571655273,0.2861871289355139,61.0,539.0,0.0
R,U,"[3, 9]",1.0,10.0,0.4197878837585449,1.6909101009368896,0.27720373706300694,61.0,540.0,0.0
,,"(6, 6)",,,,,,,,
R,U,"[5, 6]",1.0,1.0,0.4000539779663086,2.464777946472168,0.6249020016793465,62.0,541.0,0.0
Y,R,"[5, 7]",1.0,2.0,0.22073006629943848,1.8925340175628662,0.6842864118408929,62.0,542.0,0.0
Y,R,"[5, 8]",1.0,3.0,0.2306969165802002,1.790827989578247,0.5582335374966677,62.0,543.0,0.0
G,D,"[6, 8]",-2.0,3.0,1.0143930912017822,2.268033981323242,0.2931676982347534,62.0,544.0,0.0
Y,R,"[6, 9]",1.0,4.0,0.38062000274658203,1.9957489967346191,0.6218862626111435,62.0,545.0,0.0
Y,R,"[6, 10]",1.0,5.0,0.2666449546813965,1.6146728992462158,0.35349213555362874,62.0,546.0,0.0
R,U,"[5, 10]",1.0,6.0,0.7950310707092285,2.125818967819214,0.32923045885875,62.0,547.0,0.0
R,U,"[4, 10]",1.0,7.0,0.24366116523742676,1.853971004486084,0.599647667869847,62.0,548.0,0.0
B,L,"[4, 9]",1.0,8.0,0.14658498764038086,1.7927749156951904,0.6422425639462941,62.0,549.0,0.0
R,U,"[3, 9]",1.0,9.0,0.2172379493713379,1.6503329277038574,0.44280255641013305,62.0,550.0,0.0
,,"(6, 6)",,,,,,,,
R,U,"[5, 6]",1.0,1.0,0.2764749526977539,2.2937259674072266,0.3864999227851242,63.0,551.0,0.0
Y,R,"[5, 7]",1.0,2.0,0.26722097396850586,1.8990790843963623,0.6353555079595855,63.0,552.0,0.0
Y,R,"[5, 8]",1.0,3.0,0.20227694511413574,1.5104198455810547,0.31260610506421094,63.0,553.0,0.0
G,D,"[6, 8]",1.0,4.0,0.3355848789215088,1.7632458209991455,0.42590910062599224,63.0,554.0,0.0
Y,R,"[6, 9]",1.0,5.0,0.27861809730529785,1.9531960487365723,0.6786011476558564,63.0,555.0,0.0
Y,R,"[6, 10]",1.0,6.0,0.46215105056762695,1.832808017730713,0.3617303952970918,63.0,556.0,0.0
R,U,"[5, 10]",1.0,7.0,0.32519006729125977,1.7603168487548828,0.43867670744775744,63.0,557.0,0.0
R,U,"[4, 10]",1.0,8.0,0.2624630928039551,1.5867259502410889,0.3253492922397217,63.0,558.0,0.0
B,L,"[4, 9]",1.0,9.0,0.3021891117095947,1.7810180187225342,0.48961139331594067,63.0,559.0,0.0
R,U,"[3, 9]",1.0,10.0,0.21984195709228516,1.6120941638946533,0.4017859332905651,63.0,560.0,0.0
,,"(6, 6)",,,,,,,,
R,U,"[5, 6]",-999.0,0.0,0.3952040672302246,3.2212250232696533,0.62276773331469,64.0,561.0,-4.0
Y,R,"[5, 7]",-999.0,0.0,0.325531005859375,1.7657828330993652,0.4552870891200953,64.0,562.0,-4.0
Y,R,"[5, 8]",-999.0,0.0,0.31809210777282715,1.888969898223877,0.5774087433847201,64.0,563.0,-4.0
G,D,"[6, 8]",-999.0,0.0,0.29347991943359375,1.9775779247283936,0.6882617807221056,64.0,564.0,-4.0
Y,R,"[6, 9]",-999.0,0.0,0.19219398498535156,1.876682996749878,0.6986295371279391,64.0,565.0,-4.0
Y,R,"[6, 10]",-999.0,0.0,0.3159139156341553,1.8297560214996338,0.5116504212362131,64.0,566.0,-4.0
R,U,"[5, 10]",-999.0,0.0,0.2770700454711914,2.01377010345459,0.7416094620474494,64.0,567.0,-4.0
R,U,"[4, 10]",-999.0,0.0,0.20570588111877441,1.8588330745697021,0.6671558177353925,64.0,568.0,-4.0
R,U,"[3, 10]",-999.0,0.0,0.36467409133911133,1.7463619709014893,0.3803526348230376,64.0,569.0,-4.0
Y,R,"[3, 11]",-999.0,0.0,0.45172595977783203,2.0320651531219482,0.5788466844882085,64.0,570.0,1.0
,,"(6, 6)",,,,,,,,
R,U,"[5, 6]",1.0,1.0,0.8552639484405518,2.922740936279297,0.5349760653462524,65.0,571.0,0.0
Y,R,"[5, 7]",1.0,2.0,0.2287001609802246,1.6735520362854004,0.4418810254977955,65.0,572.0,0.0
Y,R,"[5, 8]",1.0,3.0,0.2789628505706787,1.918506145477295,0.6434014944407661,65.0,573.0,0.0
G,D,"[6, 8]",1.0,4.0,0.22431087493896484,1.970487117767334,0.7471824587598422,65.0,574.0,0.0
Y,R,"[6, 9]",1.0,5.0,0.2849440574645996,1.7062759399414062,0.42044404048230744,65.0,575.0,0.0
Y,R,"[6, 10]",1.0,6.0,0.3722960948944092,2.067844867706299,0.6881150873901828,65.0,576.0,0.0
R,U,"[5, 10]",1.0,7.0,0.37830615043640137,1.9889140129089355,0.6102719154519816,65.0,577.0,0.0
R,U,"[4, 10]",1.0,8.0,0.2279350757598877,1.6219921112060547,0.39908150102043116,65.0,578.0,0.0
B,L,"[4, 9]",1.0,9.0,0.40058398246765137,1.7296440601348877,0.32877803660650895,65.0,579.0,0.0
R,U,"[3, 9]",1.0,10.0,0.4259610176086426,1.8939480781555176,0.4724889032163502,65.0,580.0,0.0
,,"(6, 6)",,,,,,,,
R,U,"[5, 6]",1.0,1.0,0.39264702796936035,2.504531145095825,0.6601005422669668,66.0,581.0,0.0
Y,R,"[5, 7]",1.0,2.0,0.20780110359191895,1.600924015045166,0.39457371094611565,66.0,582.0,0.0
Y,R,"[5, 8]",1.0,3.0,0.3560218811035156,2.0855648517608643,0.7468950182875088,66.0,583.0,0.0
G,D,"[6, 8]",1.0,4.0,0.23877811431884766,1.724647045135498,0.4714612902697782,66.0,584.0,0.0
Y,R,"[6, 9]",1.0,5.0,0.540153980255127,2.096165180206299,0.5507569265116709,66.0,585.0,0.0
Y,R,"[6, 10]",1.0,6.0,0.24911284446716309,1.668152093887329,0.41890045466133985,66.0,586.0,0.0
R,U,"[5, 10]",1.0,7.0,0.27768707275390625,1.6073260307312012,0.3264090369638024,66.0,587.0,0.0
R,U,"[4, 10]",1.0,8.0,0.4705009460449219,2.1424739360809326,0.6851782496506549,66.0,588.0,0.0
B,L,"[4, 9]",1.0,9.0,0.3074679374694824,1.672302007675171,0.3576405444884316,66.0,589.0,0.0
R,U,"[3, 9]",1.0,10.0,0.29178595542907715,2.0254480838775635,0.733199609164733,66.0,590.0,0.0
,,"(6, 6)",,,,,,,,
B,L,"[3, 9]",-999.0,0.0,0.7214221954345703,2.7069859504699707,0.4899473672947748,67.0,591.0,-5.0
B,L,"[3, 9]",-999.0,0.0,0.2824060916900635,1.7755160331726074,0.4988062224390098,67.0,592.0,-5.0
R,U,"[3, 9]",-999.0,0.0,0.4460408687591553,2.098483085632324,0.6470415335881435,67.0,593.0,-5.0
R,U,"[3, 9]",-999.0,0.0,0.27501916885375977,1.7894670963287354,0.5198644486280615,67.0,594.0,-5.0
Y,R,"[3, 10]",-999.0,0.0,0.41872096061706543,1.8854830265045166,0.4721294090630419,67.0,595.0,1.0
,,"(6, 6)",,,,,,,,
B,L,"[3, 10]",-999.0,0.0,0.5571281909942627,2.631988048553467,0.6539016358689453,68.0,596.0,-5.0
B,L,"[3, 10]",-999.0,0.0,0.2341611385345459,1.5812609195709229,0.3521993665220461,68.0,597.0,-5.0
R,U,"[3, 10]",-999.0,0.0,0.37563610076904297,1.8475019931793213,0.48262379059266525,68.0,598.0,-5.0
R,U,"[3, 10]",-999.0,0.0,0.20070195198059082,1.786182165145874,0.5854750607303494,68.0,599.0,-5.0
Y,R,"[3, 11]",-999.0,0.0,0.44432687759399414,1.7360560894012451,0.2884515588896961,68.0,600.0,1.0
,,"(6, 6)",,,,,,,,
R,U,"[5, 6]",1.0,1.0,0.5910890102386475,2.625570058822632,0.5469898058427954,69.0,601.0,0.0
Y,R,"[5, 7]",1.0,2.0,0.2827720642089844,1.8697760105133057,0.5833855508107277,69.0,602.0,0.0
Y,R,"[5, 8]",1.0,3.0,0.3822629451751709,1.7099840641021729,0.3268486071505573,69.0,603.0,0.0
R,U,"[4, 8]",0.0,3.0,0.581913948059082,2.1791579723358154,0.6060103934511856,69.0,604.0,0.0
G,D,"[5, 8]",-1.0,3.0,0.05191493034362793,5.614579916000366,0.5036035603157138,69.0,605.0,0.0
Y,R,"[5, 9]",0.0,3.0,0.27490687370300293,1.8183190822601318,0.5385799315859174,69.0,606.0,0.0
R,U,"[4, 9]",1.0,4.0,0.3133268356323242,1.7649850845336914,0.45363175906848346,69.0,607.0,0.0
B,L,"[4, 8]",0.0,4.0,0.2764911651611328,2.020080089569092,0.7400153202762921,69.0,608.0,0.0
R,U,"[3, 8]",0.0,4.0,0.512854814529419,1.8686470985412598,0.35896492719083906,69.0,609.0,0.0
R,U,"[2, 8]",0.0,4.0,0.24010276794433594,1.6473288536071777,0.40629945615009033,69.0,610.0,0.0
,,"(6, 6)",,,,,,,,
R,U,"[5, 6]",-999.0,0.0,0.4570798873901367,2.551316976547241,0.3408310155969555,70.0,611.0,-4.0
Y,R,"[5, 7]",-999.0,0.0,0.3441150188446045,2.0606191158294678,0.7177923319596158,70.0,612.0,-4.0
Y,R,"[5, 8]",-999.0,0.0,0.2414381504058838,1.8690130710601807,0.6371059346009067,70.0,613.0,-4.0
G,D,"[6, 8]",-999.0,0.0,0.34183597564697266,1.7071850299835205,0.37762566460081975,70.0,614.0,-4.0
Y,R,"[6, 9]",-999.0,0.0,0.26802802085876465,1.713939905166626,0.4583434886154884,70.0,615.0,-4.0
Y,R,"[6, 10]",-999.0,0.0,0.3602428436279297,1.753722906112671,0.395377856887624,70.0,616.0,-4.0
R,U,"[5, 10]",-999.0,0.0,0.20403099060058594,1.53963303565979,0.3514207347245258,70.0,617.0,-4.0
R,U,"[4, 10]",-999.0,0.0,0.28607606887817383,1.9438059329986572,0.6615779063337837,70.0,618.0,-4.0
R,U,"[3, 10]",-999.0,0.0,0.31870317459106445,1.696599006652832,0.39178562647842624,70.0,619.0,-4.0
Y,R,"[3, 11]",-999.0,0.0,0.23163795471191406,1.836555004119873,0.611304654382823,70.0,620.0,1.0
,,"(6, 6)",,,,,,,,
R,U,"[5, 6]",1.0,1.0,0.4068470001220703,2.277148962020874,0.37210508316577573,71.0,621.0,0.0
Y,R,"[5, 7]",1.0,2.0,0.36800503730773926,2.109057903289795,0.7474531001926709,71.0,622.0,0.0
Y,R,"[5, 8]",1.0,3.0,0.2962830066680908,1.769623041152954,0.4672488987467592,71.0,623.0,0.0
G,D,"[6, 8]",1.0,4.0,0.47165989875793457,2.071474075317383,0.6052710852103054,71.0,624.0,0.0
Y,R,"[6, 9]",1.0,5.0,0.3699960708618164,1.6646811962127686,0.30342832015542975,71.0,625.0,0.0
Y,R,"[6, 10]",1.0,6.0,0.5483379364013672,2.0620229244232178,0.5153241035032938,71.0,626.0,0.0
R,U,"[5, 10]",1.0,7.0,0.5337698459625244,2.2241320610046387,0.6891962801989544,71.0,627.0,0.0
R,U,"[4, 10]",1.0,8.0,0.26689910888671875,1.9614379405975342,0.7006066952149363,71.0,628.0,0.0
B,L,"[4, 9]",1.0,9.0,0.34235119819641113,2.0042529106140137,0.6547782598207648,71.0,629.0,0.0
R,U,"[3, 9]",1.0,10.0,0.33928513526916504,1.8882598876953125,0.5432560449264774,71.0,630.0,0.0
,,"(6, 6)",,,,,,,,
R,U,"[5, 6]",1.0,1.0,0.5976688861846924,3.543372869491577,0.7196740282171745,72.0,631.0,0.0
Y,R,"[5, 7]",1.0,2.0,0.27008700370788574,1.6731598377227783,0.4098441322774446,72.0,632.0,0.0
Y,R,"[5, 8]",1.0,3.0,0.332197904586792,1.6302199363708496,0.3066720587447191,72.0,633.0,0.0
G,D,"[6, 8]",1.0,4.0,0.32587504386901855,1.9787940979003906,0.6522682863310085,72.0,634.0,0.0
Y,R,"[6, 9]",1.0,5.0,0.16543197631835938,1.4308478832244873,0.2663055227983118,72.0,635.0,0.0
Y,R,"[6, 10]",1.0,6.0,0.3851039409637451,1.7077369689941406,0.3239509600405614,72.0,636.0,0.0
R,U,"[5, 10]",1.0,7.0,0.3153970241546631,1.8039510250091553,0.4943365901255546,72.0,637.0,0.0
R,U,"[4, 10]",1.0,8.0,0.23809480667114258,1.5621519088745117,0.33999383457178284,72.0,638.0,0.0
B,L,"[4, 9]",1.0,9.0,0.4225289821624756,1.8050692081451416,0.3783430025086904,72.0,639.0,0.0
R,U,"[3, 9]",1.0,10.0,0.14259791374206543,1.4406819343566895,0.3023402106183904,72.0,640.0,0.0
,,"(6, 6)",,,,,,,,
R,U,"[5, 6]",1.0,1.0,0.37990498542785645,3.617163896560669,0.38609900191014884,73.0,641.0,0.0
Y,R,"[5, 7]",1.0,2.0,0.28693509101867676,1.5899338722229004,0.3092739236547324,73.0,642.0,0.0
Y,R,"[5, 8]",1.0,3.0,0.5573749542236328,2.173537015914917,0.6159175179238128,73.0,643.0,0.0
G,D,"[6, 8]",1.0,4.0,0.1789839267730713,1.471487045288086,0.28770247429136125,73.0,644.0,0.0
Y,R,"[6, 9]",1.0,5.0,0.6063969135284424,2.2101569175720215,0.6141896449453328,73.0,645.0,0.0
Y,R,"[6, 10]",1.0,6.0,0.3176841735839844,1.603489875793457,0.28460850637615037,73.0,646.0,0.0
R,U,"[5, 10]",1.0,7.0,0.37166309356689453,1.8157389163970947,0.450150859098171,73.0,647.0,0.0
R,U,"[4, 10]",1.0,8.0,0.6090359687805176,2.269584894180298,0.6529380397851515,73.0,648.0,0.0
B,L,"[4, 9]",1.0,9.0,0.18738198280334473,1.6597490310668945,0.47928189879548416,73.0,649.0,0.0
R,U,"[3, 9]",1.0,10.0,0.32669496536254883,1.5908138751983643,0.25371868073616854,73.0,650.0,0.0
,,"(6, 6)",,,,,,,,
R,U,"[5, 6]",1.0,1.0,0.3896658420562744,2.397128105163574,0.5670914954932544,74.0,651.0,0.0
Y,R,"[5, 7]",1.0,2.0,0.2262270450592041,1.8987500667572021,0.6657687400086925,74.0,652.0,0.0
Y,R,"[5, 8]",1.0,3.0,0.22024989128112793,1.9120900630950928,0.6949560463801749,74.0,653.0,0.0
G,D,"[6, 8]",1.0,4.0,0.23042702674865723,1.8492751121520996,0.6270359240161498,74.0,654.0,0.0
Y,R,"[6, 9]",1.0,5.0,0.30223798751831055,1.605644941329956,0.3162223723342795,74.0,655.0,0.0
Y,R,"[6, 10]",1.0,6.0,0.4197580814361572,1.868739128112793,0.45158849847013555,74.0,656.0,0.0
R,U,"[5, 10]",1.0,7.0,0.3709290027618408,1.9995601177215576,0.6342677791123746,74.0,657.0,0.0
R,U,"[4, 10]",1.0,8.0,0.2218790054321289,1.5820610523223877,0.3665297778337918,74.0,658.0,0.0
B,L,"[4, 9]",1.0,9.0,0.2835400104522705,1.8452160358428955,0.5615677407890626,74.0,659.0,0.0
R,U,"[3, 9]",1.0,10.0,0.23814105987548828,1.6671521663665771,0.4287864486092527,74.0,660.0,0.0
,,"(6, 6)",,,,,,,,
R,U,"[5, 6]",1.0,1.0,0.2898581027984619,3.0913240909576416,0.5865796035906361,75.0,661.0,0.0
Y,R,"[5, 7]",1.0,2.0,0.22748517990112305,1.8164341449737549,0.5862235107532132,75.0,662.0,0.0
Y,R,"[5, 8]",1.0,3.0,0.27383995056152344,1.7674291133880615,0.48710745897754654,75.0,663.0,0.0
G,D,"[6, 8]",1.0,4.0,0.32614707946777344,1.8498921394348145,0.5201790226245723,75.0,664.0,0.0
Y,R,"[6, 9]",1.0,5.0,0.2661299705505371,1.740290880203247,0.47713510361813255,75.0,665.0,0.0
Y,R,"[6, 10]",1.0,6.0,0.3007829189300537,1.9226539134979248,0.6330324733661798,75.0,666.0,0.0
R,U,"[5, 10]",1.0,7.0,0.25954413414001465,1.8292319774627686,0.5622662094166735,75.0,667.0,0.0
R,U,"[4, 10]",1.0,8.0,0.3791670799255371,1.9524431228637695,0.5646829813424188,75.0,668.0,0.0
B,L,"[4, 9]",1.0,9.0,0.26906704902648926,1.7938051223754883,0.5252396130472154,75.0,669.0,0.0
R,U,"[3, 9]",1.0,10.0,0.3307621479034424,1.8052051067352295,0.4804515851678669,75.0,670.0,0.0
,,"(6, 6)",,,,,,,,
R,U,"[5, 6]",1.0,1.0,0.3527491092681885,11.334302186965942,0.46445801965854483,76.0,671.0,0.0
Y,R,"[5, 7]",1.0,2.0,0.3076760768890381,1.934830904006958,0.6157625607755152,76.0,672.0,0.0
Y,R,"[5, 8]",1.0,3.0,0.2602818012237549,1.881523847579956,0.6142514214555232,76.0,673.0,0.0
G,D,"[6, 8]",1.0,4.0,0.25891590118408203,1.6984889507293701,0.42924732996339904,76.0,674.0,0.0
Y,R,"[6, 9]",1.0,5.0,0.28902316093444824,1.9819259643554688,0.6774686595304071,76.0,675.0,0.0
Y,R,"[6, 10]",1.0,6.0,0.21925687789916992,1.9495840072631836,0.7436627959404852,76.0,676.0,0.0
R,U,"[5, 10]",1.0,7.0,0.16525793075561523,1.5644450187683105,0.4084465928400245,76.0,677.0,0.0
R,U,"[4, 10]",1.0,8.0,0.2785820960998535,1.7346251010894775,0.45966895304478766,76.0,678.0,0.0
B,L,"[4, 9]",1.0,9.0,0.21119403839111328,1.484503984451294,0.27765285846554066,76.0,679.0,0.0
R,U,"[3, 9]",1.0,10.0,0.2998239994049072,1.991020917892456,0.7016013433435561,76.0,680.0,0.0
,,"(6, 6)",,,,,,,,
R,U,"[5, 6]",1.0,1.0,0.43395304679870605,2.232553005218506,0.25106264716247073,77.0,681.0,0.0
Y,R,"[5, 7]",1.0,2.0,0.322498083114624,2.019798994064331,0.6871607801838373,77.0,682.0,0.0
Y,R,"[5, 8]",1.0,3.0,0.14679193496704102,1.4995479583740234,0.3535828015923651,77.0,683.0,0.0
G,D,"[6, 8]",1.0,4.0,0.2848360538482666,1.5942630767822266,0.31465863924084553,77.0,684.0,0.0
Y,R,"[6, 9]",1.0,5.0,0.3168148994445801,1.7748761177062988,0.45586924839779364,77.0,685.0,0.0
Y,R,"[6, 10]",1.0,6.0,0.25409603118896484,1.829503059387207,0.585358897652887,77.0,686.0,0.0
R,U,"[5, 10]",1.0,7.0,0.2167809009552002,1.6615710258483887,0.4469956858629404,77.0,687.0,0.0
R,U,"[4, 10]",1.0,8.0,0.28412508964538574,1.7252390384674072,0.4388066898433585,77.0,688.0,0.0
B,L,"[4, 9]",1.0,9.0,0.283430814743042,1.6048059463500977,0.3270891428882253,77.0,689.0,0.0
R,U,"[3, 9]",1.0,10.0,0.2754251956939697,1.5751819610595703,0.3022509535719518,77.0,690.0,0.0
,,"(6, 6)",,,,,,,,
B,L,"[3, 9]",-999.0,0.0,0.5998589992523193,2.804335117340088,0.4730264369982917,78.0,691.0,-5.0
B,L,"[3, 9]",-999.0,0.0,0.2552008628845215,1.6788132190704346,0.4350945276763487,78.0,692.0,-5.0
R,U,"[3, 9]",-999.0,0.0,0.32582783699035645,1.6178629398345947,0.28653278478720207,78.0,693.0,-5.0
R,U,"[3, 9]",-999.0,0.0,0.2421131134033203,1.9332268238067627,0.7024831007833477,78.0,694.0,-5.0
B,L,"[3, 8]",-999.0,0.0,0.681710958480835,2.2744991779327393,0.5938606516899022,78.0,695.0,1.0
,,"(6, 6)",,,,,,,,
B,L,"[3, 8]",-999.0,0.0,0.45101094245910645,2.0775530338287354,0.2715796823278364,79.0,696.0,-5.0
B,L,"[3, 8]",-999.0,0.0,0.27197980880737305,1.6051349639892578,0.3433693381379135,79.0,697.0,-5.0
R,U,"[3, 8]",-999.0,0.0,0.25059008598327637,1.4978649616241455,0.25797004821917335,79.0,698.0,-5.0
R,U,"[3, 8]",-999.0,0.0,0.25465893745422363,1.5309898853302002,0.28891635461924514,79.0,699.0,-5.0
B,L,"[3, 7]",-999.0,0.0,0.232252836227417,1.762286901473999,0.5341904213417785,79.0,700.0,1.0
,,"(6, 6)",,,,,,,,
R,U,"[5, 6]",1.0,1.0,0.5644700527191162,2.870208978652954,0.7376504783136348,80.0,701.0,0.0
Y,R,"[5, 7]",1.0,2.0,0.19883298873901367,1.5938911437988281,0.3983939813981973,80.0,702.0,0.0
Y,R,"[5, 8]",1.0,3.0,0.6299300193786621,2.322542905807495,0.6877484802866001,80.0,703.0,0.0
G,D,"[6, 8]",1.0,4.0,0.26528191566467285,1.9866580963134766,0.7240271924222463,80.0,704.0,0.0
Y,R,"[6, 9]",1.0,5.0,0.23995089530944824,1.7334189414978027,0.4908112473679282,80.0,705.0,0.0
Y,R,"[6, 10]",1.0,6.0,0.8649609088897705,2.5223350524902344,0.6629059077368805,80.0,706.0,0.0
R,U,"[5, 10]",1.0,7.0,0.23948216438293457,1.8811440467834473,0.6273725897247162,80.0,707.0,0.0
R,U,"[4, 10]",1.0,8.0,0.23477911949157715,1.5974600315093994,0.37511244389941933,80.0,708.0,0.0
B,L,"[4, 9]",1.0,9.0,0.38552212715148926,1.9849059581756592,0.6096358361311458,80.0,709.0,0.0
R,U,"[3, 9]",1.0,10.0,0.23525404930114746,1.7982101440429688,0.5747086423461618,80.0,710.0,0.0
,,"(6, 6)",,,,,,,,
R,U,"[5, 6]",1.0,1.0,0.2375779151916504,2.2139971256256104,0.4052911121478819,81.0,711.0,0.0
Y,R,"[5, 7]",1.0,2.0,0.34048914909362793,1.645050048828125,0.30050354380835803,81.0,712.0,0.0
Y,R,"[5, 8]",1.0,3.0,0.300429105758667,2.0413529872894287,0.7416062836769753,81.0,713.0,0.0
G,D,"[6, 8]",1.0,4.0,0.1630997657775879,1.5688810348510742,0.41054726051032614,81.0,714.0,0.0
Y,R,"[6, 9]",1.0,5.0,0.25742101669311523,1.6446878910064697,0.38846309565543147,81.0,715.0,0.0
Y,R,"[6, 10]",1.0,6.0,0.3753938674926758,1.882288932800293,0.5039491041706465,81.0,716.0,0.0
R,U,"[5, 10]",1.0,7.0,0.19914698600769043,1.8934860229492188,0.6972304671650812,81.0,717.0,0.0
R,U,"[4, 10]",1.0,8.0,0.24103999137878418,1.7172341346740723,0.4647221078620041,81.0,718.0,0.0
B,L,"[4, 9]",1.0,9.0,0.26749086380004883,1.937826156616211,0.6689539880188373,81.0,719.0,0.0
R,U,"[3, 9]",1.0,10.0,0.2600271701812744,1.9345879554748535,0.6701015315809185,81.0,720.0,0.0
,,"(6, 6)",,,,,,,,
G,D,"[3, 9]",-999.0,0.0,0.7144830226898193,3.331557035446167,0.4684122088701668,82.0,721.0,-5.0
G,D,"[3, 9]",-999.0,0.0,0.31577396392822266,1.9668080806732178,0.6515049163941475,82.0,722.0,-5.0
G,D,"[3, 9]",-999.0,0.0,0.3030741214752197,1.599081039428711,0.30090829186296936,82.0,723.0,-5.0
B,L,"[3, 9]",-999.0,0.0,0.505681037902832,1.9489679336547852,0.4496344520747906,82.0,724.0,-5.0
B,L,"[3, 9]",-999.0,0.0,0.23663616180419922,1.69110107421875,0.45738646591932625,82.0,725.0,-5.0
R,U,"[3, 9]",-999.0,0.0,0.5812950134277344,2.1596078872680664,0.5833919517741311,82.0,726.0,-5.0
R,U,"[3, 9]",-999.0,0.0,0.5576469898223877,2.0989928245544434,0.5490721106817478,82.0,727.0,-5.0
B,L,"[3, 9]",-999.0,0.0,0.6135959625244141,2.006769895553589,0.3892016481976244,82.0,728.0,-5.0
B,L,"[3, 9]",-999.0,0.0,0.35057616233825684,2.0622589588165283,0.7177469852243512,82.0,729.0,-5.0
Y,R,"[3, 10]",-999.0,0.0,0.3638758659362793,1.910315990447998,0.5450005136425173,82.0,730.0,1.0
,,"(6, 6)",,,,,,,,
R,U,"[5, 6]",1.0,1.0,0.6631381511688232,2.3685410022735596,0.313540729846982,83.0,731.0,0.0
Y,R,"[5, 7]",1.0,2.0,0.31058502197265625,1.7470409870147705,0.4269100467353363,83.0,732.0,0.0
Y,R,"[5, 8]",1.0,3.0,0.2712361812591553,1.9077239036560059,0.651174069379314,83.0,733.0,0.0
G,D,"[6, 8]",1.0,4.0,0.37554216384887695,1.7830440998077393,0.40097908427622947,83.0,734.0,0.0
Y,R,"[6, 9]",1.0,5.0,0.27126598358154297,1.9688911437988281,0.7028851198441775,83.0,735.0,0.0
Y,R,"[6, 10]",1.0,6.0,0.28052687644958496,1.8579390048980713,0.5775144954303825,83.0,736.0,0.0
R,U,"[5, 10]",1.0,7.0,0.21937894821166992,1.65763521194458,0.45180860075929036,83.0,737.0,0.0
R,U,"[4, 10]",1.0,8.0,0.21277403831481934,1.702876091003418,0.4879950834972251,83.0,738.0,0.0
B,L,"[4, 9]",1.0,9.0,0.2794768810272217,1.9200141429901123,0.6410472517372003,83.0,739.0,0.0
R,U,"[3, 9]",1.0,10.0,0.2651681900024414,1.8580360412597656,0.5989940058392409,83.0,740.0,0.0
,,"(6, 6)",,,,,,,,
R,U,"[5, 6]",1.0,1.0,0.4261448383331299,3.2985360622406006,0.5975161792618089,84.0,741.0,0.0
Y,R,"[5, 7]",1.0,2.0,0.2526359558105469,1.6759469509124756,0.42354193289712944,84.0,742.0,0.0
Y,R,"[5, 8]",1.0,3.0,0.2557871341705322,1.946277141571045,0.6866431546271117,84.0,743.0,0.0
G,D,"[6, 8]",1.0,4.0,0.19672203063964844,1.822187900543213,0.6249691711422745,84.0,744.0,0.0
Y,R,"[6, 9]",1.0,5.0,0.5010628700256348,2.1177990436553955,0.6262170273847756,84.0,745.0,0.0
Y,R,"[6, 10]",1.0,6.0,0.2333672046661377,1.589670181274414,0.3659172877589647,84.0,746.0,0.0
R,U,"[5, 10]",1.0,7.0,0.5399289131164551,2.0312130451202393,0.4968700779758895,84.0,747.0,0.0
R,U,"[4, 10]",1.0,8.0,0.21002697944641113,1.7735610008239746,0.5537394159257284,84.0,748.0,0.0
B,L,"[4, 9]",1.0,9.0,0.19949913024902344,1.5510220527648926,0.3547548591140469,84.0,749.0,0.0
R,U,"[3, 9]",1.0,10.0,0.28234291076660156,1.6341700553894043,0.3556118150636145,84.0,750.0,0.0
,,"(6, 6)",,,,,,,,
R,U,"[5, 6]",-999.0,0.0,0.6789309978485107,2.457386016845703,0.3628073806120832,85.0,751.0,-4.0
Y,R,"[5, 7]",-999.0,0.0,0.37757205963134766,1.9449918270111084,0.557608625678995,85.0,752.0,-4.0
Y,R,"[5, 8]",-999.0,0.0,0.2129359245300293,1.6877799034118652,0.4787517690492861,85.0,753.0,-4.0
R,U,"[4, 8]",-999.0,0.0,0.41294407844543457,1.7840988636016846,0.3628890341153062,85.0,754.0,-4.0
Y,R,"[4, 9]",-999.0,0.0,0.3235611915588379,1.8805930614471436,0.5432534131251014,85.0,755.0,1.0
,,"(6, 6)",,,,,,,,
R,U,"[5, 6]",1.0,1.0,0.5495738983154297,4.138529062271118,0.5149418328617824,86.0,756.0,0.0
Y,R,"[5, 7]",1.0,2.0,0.18287301063537598,1.6277329921722412,0.44269997177060905,86.0,757.0,0.0
Y,R,"[5, 8]",1.0,3.0,0.25320887565612793,1.5227479934692383,0.2821920099546933,86.0,758.0,0.0
G,D,"[6, 8]",1.0,4.0,0.3149280548095703,1.6480929851531982,0.3302237111260676,86.0,759.0,0.0
Y,R,"[6, 9]",1.0,5.0,0.27586913108825684,1.678514003753662,0.39191134366601377,86.0,760.0,0.0
,,"(6, 6)",,,,,,,,
R,U,"[5, 6]",-999.0,0.0,0.6287651062011719,3.373039960861206,0.564687703273799,87.0,761.0,-4.0
Y,R,"[5, 7]",-999.0,0.0,0.354856014251709,1.639413833618164,0.2875373214190157,87.0,762.0,-4.0
Y,R,"[5, 8]",-999.0,0.0,0.31752705574035645,1.8525638580322266,0.5397930341447441,87.0,763.0,-4.0
R,U,"[4, 8]",-999.0,0.0,0.4814140796661377,2.2037339210510254,0.7265119234523245,87.0,764.0,-4.0
B,L,"[4, 7]",-999.0,0.0,0.34244513511657715,1.7498688697814941,0.41013039520857447,87.0,765.0,1.0
,,"(6, 6)",,,,,,,,
R,U,"[5, 6]",-999.0,0.0,0.4567420482635498,2.161679983139038,0.3217642802725279,88.0,766.0,-4.0
Y,R,"[5, 7]",-999.0,0.0,0.3827810287475586,1.6614081859588623,0.2830939066204462,88.0,767.0,-4.0
Y,R,"[5, 8]",-999.0,0.0,0.3101820945739746,1.6254079341888428,0.3083679028001983,88.0,768.0,-4.0
G,D,"[6, 8]",-999.0,0.0,0.5034298896789551,1.7565228939056396,0.2650209009327838,88.0,769.0,-4.0
Y,R,"[6, 9]",-999.0,0.0,0.5187790393829346,1.877699851989746,0.3592289163576312,88.0,770.0,-4.0
,,"(6, 6)",,,,,,,,
G,D,"[6, 9]",-999.0,0.0,0.6940557956695557,3.1474859714508057,0.3898575362725542,89.0,771.0,-5.0
G,D,"[6, 9]",-999.0,0.0,0.9239909648895264,2.5054118633270264,0.5952591513487253,89.0,772.0,-5.0
G,D,"[6, 9]",-999.0,0.0,0.276339054107666,1.812363862991333,0.5406349100059319,89.0,773.0,-5.0
B,L,"[6, 9]",-999.0,0.0,0.2273259162902832,1.8399279117584229,0.6137811031775988,89.0,774.0,-5.0
B,L,"[6, 9]",-999.0,0.0,0.307297945022583,1.907710075378418,0.604773290699514,89.0,775.0,-5.0
R,U,"[6, 9]",-999.0,0.0,0.3173410892486572,1.6878788471221924,0.376165572893943,89.0,776.0,-5.0
R,U,"[6, 9]",-2.0,0.0,2.455980062484741,4.020992994308472,0.6133575765137249,89.0,777.0,-5.0
B,L,"[6, 9]",-999.0,0.0,0.5496459007263184,2.14919114112854,0.5957938186004499,89.0,778.0,-5.0
B,L,"[6, 9]",-999.0,0.0,0.29863715171813965,1.6006410121917725,0.2967480608571086,89.0,779.0,-5.0
B,L,"[6, 8]",-999.0,0.0,0.5696380138397217,2.1719229221343994,0.6015216575979355,89.0,780.0,1.0
,,"(6, 6)",,,,,,,,
R,U,"[5, 6]",1.0,1.0,0.3546280860900879,2.651993989944458,0.6866808604967742,90.0,781.0,0.0
Y,R,"[5, 7]",1.0,2.0,0.2538950443267822,1.6690549850463867,0.4226836648750361,90.0,782.0,0.0
Y,R,"[5, 8]",1.0,3.0,0.3201758861541748,1.986691951751709,0.6756298125093837,90.0,783.0,0.0
G,D,"[6, 8]",1.0,4.0,0.2109050750732422,1.7851800918579102,0.577917630781446,90.0,784.0,0.0
Y,R,"[6, 9]",1.0,5.0,0.2315828800201416,1.875905990600586,0.6533492695472072,90.0,785.0,0.0
Y,R,"[6, 10]",1.0,6.0,0.2901129722595215,1.7429161071777344,0.44629000073658104,90.0,786.0,0.0
R,U,"[5, 10]",1.0,7.0,0.29859495162963867,1.5972740650177002,0.29376470209953703,90.0,787.0,0.0
R,U,"[4, 10]",1.0,8.0,0.23785400390625,1.5829331874847412,0.3599328830976643,90.0,788.0,0.0
Y,R,"[4, 11]",-2.0,8.0,2.3095860481262207,3.5400919914245605,0.26653178495740804,90.0,789.0,0.0
R,U,"[3, 11]",0.0,8.0,0.549454927444458,2.015552043914795,0.46512914192775945,90.0,790.0,0.0
,,"(6, 6)",,,,,,,,
R,U,"[5, 6]",-999.0,0.0,0.49019312858581543,3.059767961502075,0.5081300521787999,91.0,791.0,-4.0
Y,R,"[5, 7]",-999.0,0.0,0.3467559814453125,1.6660687923431396,0.3243817483831823,91.0,792.0,-4.0
Y,R,"[5, 8]",-999.0,0.0,0.24018478393554688,1.645240068435669,0.419432287995977,91.0,793.0,-4.0
G,D,"[6, 8]",-999.0,0.0,0.26102519035339355,1.9342200756072998,0.6702439610055098,91.0,794.0,-4.0
Y,R,"[6, 9]",-999.0,0.0,0.22895407676696777,1.8230841159820557,0.5931169016184319,91.0,795.0,-4.0
Y,R,"[6, 10]",-999.0,0.0,0.3810861110687256,1.677973985671997,0.3047285032722722,91.0,796.0,-4.0
R,U,"[5, 10]",-999.0,0.0,0.4025418758392334,1.8305559158325195,0.4350461098223421,91.0,797.0,-4.0
R,U,"[4, 10]",-999.0,0.0,0.4443659782409668,2.090924024581909,0.6422608746865597,91.0,798.0,-4.0
R,U,"[3, 10]",-999.0,0.0,0.25212788581848145,1.5071141719818115,0.2664450133960916,91.0,799.0,-4.0
B,L,"[3, 9]",-999.0,0.0,0.407365083694458,1.9291980266571045,0.5120164499111342,91.0,800.0,1.0
,,"(6, 6)",,,,,,,,
R,U,"[5, 6]",1.0,1.0,0.34710097312927246,8.025939226150513,0.5375110092960461,92.0,801.0,0.0
Y,R,"[5, 7]",-1.0,1.0,0.054702043533325195,5.66860294342041,0.5560083507629829,92.0,802.0,0.0
Y,R,"[5, 8]",1.0,2.0,0.3175969123840332,1.9185690879821777,0.6081731014912198,92.0,803.0,0.0
G,D,"[6, 8]",1.0,3.0,0.24291491508483887,1.610227108001709,0.36816361183416196,92.0,804.0,0.0
Y,R,"[6, 9]",1.0,4.0,0.3773839473724365,1.8369851112365723,0.4549507000161029,92.0,805.0,0.0
Y,R,"[6, 10]",1.0,5.0,0.3738830089569092,1.876211166381836,0.4977583486364009,92.0,806.0,0.0
R,U,"[5, 10]",1.0,6.0,0.3404989242553711,2.04732608795166,0.6947544135620278,92.0,807.0,0.0
R,U,"[4, 10]",1.0,7.0,0.26693296432495117,1.525597095489502,0.27073350424753023,92.0,808.0,0.0
B,L,"[4, 9]",1.0,8.0,0.47223901748657227,2.043478012084961,0.5805691060167167,92.0,809.0,0.0
R,U,"[3, 9]",1.0,9.0,0.45275306701660156,2.0250978469848633,0.572275083701525,92.0,810.0,0.0
,,"(6, 6)",,,,,,,,
R,U,"[5, 6]",1.0,1.0,0.679163932800293,3.4149978160858154,0.3705612204699308,93.0,811.0,0.0
Y,R,"[5, 7]",1.0,2.0,0.26253414154052734,1.6427240371704102,0.379868935330183,93.0,812.0,0.0
Y,R,"[5, 8]",1.0,3.0,0.21272993087768555,1.5307331085205078,0.31077063179300146,93.0,813.0,0.0
G,D,"[6, 8]",1.0,4.0,0.24277806282043457,1.559777021408081,0.3204601379974689,93.0,814.0,0.0
Y,R,"[6, 9]",1.0,5.0,0.42013001441955566,2.063183069229126,0.6503025311588977,93.0,815.0,0.0
Y,R,"[6, 10]",1.0,6.0,0.24236702919006348,1.572490930557251,0.3226578555686323,93.0,816.0,0.0
R,U,"[5, 10]",1.0,7.0,0.27878785133361816,1.584157943725586,0.3067943486789673,93.0,817.0,0.0
R,U,"[4, 10]",1.0,8.0,0.3153820037841797,1.931028127670288,0.620777227117592,93.0,818.0,0.0
B,L,"[4, 9]",1.0,9.0,0.2522118091583252,1.7402021884918213,0.49439921776710366,93.0,819.0,0.0
R,U,"[3, 9]",1.0,10.0,0.31595897674560547,1.984637975692749,0.6787373945925517,93.0,820.0,0.0
,,"(6, 6)",,,,,,,,
R,U,"[5, 6]",1.0,1.0,0.36130499839782715,7.946779012680054,0.39213967048303744,94.0,821.0,0.0
Y,R,"[5, 7]",1.0,2.0,0.3962588310241699,1.8635830879211426,0.47231563545461397,94.0,822.0,0.0
Y,R,"[5, 8]",1.0,3.0,0.11058783531188965,1.3650469779968262,0.25418679643589515,94.0,823.0,0.0
Y,R,"[5, 9]",0.0,3.0,0.24788308143615723,1.9897980690002441,0.7434425653645129,94.0,824.0,0.0
G,D,"[6, 9]",1.0,4.0,0.19451904296875,1.887195110321045,0.6972963677770242,94.0,825.0,0.0
Y,R,"[6, 10]",1.0,5.0,0.39278388023376465,2.146350145339966,0.7435182798969331,94.0,826.0,0.0
Y,R,"[6, 11]",0.0,5.0,0.2742180824279785,2.0155088901519775,0.7425660576555164,94.0,827.0,0.0
R,U,"[5, 11]",0.0,5.0,0.26212310791015625,1.8977830410003662,0.6400917612505861,94.0,828.0,0.0
B,L,"[5, 10]",1.0,6.0,0.281480073928833,1.5446360111236572,0.26835598858763166,94.0,829.0,0.0
B,L,"[5, 9]",0.0,6.0,0.4757089614868164,1.7445390224456787,0.2628003067984945,94.0,830.0,0.0
,,"(6, 6)",,,,,,,,
R,U,"[5, 6]",1.0,1.0,0.36643195152282715,3.077789068222046,0.5069256554865265,95.0,831.0,0.0
Y,R,"[5, 7]",1.0,2.0,0.24080705642700195,1.884152889251709,0.6411719080435159,95.0,832.0,0.0
Y,R,"[5, 8]",1.0,3.0,0.2844231128692627,1.9863200187683105,0.7104102872087772,95.0,833.0,0.0
G,D,"[6, 8]",1.0,4.0,0.2591369152069092,1.9142379760742188,0.6580246123423565,95.0,834.0,0.0
Y,R,"[6, 9]",1.0,5.0,0.19262194633483887,1.6249499320983887,0.43314969029580686,95.0,835.0,0.0
Y,R,"[6, 10]",1.0,6.0,0.2781350612640381,1.987185001373291,0.7033031709236599,95.0,836.0,0.0
R,U,"[5, 10]",1.0,7.0,0.23604488372802734,1.5562279224395752,0.3263629927387295,95.0,837.0,0.0
R,U,"[4, 10]",1.0,8.0,0.27678608894348145,1.8361568450927734,0.5622643890253096,95.0,838.0,0.0
B,L,"[4, 9]",1.0,9.0,0.25076794624328613,1.9774689674377441,0.7229191857449555,95.0,839.0,0.0
R,U,"[3, 9]",1.0,10.0,0.12808990478515625,1.8466441631317139,0.7195296728222977,95.0,840.0,0.0
,,"(6, 6)",,,,,,,,
R,U,"[5, 6]",-999.0,0.0,0.6955108642578125,2.3797171115875244,0.332861652163707,96.0,841.0,-4.0
Y,R,"[5, 7]",-999.0,0.0,0.31773900985717773,1.9164760112762451,0.59892555887911,96.0,842.0,-4.0
Y,R,"[5, 8]",-999.0,0.0,0.457503080368042,2.1294569969177246,0.678167066926225,96.0,843.0,-4.0
G,D,"[6, 8]",-999.0,0.0,0.23928189277648926,1.555746078491211,0.3342646104524011,96.0,844.0,-4.0
Y,R,"[6, 9]",-999.0,0.0,0.5687241554260254,2.045149803161621,0.4793054427395267,96.0,845.0,-4.0
Y,R,"[6, 10]",-999.0,0.0,0.2646489143371582,1.9565818309783936,0.6855638325469395,96.0,846.0,-4.0
R,U,"[5, 10]",-999.0,0.0,0.18970608711242676,1.6114349365234375,0.43054680288310254,96.0,847.0,-4.0
R,U,"[4, 10]",-999.0,0.0,0.2439098358154297,1.8453400135040283,0.5922787603747839,96.0,848.0,-4.0
R,U,"[3, 10]",-999.0,0.0,0.32262301445007324,1.6496598720550537,0.3421009665576062,96.0,849.0,-4.0
Y,R,"[3, 11]",-999.0,0.0,0.601625919342041,2.031026840209961,0.4397234988689403,96.0,850.0,1.0
,,"(6, 6)",,,,,,,,
G,D,"[3, 11]",-999.0,0.0,0.6951050758361816,2.8420190811157227,0.6646169552185228,97.0,851.0,-5.0
G,D,"[3, 11]",-999.0,0.0,0.3266611099243164,1.9427340030670166,0.6076356136510397,97.0,852.0,-5.0
G,D,"[3, 11]",-999.0,0.0,0.33980679512023926,1.9491639137268066,0.6231947517439956,97.0,853.0,-5.0
B,L,"[3, 11]",-999.0,0.0,0.44287705421447754,2.164240837097168,0.7371562755353585,97.0,854.0,-5.0
B,L,"[3, 11]",-999.0,0.0,0.2601280212402344,1.914154052734375,0.6513881122058174,97.0,855.0,-5.0
R,U,"[3, 11]",-999.0,0.0,0.4035649299621582,2.047605037689209,0.6490718900121204,97.0,856.0,-5.0
R,U,"[3, 11]",-999.0,0.0,0.32448410987854004,1.753633975982666,0.43614939891667304,97.0,857.0,-5.0
B,L,"[3, 11]",-2.0,0.0,1.3903858661651611,2.712506055831909,0.3653441437999411,97.0,858.0,-5.0
B,L,"[3, 11]",-999.0,0.0,0.4207189083099365,1.7218029499053955,0.3036584609474279,97.0,859.0,-5.0
Y,R,"[3, 12]",-999.0,0.0,0.5991270542144775,1.8755159378051758,0.27913903526223593,97.0,860.0,1.0
,,"(6, 6)",,,,,,,,
G,D,"[3, 12]",-999.0,0.0,0.6929969787597656,2.907465934753418,0.5363372919663325,98.0,861.0,-5.0
G,D,"[3, 12]",-999.0,0.0,0.3346221446990967,1.6928088665008545,0.3626007583823812,98.0,862.0,-5.0
G,D,"[3, 12]",-999.0,0.0,0.3057680130004883,1.7511768341064453,0.44693558442251546,98.0,863.0,-5.0
B,L,"[3, 12]",-999.0,0.0,0.40276408195495605,1.7982008457183838,0.39504561953401485,98.0,864.0,-5.0
B,L,"[3, 12]",-999.0,0.0,0.22759699821472168,1.7197680473327637,0.4980131343183281,98.0,865.0,-5.0
R,U,"[3, 12]",-999.0,0.0,0.35910892486572266,2.071120023727417,0.7022875970277047,98.0,866.0,-5.0
R,U,"[3, 12]",-999.0,0.0,0.3211970329284668,1.5956370830535889,0.2815023860182237,98.0,867.0,-5.0
B,L,"[3, 12]",-999.0,0.0,0.5644190311431885,2.210496187210083,0.6418234653181691,98.0,868.0,-5.0
B,L,"[3, 12]",-999.0,0.0,0.2539210319519043,1.945112943649292,0.7032289281655701,98.0,869.0,-5.0
Y,R,"[3, 12]",-999.0,0.0,0.13232803344726562,1.410517930984497,0.2808905612114584,98.0,870.0,1.0
,,"(6, 6)",,,,,,,,
G,D,"[3, 12]",-999.0,0.0,0.6467158794403076,2.7592670917510986,0.4898367397470584,99.0,871.0,-5.0
G,D,"[3, 12]",-999.0,0.0,0.6516780853271484,1.9425270557403564,0.29908308089577523,99.0,872.0,-5.0
G,D,"[3, 12]",-999.0,0.0,0.4738650321960449,1.8958039283752441,0.42799346754005785,99.0,873.0,-5.0
B,L,"[3, 12]",-999.0,0.0,0.31116795539855957,1.6363379955291748,0.3310962485252924,99.0,874.0,-5.0
B,L,"[3, 12]",-999.0,0.0,0.345257043838501,1.863534927368164,0.5111166957342778,99.0,875.0,-5.0
R,U,"[3, 12]",-999.0,0.0,0.3202857971191406,1.6030030250549316,0.2975453696149394,99.0,876.0,-5.0
R,U,"[3, 12]",-999.0,0.0,0.24962210655212402,1.699005126953125,0.4464033038789746,99.0,877.0,-5.0
B,L,"[3, 12]",-999.0,0.0,0.3185300827026367,2.067405939102173,0.7467990721345132,99.0,878.0,-5.0
B,L,"[3, 12]",-999.0,0.0,0.4158790111541748,2.036602020263672,0.6168846836451021,99.0,879.0,-5.0
Y,R,"[3, 12]",-999.0,0.0,0.28351712226867676,1.7451319694519043,0.4619971475155096,99.0,880.0,1.0
,,"(6, 6)",,,,,,,,
Y,R,"[6, 7]",0.0,0.0,0.12876415252685547,2.293410062789917,0.6217873204481236,100.0,881.0,0.0
R,U,"[5, 7]",1.0,1.0,0.3242478370666504,1.604227066040039,0.27637145293954396,100.0,882.0,0.0
Y,R,"[5, 8]",1.0,2.0,0.7292079925537109,2.396707057952881,0.6725337141211387,100.0,883.0,0.0
Y,R,"[5, 9]",0.0,2.0,0.5244178771972656,2.1049771308898926,0.5776385361487542,100.0,884.0,0.0
R,U,"[4, 9]",1.0,3.0,0.4931979179382324,1.9881980419158936,0.49919647777042214,100.0,885.0,0.0
B,L,"[4, 8]",0.0,3.0,0.6171679496765137,2.2851078510284424,0.6673932469773414,100.0,886.0,0.0
G,D,"[5, 8]",0.0,3.0,0.25577497482299805,1.7096309661865234,0.44370501970830906,100.0,887.0,0.0
G,D,"[6, 8]",1.0,4.0,0.2488079071044922,1.5333328247070312,0.2938880933495116,100.0,888.0,0.0
G,D,"[7, 8]",0.0,4.0,0.583500862121582,2.143425941467285,0.5702135025989736,100.0,889.0,0.0
B,L,"[7, 7]",0.0,4.0,0.2505068778991699,1.5552911758422852,0.30913719741295265,100.0,890.0,0.0
,,"(6, 6)",,,,,,,,
R,U,"[5, 6]",1.0,1.0,0.4588930606842041,3.1426899433135986,0.35158855955670787,101.0,891.0,0.0
Y,R,"[5, 7]",1.0,2.0,0.3134500980377197,1.8636369705200195,0.5483731990395379,101.0,892.0,0.0
Y,R,"[5, 8]",1.0,3.0,0.4507420063018799,1.7575371265411377,0.3060863880392975,101.0,893.0,0.0
G,D,"[6, 8]",1.0,4.0,0.3947279453277588,1.9900670051574707,0.5958030650220185,101.0,894.0,0.0
Y,R,"[6, 9]",1.0,5.0,0.22470498085021973,1.566838026046753,0.3295787166346804,101.0,895.0,0.0
Y,R,"[6, 10]",1.0,6.0,0.5139827728271484,1.9229440689086914,0.40241219412990364,101.0,896.0,0.0
R,U,"[5, 10]",1.0,7.0,0.36630892753601074,1.7354168891906738,0.37106100362663597,101.0,897.0,0.0
R,U,"[4, 10]",1.0,8.0,0.30082011222839355,1.7570059299468994,0.46121683854802714,101.0,898.0,0.0
B,L,"[4, 9]",1.0,9.0,0.1399848461151123,1.883040189743042,0.7440258611390774,101.0,899.0,0.0
R,U,"[3, 9]",1.0,10.0,0.20685505867004395,1.8763179779052734,0.6872051351624118,101.0,900.0,0.0
,,"(6, 6)",,,,,,,,
R,U,"[5, 6]",1.0,1.0,0.5048768520355225,2.1477670669555664,0.31831978182040566,102.0,901.0,0.0
Y,R,"[5, 7]",1.0,2.0,0.38123607635498047,1.6381800174713135,0.2564225658899362,102.0,902.0,0.0
Y,R,"[5, 8]",1.0,3.0,0.28292179107666016,1.9506618976593018,0.6734203233549791,102.0,903.0,0.0
G,D,"[6, 8]",1.0,4.0,0.22304201126098633,1.5530810356140137,0.32677623453068283,102.0,904.0,0.0
G,D,"[7, 8]",0.0,4.0,0.253917932510376,1.6890571117401123,0.44898982620512407,102.0,905.0,0.0
B,L,"[7, 7]",0.0,4.0,0.3209059238433838,1.899064064025879,0.581464750612475,102.0,906.0,0.0
Y,R,"[7, 8]",0.0,4.0,0.62599778175354,2.025981903076172,0.39064561270175896,102.0,907.0,0.0
R,U,"[6, 8]",0.0,4.0,0.33917689323425293,1.6609251499176025,0.31836483938505294,102.0,908.0,0.0
B,L,"[6, 7]",0.0,4.0,0.3175349235534668,1.601989984512329,0.28687528004079055,102.0,909.0,0.0
G,D,"[7, 7]",0.0,4.0,0.47052597999572754,1.9339659214019775,0.47067509053353973,102.0,910.0,0.0
,,"(6, 6)",,,,,,,,
R,U,"[5, 6]",1.0,1.0,0.39346885681152344,2.4886629581451416,0.7255565552556886,103.0,911.0,0.0
Y,R,"[5, 7]",1.0,2.0,0.29085803031921387,1.7596240043640137,0.4687850588520506,103.0,912.0,0.0
Y,R,"[5, 8]",1.0,3.0,0.42410707473754883,1.711751937866211,0.280673105546713,103.0,913.0,0.0
G,D,"[6, 8]",1.0,4.0,0.5043549537658691,2.129512071609497,0.6097907869307773,103.0,914.0,0.0
Y,R,"[6, 9]",1.0,5.0,0.5479521751403809,2.122670888900757,0.5824227543072387,103.0,915.0,0.0
Y,R,"[6, 10]",1.0,6.0,0.30352115631103516,1.5607829093933105,0.2600990483375012,103.0,916.0,0.0
R,U,"[5, 10]",1.0,7.0,0.4344358444213867,1.992178201675415,0.5685617226802688,103.0,917.0,0.0
R,U,"[4, 10]",1.0,8.0,0.30344104766845703,1.6875379085540771,0.3895725437289829,103.0,918.0,0.0
B,L,"[4, 9]",-1.0,8.0,0.04232501983642578,5.72229790687561,0.6281405917606488,103.0,919.0,0.0
R,U,"[3, 9]",1.0,9.0,0.2877521514892578,1.9618558883666992,0.6898048538953785,103.0,920.0,0.0
,,"(6, 6)",,,,,,,,
R,U,"[5, 6]",1.0,1.0,0.4398648738861084,2.411926031112671,0.2854704542568235,104.0,921.0,0.0
Y,R,"[5, 7]",1.0,2.0,0.5266377925872803,2.0144050121307373,0.4828747704218548,104.0,922.0,0.0
Y,R,"[5, 8]",1.0,3.0,0.2536280155181885,1.9770581722259521,0.7263610335078924,104.0,923.0,0.0
G,D,"[6, 8]",1.0,4.0,0.21963906288146973,1.5465550422668457,0.33990621445443475,104.0,924.0,0.0
Y,R,"[6, 9]",1.0,5.0,0.5756750106811523,1.846116065979004,0.26927001087364416,104.0,925.0,0.0
Y,R,"[6, 10]",1.0,6.0,0.43062400817871094,1.7190330028533936,0.28827298449448113,104.0,926.0,0.0
R,U,"[5, 10]",1.0,7.0,0.4049670696258545,1.9475359916687012,0.5521198658921316,104.0,927.0,0.0
R,U,"[4, 10]",1.0,8.0,0.2949190139770508,1.8626868724822998,0.5648556552064065,104.0,928.0,0.0
B,L,"[4, 9]",1.0,9.0,0.3052659034729004,1.991886854171753,0.6898404475795306,104.0,929.0,0.0
R,U,"[3, 9]",1.0,10.0,0.20588898658752441,1.623802900314331,0.4139093134958143,104.0,930.0,0.0
,,"(6, 6)",,,,,,,,
R,U,"[5, 6]",1.0,1.0,0.4355950355529785,2.1959290504455566,0.2932360551279743,105.0,931.0,0.0
Y,R,"[5, 7]",1.0,2.0,0.37123703956604004,1.954897165298462,0.5977756780744782,105.0,932.0,0.0
Y,R,"[5, 8]",1.0,3.0,0.25151515007019043,1.7391870021820068,0.4869781819649637,105.0,933.0,0.0
G,D,"[6, 8]",1.0,4.0,0.3052370548248291,1.9364628791809082,0.6399225058264135,105.0,934.0,0.0
Y,R,"[6, 9]",1.0,5.0,0.2208549976348877,1.7613558769226074,0.5513192590680356,105.0,935.0,0.0
Y,R,"[6, 10]",1.0,6.0,0.3681669235229492,1.6292788982391357,0.26415004764041217,105.0,936.0,0.0
R,U,"[5, 10]",1.0,7.0,0.3908250331878662,2.1158390045166016,0.712712159964603,105.0,937.0,0.0
R,U,"[4, 10]",1.0,8.0,0.24207496643066406,1.8007638454437256,0.5469101334469273,105.0,938.0,0.0
B,L,"[4, 9]",1.0,9.0,0.2561659812927246,1.6918950080871582,0.4222833135980607,105.0,939.0,0.0
R,U,"[3, 9]",1.0,10.0,0.2737867832183838,1.980268955230713,0.7021599383325172,105.0,940.0,0.0
,,"(6, 6)",,,,,,,,
R,U,"[5, 6]",1.0,1.0,0.44982099533081055,2.5708351135253906,0.6729682571562258,106.0,941.0,0.0
Y,R,"[5, 7]",1.0,2.0,0.15989184379577637,1.5442709922790527,0.3842330946144315,106.0,942.0,0.0
Y,R,"[5, 8]",1.0,3.0,0.2716710567474365,1.7180039882659912,0.452082757597155,106.0,943.0,0.0
G,D,"[6, 8]",1.0,4.0,0.2309420108795166,1.5555808544158936,0.32442171053442803,106.0,944.0,0.0
Y,R,"[6, 9]",1.0,5.0,0.31396007537841797,1.7773427963256836,0.46822966678635475,106.0,945.0,0.0
Y,R,"[6, 10]",1.0,6.0,0.299652099609375,1.7780520915985107,0.47948755185111014,106.0,946.0,0.0
R,U,"[5, 10]",1.0,7.0,0.2502729892730713,1.8358049392700195,0.5817997356170103,106.0,947.0,0.0
R,U,"[4, 10]",1.0,8.0,0.17401695251464844,1.8670730590820312,0.6821183316847674,106.0,948.0,0.0
Y,R,"[4, 11]",0.0,8.0,0.254349946975708,1.8103461265563965,0.5427577318530467,106.0,949.0,0.0
R,U,"[3, 11]",-1.0,8.0,0.03904294967651367,5.677293062210083,0.5863577497184411,106.0,950.0,0.0
,,"(6, 6)",,,,,,,,
R,U,"[5, 6]",1.0,1.0,0.37953996658325195,2.723893165588379,0.5100750104451901,107.0,951.0,0.0
Y,R,"[5, 7]",1.0,2.0,0.25345587730407715,1.8418099880218506,0.6017309456312723,107.0,952.0,0.0
Y,R,"[5, 8]",1.0,3.0,0.218278169631958,1.7591369152069092,0.5442851774187063,107.0,953.0,0.0
G,D,"[6, 8]",1.0,4.0,0.27161288261413574,1.9003088474273682,0.6444306188220046,107.0,954.0,0.0
Y,R,"[6, 9]",1.0,5.0,0.2743821144104004,1.929961919784546,0.6577135431002603,107.0,955.0,0.0
Y,R,"[6, 10]",1.0,6.0,0.17791199684143066,1.4372518062591553,0.26186183234318605,107.0,956.0,0.0
R,U,"[5, 10]",1.0,7.0,0.644707202911377,2.235330820083618,0.5968061386643978,107.0,957.0,0.0
R,U,"[4, 10]",1.0,8.0,0.23848390579223633,1.6874909400939941,0.4344897571778035,107.0,958.0,0.0
B,L,"[4, 9]",1.0,9.0,0.2691631317138672,1.5780079364776611,0.31247779977530465,107.0,959.0,0.0
R,U,"[3, 9]",1.0,10.0,0.31983304023742676,1.8115119934082031,0.49049222008223975,107.0,960.0,0.0
,,"(6, 6)",,,,,,,,
R,U,"[5, 6]",1.0,1.0,0.6577639579772949,2.399644136428833,0.3568328203199024,108.0,961.0,0.0
Y,R,"[5, 7]",1.0,2.0,0.5307447910308838,2.1614861488342285,0.6345561174366432,108.0,962.0,0.0
Y,R,"[5, 8]",1.0,3.0,0.25726795196533203,1.6344199180603027,0.3693608547813762,108.0,963.0,0.0
G,D,"[6, 8]",1.0,4.0,0.2888040542602539,1.842904806137085,0.5453482126625661,108.0,964.0,0.0
Y,R,"[6, 9]",1.0,5.0,0.1987910270690918,1.6554489135742188,0.4507283520613691,108.0,965.0,0.0
Y,R,"[6, 10]",1.0,6.0,0.27480196952819824,1.588371992111206,0.30596845257408156,108.0,966.0,0.0
R,U,"[5, 10]",1.0,7.0,0.3094019889831543,2.043056011199951,0.7318824147744882,108.0,967.0,0.0
R,U,"[4, 10]",-1.0,7.0,0.07341194152832031,5.805765151977539,0.654187707560437,108.0,968.0,0.0
B,L,"[4, 9]",1.0,8.0,0.30519795417785645,1.9111409187316895,0.5986329570005104,108.0,969.0,0.0
R,U,"[3, 9]",1.0,9.0,0.2507510185241699,1.6217899322509766,0.37064613365364246,108.0,970.0,0.0
,,"(6, 6)",,,,,,,,
R,U,"[5, 6]",1.0,1.0,0.37389492988586426,2.59631085395813,0.2502073742716716,109.0,971.0,0.0
Y,R,"[5, 7]",1.0,2.0,0.3629570007324219,2.1034648418426514,0.73644570415205,109.0,972.0,0.0
Y,R,"[5, 8]",1.0,3.0,0.1460270881652832,1.8674159049987793,0.7205193929553089,109.0,973.0,0.0
G,D,"[6, 8]",1.0,4.0,0.2723238468170166,1.6187191009521484,0.3396326099341542,109.0,974.0,0.0
Y,R,"[6, 9]",1.0,5.0,0.3975830078125,2.0865440368652344,0.6924362624798723,109.0,975.0,0.0
Y,R,"[6, 10]",1.0,6.0,0.22551894187927246,1.8595631122589111,0.6353395887953716,109.0,976.0,0.0
R,U,"[5, 10]",1.0,7.0,0.2696959972381592,1.7903180122375488,0.5257197430506264,109.0,977.0,0.0
R,U,"[4, 10]",1.0,8.0,0.28618597984313965,1.9050970077514648,0.6306507193724624,109.0,978.0,0.0
B,L,"[4, 9]",1.0,9.0,0.3927929401397705,1.7984440326690674,0.39609138827126766,109.0,979.0,0.0
R,U,"[3, 9]",1.0,10.0,0.2896120548248291,1.583495855331421,0.27950451511670277,109.0,980.0,0.0
,,"(6, 6)",,,,,,,,
R,U,"[5, 6]",1.0,1.0,0.6598560810089111,3.2755608558654785,0.6379541685102715,110.0,981.0,0.0
Y,R,"[5, 7]",1.0,2.0,0.2355799674987793,1.7498908042907715,0.5211682025646984,110.0,982.0,0.0
Y,R,"[5, 8]",1.0,3.0,0.25241684913635254,1.6342358589172363,0.3888104370838356,110.0,983.0,0.0
G,D,"[6, 8]",1.0,4.0,0.27615904808044434,1.8105640411376953,0.5326469249257514,110.0,984.0,0.0
Y,R,"[6, 9]",1.0,5.0,0.19843101501464844,1.6298620700836182,0.42921330365728966,110.0,985.0,0.0
Y,R,"[6, 10]",1.0,6.0,0.27317190170288086,1.9468541145324707,0.6590185182342609,110.0,986.0,0.0
R,U,"[5, 10]",1.0,7.0,0.22780704498291016,1.9743211269378662,0.7499280792217513,110.0,987.0,0.0
R,U,"[4, 10]",1.0,8.0,0.2374558448791504,1.8167519569396973,0.5667898676011023,110.0,988.0,0.0
B,L,"[4, 9]",1.0,9.0,0.24775910377502441,1.9647350311279297,0.7146335858384519,110.0,989.0,0.0
R,U,"[3, 9]",1.0,10.0,0.3076310157775879,1.578557014465332,0.26020570777794133,110.0,990.0,0.0
,,"(6, 6)",,,,,,,,
R,U,"[5, 6]",1.0,1.0,0.28608107566833496,2.265110969543457,0.4251884725720149,111.0,991.0,0.0
Y,R,"[5, 7]",1.0,2.0,0.29275012016296387,2.0212581157684326,0.729401935881302,111.0,992.0,0.0
Y,R,"[5, 8]",1.0,3.0,0.10586309432983398,1.538578987121582,0.43490375924829844,111.0,993.0,0.0
G,D,"[6, 8]",1.0,4.0,0.3281409740447998,1.9353249073028564,0.6032836880385861,111.0,994.0,0.0
Y,R,"[6, 9]",1.0,5.0,0.2637760639190674,1.6048099994659424,0.3417136611361506,111.0,995.0,0.0
Y,R,"[6, 10]",1.0,6.0,0.3579258918762207,1.9819960594177246,0.6232688502666361,111.0,996.0,0.0
R,U,"[5, 10]",1.0,7.0,0.19528508186340332,1.9112029075622559,0.7176629099410954,111.0,997.0,0.0
R,U,"[4, 10]",1.0,8.0,0.2306830883026123,1.7494089603424072,0.5173115961589204,111.0,998.0,0.0
B,L,"[4, 9]",1.0,9.0,0.3756711483001709,2.0345330238342285,0.651794333290037,111.0,999.0,0.0
R,U,"[3, 9]",1.0,10.0,0.4172811508178711,1.7096779346466064,0.29493536851685265,111.0,1000.0,0.0
