button_choice,action_choice,coordinate_choice,reward,cumulative_reward,rt,total_trial_time,iti,block_n,trial_n,trial_type
R,U,"[5, 6]",1.0,1.0,0.9008471965789795,2.568281888961792,0.5689486323303328,0.0,1.0,0.0
Y,R,"[5, 7]",1.0,2.0,0.31041693687438965,2.1018130779266357,0.687285532728518,0.0,2.0,0.0
Y,R,"[5, 8]",1.0,3.0,0.2056260108947754,1.551997184753418,0.2563696634436985,0.0,3.0,0.0
G,D,"[6, 8]",1.0,4.0,0.21584200859069824,1.5676109790802002,0.25722813719412413,0.0,4.0,0.0
Y,R,"[6, 9]",1.0,5.0,0.5472209453582764,2.383044958114624,0.7398036034604756,0.0,5.0,0.0
Y,R,"[6, 10]",1.0,6.0,0.20465898513793945,1.936126947402954,0.6424948439779445,0.0,6.0,0.0
R,U,"[5, 10]",1.0,7.0,0.2172250747680664,1.9357941150665283,0.6281990757001279,0.0,7.0,0.0
R,U,"[4, 10]",1.0,8.0,0.23885393142700195,2.02709698677063,0.7052841280269051,0.0,8.0,0.0
B,L,"[4, 9]",1.0,9.0,0.2036128044128418,1.6876168251037598,0.39305202911087295,0.0,9.0,0.0
R,U,"[3, 9]",1.0,10.0,0.31655001640319824,1.9483320713043213,0.5413153872423422,0.0,10.0,0.0
,,"(6, 6)",,,,,,,,
G,D,"[7, 6]",0.0,0.0,0.6212410926818848,3.343646764755249,0.4515543604054807,1.0,11.0,0.0
B,L,"[7, 5]",0.0,0.0,0.2160811424255371,1.77970290184021,0.4644315557784628,1.0,12.0,0.0
Y,R,"[7, 6]",0.0,0.0,0.27477502822875977,1.7734119892120361,0.3879089127540266,1.0,13.0,0.0
R,U,"[6, 6]",0.0,0.0,0.9458599090576172,2.391108989715576,0.34562530918168255,1.0,14.0,0.0
G,D,"[7, 6]",0.0,0.0,0.17265892028808594,1.9346458911895752,0.6798584862709562,1.0,15.0,0.0
B,L,"[7, 5]",0.0,0.0,0.22272396087646484,1.695322036743164,0.3754036719254672,1.0,16.0,0.0
B,L,"[7, 4]",0.0,0.0,0.5773708820343018,2.1265740394592285,0.45196774729998845,1.0,17.0,0.0
R,U,"[6, 4]",0.0,0.0,0.30287694931030273,1.9974100589752197,0.5991236845411818,1.0,18.0,0.0
R,U,"[5, 4]",0.0,0.0,0.18107104301452637,1.615783929824829,0.33183096998733375,1.0,19.0,0.0
R,U,"[4, 4]",0.0,0.0,0.23716187477111816,2.0326879024505615,0.697421662939,1.0,20.0,0.0
,,"(6, 6)",,,,,,,,
G,D,"[7, 6]",0.0,0.0,0.8215579986572266,3.498100996017456,0.52888917448042,2.0,21.0,0.0
B,L,"[7, 5]",0.0,0.0,0.11943507194519043,1.6518900394439697,0.44728730041382514,2.0,22.0,0.0
Y,R,"[7, 6]",0.0,0.0,0.21368885040283203,1.8552680015563965,0.5358820538079899,2.0,23.0,0.0
B,L,"[7, 5]",-1.0,0.0,0.08382701873779297,5.864567041397095,0.6334069776611585,2.0,24.0,0.0
B,L,"[7, 4]",0.0,0.0,0.22792387008666992,1.6922221183776855,0.3591851067930543,2.0,25.0,0.0
Y,R,"[7, 5]",0.0,0.0,0.2295839786529541,1.9642908573150635,0.6398919102893386,2.0,26.0,0.0
Y,R,"[7, 6]",0.0,0.0,0.18288493156433105,1.5476348400115967,0.2711312474653981,2.0,27.0,0.0
R,U,"[6, 6]",0.0,0.0,0.273608922958374,1.6334338188171387,0.2544430365064808,2.0,28.0,0.0
R,U,"[5, 6]",1.0,1.0,0.2641448974609375,1.6441590785980225,0.28189056833289994,2.0,29.0,0.0
Y,R,"[5, 7]",1.0,2.0,0.5785739421844482,2.3780810832977295,0.6928385276638028,2.0,30.0,0.0
,,"(6, 6)",,,,,,,,
R,U,"[5, 6]",-2.0,0.0,1.1725380420684814,5.9866251945495605,0.6464964542055935,3.0,31.0,0.0
R,U,"[4, 6]",0.0,0.0,0.2537100315093994,1.8497991561889648,0.479204870668042,3.0,32.0,0.0
Y,R,"[4, 7]",0.0,0.0,0.8280980587005615,2.270228862762451,0.33293803162445607,3.0,33.0,0.0
Y,R,"[4, 8]",0.0,0.0,0.26502418518066406,1.6411240100860596,0.27394784302300024,3.0,34.0,0.0
Y,R,"[4, 9]",1.0,1.0,0.26262998580932617,1.7020139694213867,0.34262206864648204,3.0,35.0,0.0
Y,R,"[4, 10]",1.0,2.0,0.20857882499694824,1.665153980255127,0.35760414454058503,3.0,36.0,0.0
R,U,"[3, 10]",0.0,2.0,0.19984912872314453,1.9450938701629639,0.6523304468042599,3.0,37.0,0.0
Y,R,"[3, 11]",0.0,2.0,0.28209400177001953,1.844209909439087,0.4634081735837558,3.0,38.0,0.0
B,L,"[3, 10]",0.0,2.0,0.219818115234375,1.844048023223877,0.5241143772565338,3.0,39.0,0.0
R,U,"[2, 10]",0.0,2.0,0.13046813011169434,1.6367881298065186,0.4109989158652852,3.0,40.0,0.0
,,"(6, 6)",,,,,,,,
R,U,"[5, 6]",1.0,1.0,0.38496899604797363,3.1496951580047607,0.4103470561656665,4.0,41.0,0.0
Y,R,"[5, 7]",1.0,2.0,0.2000579833984375,1.5850701332092285,0.29551284648752635,4.0,42.0,0.0
Y,R,"[5, 8]",1.0,3.0,0.18879389762878418,1.542375087738037,0.27124799455580567,4.0,43.0,0.0
G,D,"[6, 8]",1.0,4.0,0.19633984565734863,1.7378900051116943,0.44227254831203466,4.0,44.0,0.0
G,D,"[7, 8]",0.0,4.0,0.13249588012695312,1.6420509815216064,0.41748796157557644,4.0,45.0,0.0
Y,R,"[7, 9]",0.0,4.0,0.266326904296875,1.6165268421173096,0.2508054150323156,4.0,46.0,0.0
R,U,"[6, 9]",1.0,5.0,0.27872300148010254,1.9323420524597168,0.5495725649271251,4.0,47.0,0.0
R,U,"[5, 9]",0.0,5.0,0.20754384994506836,1.6152920722961426,0.2984144252005198,4.0,48.0,0.0
B,L,"[5, 8]",0.0,5.0,0.2486250400543213,1.8147270679473877,0.4627987714666681,4.0,49.0,0.0
R,U,"[4, 8]",0.0,5.0,0.22089600563049316,1.7616510391235352,0.44116610513067983,4.0,50.0,0.0
,,"(6, 6)",,,,,,,,
R,U,"[5, 6]",1.0,1.0,0.5150120258331299,2.9600019454956055,0.26780306764754946,5.0,51.0,0.0
Y,R,"[5, 7]",1.0,2.0,0.2861330509185791,1.8741199970245361,0.4917661441519678,5.0,52.0,0.0
Y,R,"[5, 8]",1.0,3.0,0.23970699310302734,1.6277871131896973,0.30295301759321047,5.0,53.0,0.0
G,D,"[6, 8]",1.0,4.0,0.24120306968688965,1.8716599941253662,0.5244121651976874,5.0,54.0,0.0
Y,R,"[6, 9]",1.0,5.0,0.20236682891845703,1.9358930587768555,0.6433177437144253,5.0,55.0,0.0
Y,R,"[6, 10]",1.0,6.0,0.18650007247924805,1.7033920288085938,0.43031289803328926,5.0,56.0,0.0
R,U,"[5, 10]",1.0,7.0,0.17024993896484375,1.795097827911377,0.525155536149361,5.0,57.0,0.0
R,U,"[4, 10]",1.0,8.0,0.1809978485107422,1.8725950717926025,0.5976094511599026,5.0,58.0,0.0
B,L,"[4, 9]",1.0,9.0,0.1785569190979004,1.8799381256103516,0.5942976908568812,5.0,59.0,0.0
R,U,"[3, 9]",1.0,10.0,0.2158970832824707,1.8172061443328857,0.5114017643615245,5.0,60.0,0.0
,,"(6, 6)",,,,,,,,
R,U,"[5, 6]",1.0,1.0,0.8015480041503906,3.533911943435669,0.42858485214349396,6.0,61.0,0.0
Y,R,"[5, 7]",1.0,2.0,0.2279050350189209,1.9628229141235352,0.6411096136361354,6.0,62.0,0.0
Y,R,"[5, 8]",1.0,3.0,0.17210102081298828,1.5589630603790283,0.3002569204454828,6.0,63.0,0.0
G,D,"[6, 8]",1.0,4.0,0.3474559783935547,2.128852128982544,0.6787649012704564,6.0,64.0,0.0
Y,R,"[6, 9]",-1.0,4.0,0.08186006546020508,5.574010133743286,0.3695430901488693,6.0,65.0,0.0
Y,R,"[6, 10]",1.0,5.0,0.2773430347442627,1.6974480152130127,0.3171271671117133,6.0,66.0,0.0
R,U,"[5, 10]",1.0,6.0,0.2153151035308838,1.8727130889892578,0.5562350598384425,6.0,67.0,0.0
R,U,"[4, 10]",1.0,7.0,0.1936049461364746,1.812532901763916,0.5186390630337974,6.0,68.0,0.0
B,L,"[4, 9]",1.0,8.0,0.22889208793640137,1.894662857055664,0.5632841177525711,6.0,69.0,0.0
R,U,"[3, 9]",1.0,9.0,0.1968700885772705,1.8793079853057861,0.5758222382280151,6.0,70.0,0.0
,,"(6, 6)",,,,,,,,
R,U,"[5, 6]",1.0,1.0,0.3749539852142334,2.465378999710083,0.4911311731655988,7.0,71.0,0.0
Y,R,"[5, 7]",1.0,2.0,0.1894550323486328,1.6657190322875977,0.37353103700751294,7.0,72.0,0.0
Y,R,"[5, 8]",1.0,3.0,0.13792991638183594,1.780609130859375,0.5373729200637991,7.0,73.0,0.0
G,D,"[6, 8]",1.0,4.0,0.19416403770446777,1.8770620822906494,0.580887648073297,7.0,74.0,0.0
Y,R,"[6, 9]",-1.0,4.0,0.09313607215881348,5.612982988357544,0.37728518457047855,7.0,75.0,0.0
Y,R,"[6, 10]",1.0,5.0,0.25397515296936035,1.9089360237121582,0.5525544241013756,7.0,76.0,0.0
R,U,"[5, 10]",-1.0,5.0,0.024811983108520508,5.614559888839722,0.46704627340543065,7.0,77.0,0.0
R,U,"[4, 10]",1.0,6.0,0.3835310935974121,1.8692009449005127,0.386371944918499,7.0,78.0,0.0
B,L,"[4, 9]",1.0,7.0,0.22286391258239746,1.951672077178955,0.6375062945755907,7.0,79.0,0.0
R,U,"[3, 9]",1.0,8.0,0.22007012367248535,2.04632306098938,0.733808121630614,7.0,80.0,0.0
,,"(6, 6)",,,,,,,,
R,U,"[5, 6]",1.0,1.0,0.4766390323638916,2.4681968688964844,0.5188902426719088,8.0,81.0,0.0
Y,R,"[5, 7]",1.0,2.0,0.20920085906982422,1.6552989482879639,0.3409580917706368,8.0,82.0,0.0
Y,R,"[5, 8]",1.0,3.0,0.24212908744812012,1.6166789531707764,0.2743446307285772,8.0,83.0,0.0
G,D,"[6, 8]",1.0,4.0,0.3023669719696045,1.801750898361206,0.4091501042614869,8.0,84.0,0.0
Y,R,"[6, 9]",1.0,5.0,0.24236583709716797,1.762765884399414,0.42202724987892454,8.0,85.0,0.0
Y,R,"[6, 10]",1.0,6.0,0.19483494758605957,1.946441888809204,0.6513994356319901,8.0,86.0,0.0
R,U,"[5, 10]",1.0,7.0,0.11572098731994629,1.5504679679870605,0.33530539280969157,8.0,87.0,0.0
R,U,"[4, 10]",1.0,8.0,0.2735888957977295,1.8292710781097412,0.4478791682556692,8.0,88.0,0.0
B,L,"[4, 9]",1.0,9.0,0.21822404861450195,2.0620038509368896,0.74281043067008,8.0,89.0,0.0
R,U,"[3, 9]",1.0,10.0,0.20618319511413574,1.7593870162963867,0.4691149527132169,8.0,90.0,0.0
,,"(6, 6)",,,,,,,,
R,U,"[5, 6]",1.0,1.0,0.4501159191131592,2.47869610786438,0.3311796368071466,9.0,91.0,0.0
Y,R,"[5, 7]",1.0,2.0,0.2326819896697998,1.9296340942382812,0.5937921287213406,9.0,92.0,0.0
Y,R,"[5, 8]",1.0,3.0,0.17252302169799805,1.6087429523468018,0.33620061185716316,9.0,93.0,0.0
G,D,"[6, 8]",1.0,4.0,0.20783615112304688,1.8862650394439697,0.5720084881847485,9.0,94.0,0.0
Y,R,"[6, 9]",1.0,5.0,0.22942781448364258,1.6675829887390137,0.33974507925844954,9.0,95.0,0.0
Y,R,"[6, 10]",1.0,6.0,0.2587258815765381,1.935554027557373,0.5751359294260212,9.0,96.0,0.0
R,U,"[5, 10]",1.0,7.0,0.18588900566101074,1.7635068893432617,0.48846537371092696,9.0,97.0,0.0
R,U,"[4, 10]",1.0,8.0,0.2415928840637207,1.8893108367919922,0.5448635807608608,9.0,98.0,0.0
B,L,"[4, 9]",1.0,9.0,0.24327611923217773,1.7221460342407227,0.38335047271503425,9.0,99.0,0.0
R,U,"[3, 9]",1.0,10.0,0.23388195037841797,1.619027853012085,0.2858367431199195,9.0,100.0,0.0
,,"(6, 6)",,,,,,,,
R,U,"[5, 6]",1.0,1.0,0.33220982551574707,2.3949499130249023,0.39724845027144406,10.0,101.0,0.0
Y,R,"[5, 7]",1.0,2.0,0.2771639823913574,1.813208818435669,0.4270162185557415,10.0,102.0,0.0
Y,R,"[5, 8]",1.0,3.0,0.3602418899536133,1.7381529808044434,0.2818623035735811,10.0,103.0,0.0
G,D,"[6, 8]",1.0,4.0,0.29006385803222656,2.026124954223633,0.6242827512143925,10.0,104.0,0.0
Y,R,"[6, 9]",1.0,5.0,0.12867999076843262,1.731497049331665,0.505912514201802,10.0,105.0,0.0
Y,R,"[6, 10]",1.0,6.0,0.2520139217376709,1.9578750133514404,0.6134906156376607,10.0,106.0,0.0
R,U,"[5, 10]",1.0,7.0,0.4455089569091797,1.9705419540405273,0.41763517337647676,10.0,107.0,0.0
R,U,"[4, 10]",1.0,8.0,0.2476968765258789,1.821753978729248,0.47256688310970524,10.0,108.0,0.0
B,L,"[4, 9]",1.0,9.0,0.27199792861938477,1.777047872543335,0.3996394781397712,10.0,109.0,0.0
R,U,"[3, 9]",1.0,10.0,0.30766916275024414,2.1359589099884033,0.7186209405909783,10.0,110.0,0.0
,,"(6, 6)",,,,,,,,
R,U,"[5, 6]",1.0,1.0,0.6289269924163818,5.968374013900757,0.4368597837062257,11.0,111.0,0.0
Y,R,"[5, 7]",-1.0,1.0,0.04821181297302246,5.670369863510132,0.490413051187626,11.0,112.0,0.0
Y,R,"[5, 8]",1.0,2.0,0.4728419780731201,2.0693118572235107,0.49290343610305914,11.0,113.0,0.0
G,D,"[6, 8]",-1.0,2.0,0.02955317497253418,5.886409044265747,0.7288067687334547,11.0,114.0,0.0
Y,R,"[6, 9]",-1.0,2.0,0.05301403999328613,5.871937990188599,0.6838823267002074,11.0,115.0,0.0
Y,R,"[6, 10]",1.0,3.0,0.5862751007080078,2.2161149978637695,0.5336081435076121,11.0,116.0,0.0
R,U,"[5, 10]",-1.0,3.0,0.07585382461547852,5.6271889209747314,0.41063558075413825,11.0,117.0,0.0
R,U,"[4, 10]",1.0,4.0,0.2667419910430908,1.8206791877746582,0.46471299090403645,11.0,118.0,0.0
B,L,"[4, 9]",1.0,5.0,0.25533199310302734,1.7842731475830078,0.41558365993516394,11.0,119.0,0.0
R,U,"[3, 9]",1.0,6.0,0.2449638843536377,2.072383165359497,0.7208097636189468,11.0,120.0,0.0
,,"(6, 6)",,,,,,,,
R,U,"[5, 6]",1.0,1.0,0.44721412658691406,2.3366470336914062,0.2745005204856287,12.0,121.0,0.0
Y,R,"[5, 7]",1.0,2.0,0.28397202491760254,2.1127259731292725,0.7367728101570253,12.0,122.0,0.0
Y,R,"[5, 8]",1.0,3.0,0.1932389736175537,1.7621190547943115,0.46581608803423136,12.0,123.0,0.0
G,D,"[6, 8]",1.0,4.0,0.21053314208984375,1.9505939483642578,0.6330146515010929,12.0,124.0,0.0
Y,R,"[6, 9]",1.0,5.0,0.24544405937194824,2.052996873855591,0.7023665648008055,12.0,125.0,0.0
Y,R,"[6, 10]",1.0,6.0,0.2673909664154053,1.750493049621582,0.38642016545422947,12.0,126.0,0.0
R,U,"[5, 10]",1.0,7.0,0.34742283821105957,2.0360100269317627,0.58866847990409,12.0,127.0,0.0
R,U,"[4, 10]",1.0,8.0,0.30210113525390625,1.8927419185638428,0.4981415424147684,12.0,128.0,0.0
B,L,"[4, 9]",1.0,9.0,0.30016398429870605,1.9782650470733643,0.5762794608483929,12.0,129.0,0.0
R,U,"[3, 9]",1.0,10.0,0.37938594818115234,1.866621971130371,0.39310842188757056,12.0,130.0,0.0
,,"(6, 6)",,,,,,,,
R,U,"[5, 6]",1.0,1.0,0.41187596321105957,2.542055130004883,0.5515362429510557,13.0,131.0,0.0
Y,R,"[5, 7]",1.0,2.0,0.2658050060272217,1.6929640769958496,0.3279716431157418,13.0,132.0,0.0
Y,R,"[5, 8]",1.0,3.0,0.22844505310058594,1.8311491012573242,0.5090357335009408,13.0,133.0,0.0
G,D,"[6, 8]",1.0,4.0,0.22092294692993164,1.6119630336761475,0.3044759060465618,13.0,134.0,0.0
Y,R,"[6, 9]",1.0,5.0,0.38889002799987793,2.157665967941284,0.6616166905262937,13.0,135.0,0.0
Y,R,"[6, 10]",1.0,6.0,0.23353004455566406,1.8710370063781738,0.5493432936732592,13.0,136.0,0.0
R,U,"[5, 10]",1.0,7.0,0.23697590827941895,1.9081971645355225,0.5741157414833187,13.0,137.0,0.0
R,U,"[4, 10]",1.0,8.0,0.23721098899841309,1.6803619861602783,0.3547449055184037,13.0,138.0,0.0
B,L,"[4, 9]",1.0,9.0,0.2920191287994385,1.9336998462677002,0.5380696609446587,13.0,139.0,0.0
R,U,"[3, 9]",1.0,10.0,0.13247394561767578,1.8189949989318848,0.5903046253091175,13.0,140.0,0.0
,,"(6, 6)",,,,,,,,
R,U,"[5, 6]",1.0,1.0,0.43088293075561523,2.825540065765381,0.5991835614119368,14.0,141.0,0.0
Y,R,"[5, 7]",1.0,2.0,0.25502991676330566,1.613027811050415,0.26235411950061804,14.0,142.0,0.0
Y,R,"[5, 8]",1.0,3.0,0.5323429107666016,2.3080849647521973,0.6699643585677065,14.0,143.0,0.0
G,D,"[6, 8]",1.0,4.0,0.2639927864074707,1.6783509254455566,0.31533646758287087,14.0,144.0,0.0
Y,R,"[6, 9]",1.0,5.0,0.33792686462402344,1.880223035812378,0.4453978925796888,14.0,145.0,0.0
Y,R,"[6, 10]",1.0,6.0,0.3523399829864502,2.054007053375244,0.6158523702361829,14.0,146.0,0.0
R,U,"[5, 10]",1.0,7.0,0.24469995498657227,2.050555944442749,0.6994681014321096,14.0,147.0,0.0
R,U,"[4, 10]",1.0,8.0,0.1895740032196045,2.0076489448547363,0.7071919415543728,14.0,148.0,0.0
B,L,"[4, 9]",1.0,9.0,0.1955881118774414,2.029405117034912,0.7364673894144559,14.0,149.0,0.0
R,U,"[3, 9]",1.0,10.0,0.24276399612426758,1.969954013824463,0.6230325885497925,14.0,150.0,0.0
,,"(6, 6)",,,,,,,,
R,U,"[5, 6]",1.0,1.0,0.5546810626983643,2.6927490234375,0.6158094567083877,15.0,151.0,0.0
Y,R,"[5, 7]",1.0,2.0,0.2184000015258789,1.8804209232330322,0.5628818844001262,15.0,152.0,0.0
Y,R,"[5, 8]",1.0,3.0,0.25702595710754395,1.94563889503479,0.5749720880033552,15.0,153.0,0.0
G,D,"[6, 8]",1.0,4.0,0.24767088890075684,1.8422539234161377,0.5007110644223465,15.0,154.0,0.0
Y,R,"[6, 9]",1.0,5.0,0.2946131229400635,1.9604899883270264,0.5611481508370375,15.0,155.0,0.0
Y,R,"[6, 10]",1.0,6.0,0.2469789981842041,1.710150957107544,0.37122895959678914,15.0,156.0,0.0
R,U,"[5, 10]",1.0,7.0,0.27744507789611816,1.759113073348999,0.38041570824568943,15.0,157.0,0.0
R,U,"[4, 10]",1.0,8.0,0.2631359100341797,1.688472032546997,0.3188503461220662,15.0,158.0,0.0
B,L,"[4, 9]",1.0,9.0,0.30487585067749023,1.7638318538665771,0.36592531488043256,15.0,159.0,0.0
R,U,"[3, 9]",1.0,10.0,0.2851560115814209,1.8733129501342773,0.4890235036702986,15.0,160.0,0.0
,,"(6, 6)",,,,,,,,
R,U,"[5, 6]",1.0,1.0,0.5431230068206787,2.797718048095703,0.6031381498387645,16.0,161.0,0.0
Y,R,"[5, 7]",1.0,2.0,0.18818998336791992,1.6651179790496826,0.368545043455148,16.0,162.0,0.0
Y,R,"[5, 8]",1.0,3.0,0.19876408576965332,1.6846389770507812,0.3863880412360923,16.0,163.0,0.0
G,D,"[6, 8]",1.0,4.0,0.1924440860748291,1.848445177078247,0.5513266859811237,16.0,164.0,0.0
Y,R,"[6, 9]",1.0,5.0,0.25835514068603516,1.7050859928131104,0.3397936984968796,16.0,165.0,0.0
Y,R,"[6, 10]",1.0,6.0,0.2375478744506836,1.8389430046081543,0.5119119440169697,16.0,166.0,0.0
R,U,"[5, 10]",1.0,7.0,0.1590118408203125,1.6441380977630615,0.38939316436576515,16.0,167.0,0.0
R,U,"[4, 10]",1.0,8.0,0.2719991207122803,2.0785529613494873,0.7008915650604655,16.0,168.0,0.0
B,L,"[4, 9]",1.0,9.0,0.19772720336914062,1.7551910877227783,0.45648332496280286,16.0,169.0,0.0
R,U,"[3, 9]",1.0,10.0,0.17954707145690918,1.8324339389801025,0.5553161647110099,16.0,170.0,0.0
,,"(6, 6)",,,,,,,,
R,U,"[5, 6]",1.0,1.0,0.4705808162689209,2.420814037322998,0.49267928545718254,17.0,171.0,0.0
Y,R,"[5, 7]",1.0,2.0,0.21948981285095215,1.6971380710601807,0.38997159490622296,17.0,172.0,0.0
Y,R,"[5, 8]",1.0,3.0,0.27773594856262207,1.6528089046478271,0.2760652851580798,17.0,173.0,0.0
G,D,"[6, 8]",1.0,4.0,0.25751590728759766,1.727707862854004,0.37034357877171903,17.0,174.0,0.0
Y,R,"[6, 9]",1.0,5.0,0.19777297973632812,1.8683879375457764,0.5717649439140777,17.0,175.0,0.0
Y,R,"[6, 10]",1.0,6.0,0.23154497146606445,2.01875901222229,0.6904480073422867,17.0,176.0,0.0
R,U,"[5, 10]",1.0,7.0,0.19975495338439941,1.6803739070892334,0.387690814973601,17.0,177.0,0.0
R,U,"[4, 10]",-1.0,7.0,0.0653378963470459,5.730432033538818,0.5344480535904064,17.0,178.0,0.0
B,L,"[4, 9]",1.0,8.0,0.2838919162750244,1.8031620979309082,0.4208294565865514,17.0,179.0,0.0
R,U,"[3, 9]",1.0,9.0,0.22855687141418457,2.0162761211395264,0.6869445600748019,17.0,180.0,0.0
,,"(6, 6)",,,,,,,,
G,D,"[7, 6]",0.0,0.0,0.5448839664459229,2.563636064529419,0.5007628000791332,18.0,181.0,0.0
G,D,"[8, 6]",0.0,0.0,0.26853084564208984,1.852982997894287,0.4869665336149058,18.0,182.0,0.0
G,D,"[9, 6]",0.0,0.0,0.15073800086975098,1.700930118560791,0.4544101737242044,18.0,183.0,0.0
G,D,"[10, 6]",0.0,0.0,0.18801403045654297,1.8144710063934326,0.5188560206682988,18.0,184.0,0.0
G,D,"[11, 6]",-1.0,0.0,0.0998539924621582,5.887319087982178,0.6558178934427441,18.0,185.0,0.0
G,D,"[10, 6]",-3.0,0.0,0.21132302284240723,1.8487188816070557,0.5378812345213693,18.0,186.0,0.0
G,D,"[11, 6]",0.0,0.0,0.40577006340026855,2.0085580348968506,0.496446328475564,18.0,187.0,0.0
G,D,"[10, 6]",-3.0,0.0,0.23458194732666016,1.8967211246490479,0.5596780957352362,18.0,188.0,0.0
G,D,"[11, 6]",0.0,0.0,0.2182168960571289,1.7661159038543701,0.45924548093606826,18.0,189.0,0.0
G,D,"[10, 6]",-3.0,0.0,0.22865605354309082,1.7318592071533203,0.4077671244091142,18.0,190.0,0.0
,,"(6, 6)",,,,,,,,
R,U,"[5, 6]",1.0,1.0,0.4054529666900635,3.4357259273529053,0.41005441084335015,19.0,191.0,0.0
Y,R,"[5, 7]",1.0,2.0,0.19992899894714355,1.9256529808044434,0.6354775313162606,19.0,192.0,0.0
Y,R,"[5, 8]",-1.0,2.0,0.09078717231750488,5.5030357837677,0.271939507954355,19.0,193.0,0.0
G,D,"[6, 8]",1.0,3.0,0.608367919921875,2.3551039695739746,0.6433034212282407,19.0,194.0,0.0
Y,R,"[6, 9]",1.0,4.0,0.2402939796447754,1.6301660537719727,0.29035654284365636,19.0,195.0,0.0
Y,R,"[6, 10]",1.0,5.0,0.32191014289855957,2.010035991668701,0.6001024538546686,19.0,196.0,0.0
R,U,"[5, 10]",1.0,6.0,0.24135088920593262,1.7920441627502441,0.4421886883605477,19.0,197.0,0.0
R,U,"[4, 10]",1.0,7.0,0.22089219093322754,1.7926790714263916,0.48482865464092856,19.0,198.0,0.0
B,L,"[4, 9]",1.0,8.0,0.2818310260772705,2.1142208576202393,0.7319860005565402,19.0,199.0,0.0
R,U,"[3, 9]",1.0,9.0,0.42133092880249023,1.932560920715332,0.41473951409035775,19.0,200.0,0.0
,,"(6, 6)",,,,,,,,
R,U,"[5, 6]",1.0,1.0,0.4270761013031006,2.249337911605835,0.3807027752371954,20.0,201.0,0.0
Y,R,"[5, 7]",1.0,2.0,0.4048299789428711,1.7841148376464844,0.2648800652817905,20.0,202.0,0.0
Y,R,"[5, 8]",1.0,3.0,0.24550986289978027,2.0464439392089844,0.6944335449229393,20.0,203.0,0.0
G,D,"[6, 8]",-1.0,3.0,0.08935713768005371,5.753245830535889,0.530760420033161,20.0,204.0,0.0
Y,R,"[6, 9]",1.0,4.0,0.24424505233764648,1.705826997756958,0.35343580059380986,20.0,205.0,0.0
Y,R,"[6, 10]",1.0,5.0,0.17700481414794922,1.9127771854400635,0.6324667005909735,20.0,206.0,0.0
R,U,"[5, 10]",1.0,6.0,0.19666194915771484,1.81968092918396,0.5188542048027911,20.0,207.0,0.0
R,U,"[4, 10]",1.0,7.0,0.22491097450256348,1.9362740516662598,0.6052740678663737,20.0,208.0,0.0
B,L,"[4, 9]",1.0,8.0,0.24454998970031738,1.8973870277404785,0.552310368918594,20.0,209.0,0.0
R,U,"[3, 9]",1.0,9.0,0.2829320430755615,1.7462780475616455,0.3655515032799361,20.0,210.0,0.0
,,"(6, 6)",,,,,,,,
R,U,"[5, 6]",1.0,1.0,0.5669999122619629,2.648144006729126,0.5300033898935768,21.0,211.0,0.0
Y,R,"[5, 7]",1.0,2.0,0.5687220096588135,2.3173530101776123,0.6473821114052718,21.0,212.0,0.0
Y,R,"[5, 8]",1.0,3.0,0.1257328987121582,1.8683481216430664,0.6321434763596377,21.0,213.0,0.0
G,D,"[6, 8]",1.0,4.0,0.20401310920715332,1.7142128944396973,0.41324338045572073,21.0,214.0,0.0
Y,R,"[6, 9]",1.0,5.0,0.3093140125274658,1.9018409252166748,0.48149937764341616,21.0,215.0,0.0
Y,R,"[6, 10]",1.0,6.0,0.2762908935546875,1.9766159057617188,0.5912648360979198,21.0,216.0,0.0
R,U,"[5, 10]",1.0,7.0,0.2775881290435791,1.9212257862091064,0.5459273011899527,21.0,217.0,0.0
R,U,"[4, 10]",1.0,8.0,0.29445600509643555,1.7808759212493896,0.376811846945825,21.0,218.0,0.0
B,L,"[4, 9]",1.0,9.0,0.339663028717041,2.1318819522857666,0.6917611853372418,21.0,219.0,0.0
R,U,"[3, 9]",1.0,10.0,0.21532511711120605,1.8094871044158936,0.5013729751489728,21.0,220.0,0.0
,,"(6, 6)",,,,,,,,
R,U,"[5, 6]",1.0,1.0,0.4781010150909424,2.5934131145477295,0.6614537421057114,22.0,221.0,0.0
Y,R,"[5, 7]",1.0,2.0,0.4382619857788086,1.851496934890747,0.2962595816748506,22.0,222.0,0.0
Y,R,"[5, 8]",1.0,3.0,0.31537389755249023,1.8073320388793945,0.3867534701036278,22.0,223.0,0.0
G,D,"[6, 8]",1.0,4.0,0.23607897758483887,1.9162518978118896,0.586532422740331,22.0,224.0,0.0
Y,R,"[6, 9]",1.0,5.0,0.25777316093444824,1.8041119575500488,0.44023970950751906,22.0,225.0,0.0
Y,R,"[6, 10]",1.0,6.0,0.3077890872955322,2.058558940887451,0.6486546405683111,22.0,226.0,0.0
R,U,"[5, 10]",1.0,7.0,0.4111359119415283,1.829747200012207,0.3119992800114688,22.0,227.0,0.0
R,U,"[4, 10]",1.0,8.0,0.3535342216491699,2.0250229835510254,0.586701306512014,22.0,228.0,0.0
B,L,"[4, 9]",1.0,9.0,0.22176194190979004,1.6352880001068115,0.30551333505986167,22.0,229.0,0.0
R,U,"[3, 9]",1.0,10.0,0.24608612060546875,1.9446430206298828,0.6002194608530032,22.0,230.0,0.0
,,"(6, 6)",,,,,,,,
R,U,"[5, 6]",1.0,1.0,0.507728099822998,2.623358964920044,0.6897023251810066,23.0,231.0,0.0
Y,R,"[5, 7]",1.0,2.0,0.20807814598083496,2.045742988586426,0.7352360757632987,23.0,232.0,0.0
Y,R,"[5, 8]",-1.0,2.0,0.08605790138244629,5.952116966247559,0.7370887732038064,23.0,233.0,0.0
G,D,"[6, 8]",1.0,3.0,0.2689809799194336,1.7454121112823486,0.38301642127299307,23.0,234.0,0.0
Y,R,"[6, 9]",1.0,4.0,0.37465381622314453,1.812140941619873,0.3283152949165896,23.0,235.0,0.0
Y,R,"[6, 10]",1.0,5.0,0.2697291374206543,2.0070559978485107,0.651626977305482,23.0,236.0,0.0
R,U,"[5, 10]",1.0,6.0,0.2442159652709961,2.061002016067505,0.712531445588976,23.0,237.0,0.0
R,U,"[4, 10]",1.0,7.0,0.5402119159698486,2.2104129791259766,0.5563836134382647,23.0,238.0,0.0
B,L,"[4, 9]",1.0,8.0,0.42224884033203125,2.2127509117126465,0.7023030387717115,23.0,239.0,0.0
R,U,"[3, 9]",1.0,9.0,0.30762410163879395,1.709906816482544,0.29582562983518623,23.0,240.0,0.0
,,"(6, 6)",,,,,,,,
R,U,"[5, 6]",1.0,1.0,0.44029903411865234,3.2464399337768555,0.741668335925794,24.0,241.0,0.0
Y,R,"[5, 7]",1.0,2.0,0.2924370765686035,1.962425947189331,0.5709371924607969,24.0,242.0,0.0
Y,R,"[5, 8]",1.0,3.0,0.3953430652618408,2.1002509593963623,0.6047406305119538,24.0,243.0,0.0
G,D,"[6, 8]",1.0,4.0,0.44536399841308594,1.9512591361999512,0.40569088249262153,24.0,244.0,0.0
Y,R,"[6, 9]",1.0,5.0,0.43268895149230957,1.9220860004425049,0.39442706134392985,24.0,245.0,0.0
Y,R,"[6, 10]",1.0,6.0,0.39699888229370117,1.8475589752197266,0.35871791070028186,24.0,246.0,0.0
R,U,"[5, 10]",1.0,7.0,0.4070580005645752,2.0464460849761963,0.538434429920942,24.0,247.0,0.0
R,U,"[4, 10]",1.0,8.0,0.29308390617370605,2.0238399505615234,0.6287330630661245,24.0,248.0,0.0
B,L,"[4, 9]",1.0,9.0,0.3063359260559082,1.797874927520752,0.39338544104848805,24.0,249.0,0.0
R,U,"[3, 9]",1.0,10.0,0.33126091957092285,2.03574800491333,0.6124550870816386,24.0,250.0,0.0
,,"(6, 6)",,,,,,,,
R,U,"[5, 6]",1.0,1.0,0.4397008419036865,2.328956127166748,0.44109476894474847,25.0,251.0,0.0
Y,R,"[5, 7]",1.0,2.0,0.36260294914245605,1.8120410442352295,0.3533211779503353,25.0,252.0,0.0
Y,R,"[5, 8]",1.0,3.0,0.3777790069580078,1.9600160121917725,0.47982703703762597,25.0,253.0,0.0
G,D,"[6, 8]",1.0,4.0,0.3730599880218506,2.217513084411621,0.7472397559008694,25.0,254.0,0.0
Y,R,"[6, 9]",1.0,5.0,0.49654603004455566,2.342031955718994,0.7388438752512152,25.0,255.0,0.0
Y,R,"[6, 10]",1.0,6.0,0.16706395149230957,1.5370121002197266,0.276214926618189,25.0,256.0,0.0
R,U,"[5, 10]",1.0,7.0,0.5866060256958008,1.9580330848693848,0.28415489684359446,25.0,257.0,0.0
R,U,"[4, 10]",1.0,8.0,0.5209829807281494,2.1585919857025146,0.5424374489619366,25.0,258.0,0.0
B,L,"[4, 9]",1.0,9.0,0.26908087730407715,2.0191168785095215,0.6614317068164368,25.0,259.0,0.0
R,U,"[3, 9]",1.0,10.0,0.40036702156066895,1.7930889129638672,0.30485677590090643,25.0,260.0,0.0
,,"(6, 6)",,,,,,,,
R,U,"[5, 6]",1.0,1.0,0.6144249439239502,2.4568679332733154,0.31157097584094795,26.0,261.0,0.0
Y,R,"[5, 7]",1.0,2.0,0.36615514755249023,1.8302218914031982,0.3749503748255924,26.0,262.0,0.0
Y,R,"[5, 8]",1.0,3.0,0.3207969665527344,1.9837439060211182,0.5751537575644632,26.0,263.0,0.0
G,D,"[6, 8]",1.0,4.0,0.20847201347351074,1.5919420719146729,0.2840071508957779,26.0,264.0,0.0
Y,R,"[6, 9]",1.0,5.0,0.367358922958374,2.1899471282958984,0.7234131878641528,26.0,265.0,0.0
Y,R,"[6, 10]",1.0,6.0,0.25603604316711426,1.6627349853515625,0.31978433609624407,26.0,266.0,0.0
R,U,"[5, 10]",1.0,7.0,0.5023021697998047,1.9058690071105957,0.308899906674838,26.0,267.0,0.0
R,U,"[4, 10]",1.0,8.0,0.37630796432495117,1.8414220809936523,0.36688676238149537,26.0,268.0,0.0
B,L,"[4, 9]",1.0,9.0,0.4183309078216553,2.255958080291748,0.7392310910266584,26.0,269.0,0.0
R,U,"[3, 9]",1.0,10.0,0.22963595390319824,1.647799015045166,0.320704715436743,26.0,270.0,0.0
,,"(6, 6)",,,,,,,,
R,U,"[5, 6]",1.0,1.0,0.5485169887542725,2.363784074783325,0.38435579222383337,27.0,271.0,0.0
Y,R,"[5, 7]",1.0,2.0,0.27682995796203613,1.8937280178070068,0.5111516776143346,27.0,272.0,0.0
Y,R,"[5, 8]",1.0,3.0,0.1982719898223877,1.5670900344848633,0.2783538209450055,27.0,273.0,0.0
G,D,"[6, 8]",1.0,4.0,0.226531982421875,1.7574739456176758,0.435822009207369,27.0,274.0,0.0
Y,R,"[6, 9]",1.0,5.0,0.23876404762268066,1.802638053894043,0.45499743393001224,27.0,275.0,0.0
Y,R,"[6, 10]",1.0,6.0,0.18507790565490723,1.7864210605621338,0.5079475100956372,27.0,276.0,0.0
R,U,"[5, 10]",1.0,7.0,0.19040489196777344,1.735299825668335,0.4598508738713649,27.0,277.0,0.0
R,U,"[4, 10]",1.0,8.0,0.22600507736206055,1.9820499420166016,0.6582814470638013,27.0,278.0,0.0
B,L,"[4, 9]",1.0,9.0,0.27092814445495605,1.6964168548583984,0.3383895639336676,27.0,279.0,0.0
R,U,"[3, 9]",1.0,10.0,0.2739708423614502,1.9177870750427246,0.5391611719922733,27.0,280.0,0.0
,,"(6, 6)",,,,,,,,
R,U,"[5, 6]",1.0,1.0,0.5568568706512451,2.7127559185028076,0.7350432267048765,28.0,281.0,0.0
Y,R,"[5, 7]",1.0,2.0,0.20902109146118164,1.8795130252838135,0.5645630636317394,28.0,282.0,0.0
Y,R,"[5, 8]",1.0,3.0,0.12587904930114746,1.5868799686431885,0.3516745888916442,28.0,283.0,0.0
G,D,"[6, 8]",1.0,4.0,0.2785508632659912,1.7165248394012451,0.3347564448369458,28.0,284.0,0.0
Y,R,"[6, 9]",1.0,5.0,0.2538328170776367,2.0293779373168945,0.6638661850605276,28.0,285.0,0.0
Y,R,"[6, 10]",1.0,6.0,0.2466280460357666,1.6222970485687256,0.269742992874757,28.0,286.0,0.0
R,U,"[5, 10]",1.0,7.0,0.3079400062561035,1.9429538249969482,0.5289993747064787,28.0,287.0,0.0
R,U,"[4, 10]",1.0,8.0,0.21698498725891113,1.6676170825958252,0.3467333780140568,28.0,288.0,0.0
B,L,"[4, 9]",1.0,9.0,0.2631862163543701,1.7294950485229492,0.3596255023094388,28.0,289.0,0.0
R,U,"[3, 9]",1.0,10.0,0.29845714569091797,1.6791141033172607,0.28872221532306863,28.0,290.0,0.0
,,"(6, 6)",,,,,,,,
R,U,"[5, 6]",1.0,1.0,0.43718600273132324,2.768721103668213,0.7068362182884282,29.0,291.0,0.0
Y,R,"[5, 7]",-1.0,1.0,0.07944607734680176,5.819737911224365,0.6102000874726206,29.0,292.0,0.0
Y,R,"[5, 8]",1.0,2.0,0.23665499687194824,2.010892152786255,0.6873658169820314,29.0,293.0,0.0
G,D,"[6, 8]",1.0,3.0,0.17966604232788086,1.5800120830535889,0.3009956995369239,29.0,294.0,0.0
Y,R,"[6, 9]",1.0,4.0,0.2435319423675537,1.7883129119873047,0.43913465474821783,29.0,295.0,0.0
Y,R,"[6, 10]",1.0,5.0,0.26739501953125,1.9922230243682861,0.6309908648513064,29.0,296.0,0.0
R,U,"[5, 10]",1.0,6.0,0.23740005493164062,1.8959190845489502,0.5436781528172141,29.0,297.0,0.0
R,U,"[4, 10]",1.0,7.0,0.24474000930786133,2.0058910846710205,0.6661061363177428,29.0,298.0,0.0
B,L,"[4, 9]",1.0,8.0,0.2620229721069336,1.9462521076202393,0.5789228029088485,29.0,299.0,0.0
R,U,"[3, 9]",1.0,9.0,0.2619659900665283,2.0942649841308594,0.7064133776636266,29.0,300.0,0.0
,,"(6, 6)",,,,,,,,
R,U,"[5, 6]",1.0,1.0,0.5902869701385498,2.6000099182128906,0.3900417998444675,30.0,301.0,0.0
Y,R,"[5, 7]",1.0,2.0,0.3186311721801758,1.894247055053711,0.48407529304410546,30.0,302.0,0.0
Y,R,"[5, 8]",1.0,3.0,0.2604241371154785,1.8166460990905762,0.4506562332044961,30.0,303.0,0.0
G,D,"[6, 8]",1.0,4.0,0.24885201454162598,1.6758220195770264,0.3266627228544073,30.0,304.0,0.0
Y,R,"[6, 9]",1.0,5.0,0.3272271156311035,1.8756449222564697,0.4519833963205774,30.0,305.0,0.0
Y,R,"[6, 10]",1.0,6.0,0.22396612167358398,2.0265138149261475,0.6949290538441748,30.0,306.0,0.0
R,U,"[5, 10]",1.0,7.0,0.23910903930664062,1.9786758422851562,0.6401735119217552,30.0,307.0,0.0
R,U,"[4, 10]",1.0,8.0,0.32285284996032715,1.7854819297790527,0.3593038543958284,30.0,308.0,0.0
B,L,"[4, 9]",1.0,9.0,0.4026021957397461,2.1313979625701904,0.6402236962241022,30.0,309.0,0.0
R,U,"[3, 9]",1.0,10.0,0.28411197662353516,1.6457629203796387,0.26977454983282206,30.0,310.0,0.0
,,"(6, 6)",,,,,,,,
R,U,"[5, 6]",1.0,1.0,0.41384005546569824,2.6496880054473877,0.5191124501363111,31.0,311.0,0.0
Y,R,"[5, 7]",1.0,2.0,0.23394298553466797,1.7862460613250732,0.45536328639885315,31.0,312.0,0.0
Y,R,"[5, 8]",1.0,3.0,0.25066590309143066,1.7660419940948486,0.42140742749355065,31.0,313.0,0.0
G,D,"[6, 8]",1.0,4.0,0.23238301277160645,1.8891661167144775,0.560344528839904,31.0,314.0,0.0
Y,R,"[6, 9]",1.0,5.0,0.22756409645080566,2.043468952178955,0.7202533659314017,31.0,315.0,0.0
Y,R,"[6, 10]",1.0,6.0,0.14928388595581055,1.5243170261383057,0.2782045643628944,31.0,316.0,0.0
R,U,"[5, 10]",1.0,7.0,0.2859659194946289,1.6261332035064697,0.2542853225161353,31.0,317.0,0.0
R,U,"[4, 10]",1.0,8.0,0.2771480083465576,1.8512699604034424,0.47192252857611605,31.0,318.0,0.0
B,L,"[4, 9]",1.0,9.0,0.23252105712890625,1.928184986114502,0.6000461568985462,31.0,319.0,0.0
R,U,"[3, 9]",1.0,10.0,0.1592569351196289,1.5881729125976562,0.3216814504527369,31.0,320.0,0.0
,,"(6, 6)",,,,,,,,
R,U,"[5, 6]",1.0,1.0,0.4935431480407715,2.3526418209075928,0.2742598940856949,32.0,321.0,0.0
Y,R,"[5, 7]",1.0,2.0,0.3037381172180176,1.9871680736541748,0.5944780609773256,32.0,322.0,0.0
Y,R,"[5, 8]",1.0,3.0,0.31540608406066895,1.8915870189666748,0.4861281940274993,32.0,323.0,0.0
G,D,"[6, 8]",1.0,4.0,0.2953360080718994,1.8840250968933105,0.4867689354375332,32.0,324.0,0.0
Y,R,"[6, 9]",1.0,5.0,0.24790287017822266,1.795989990234375,0.4493086587427551,32.0,325.0,0.0
Y,R,"[6, 10]",1.0,6.0,0.3099181652069092,1.8689589500427246,0.45156958059888724,32.0,326.0,0.0
R,U,"[5, 10]",1.0,7.0,0.23325419425964355,1.692262887954712,0.36035738495126046,32.0,327.0,0.0
R,U,"[4, 10]",1.0,8.0,0.33090996742248535,1.982982873916626,0.5599936839359976,32.0,328.0,0.0
B,L,"[4, 9]",1.0,9.0,0.246535062789917,1.9176909923553467,0.5768893508760294,32.0,329.0,0.0
R,U,"[3, 9]",1.0,10.0,0.22380590438842773,1.7545149326324463,0.43216860702726145,32.0,330.0,0.0
,,"(6, 6)",,,,,,,,
R,U,"[5, 6]",1.0,1.0,0.46030497550964355,2.3937489986419678,0.44241189473588494,33.0,331.0,0.0
Y,R,"[5, 7]",1.0,2.0,0.4813270568847656,2.0715720653533936,0.4971892276104771,33.0,332.0,0.0
Y,R,"[5, 8]",1.0,3.0,0.21135997772216797,2.0559420585632324,0.7362009095426355,33.0,333.0,0.0
G,D,"[6, 8]",1.0,4.0,0.21161794662475586,1.5945730209350586,0.2812749711318836,33.0,334.0,0.0
Y,R,"[6, 9]",1.0,5.0,0.32939910888671875,1.9768099784851074,0.5409897389793789,33.0,335.0,0.0
Y,R,"[6, 10]",-1.0,5.0,0.05169391632080078,5.47296404838562,0.29728208781356413,33.0,336.0,0.0
R,U,"[5, 10]",1.0,6.0,0.2811880111694336,1.9215478897094727,0.5351949964808005,33.0,337.0,0.0
R,U,"[4, 10]",1.0,7.0,0.14152908325195312,1.7791109085083008,0.5311258213678052,33.0,338.0,0.0
B,L,"[4, 9]",1.0,8.0,0.29322004318237305,1.8951029777526855,0.4928413195070106,33.0,339.0,0.0
R,U,"[3, 9]",1.0,9.0,0.2580149173736572,2.0943710803985596,0.7368487767718517,33.0,340.0,0.0
,,"(6, 6)",,,,,,,,
R,U,"[5, 6]",1.0,1.0,0.5821571350097656,2.3705902099609375,0.4075750053118952,34.0,341.0,0.0
Y,R,"[5, 7]",1.0,2.0,0.3020899295806885,1.755518913269043,0.36311894930846933,34.0,342.0,0.0
Y,R,"[5, 8]",1.0,3.0,0.2623169422149658,1.8648910522460938,0.49447956591744885,34.0,343.0,0.0
G,D,"[6, 8]",1.0,4.0,0.22736310958862305,1.8390979766845703,0.5167878752213189,34.0,344.0,0.0
Y,R,"[6, 9]",1.0,5.0,0.21633601188659668,1.648015022277832,0.3316747132082105,34.0,345.0,0.0
Y,R,"[6, 10]",1.0,6.0,0.311262845993042,1.7075960636138916,0.2891957195063668,34.0,346.0,0.0
R,U,"[5, 10]",1.0,7.0,0.3563530445098877,1.7974181175231934,0.3366226535653887,34.0,347.0,0.0
R,U,"[4, 10]",1.0,8.0,0.3035309314727783,1.917506217956543,0.5205575287588912,34.0,348.0,0.0
B,L,"[4, 9]",1.0,9.0,0.3182840347290039,2.1008799076080322,0.6877817583330897,34.0,349.0,0.0
R,U,"[3, 9]",1.0,10.0,0.21895909309387207,1.7817869186401367,0.46981341525428066,34.0,350.0,0.0
,,"(6, 6)",,,,,,,,
R,U,"[5, 6]",1.0,1.0,0.6025891304016113,2.744626998901367,0.6308800197732642,35.0,351.0,0.0
Y,R,"[5, 7]",1.0,2.0,0.2161109447479248,1.8755431175231934,0.5566593365468205,35.0,352.0,0.0
Y,R,"[5, 8]",1.0,3.0,0.20951294898986816,1.692868947982788,0.38265627762434135,35.0,353.0,0.0
G,D,"[6, 8]",1.0,4.0,0.2584269046783447,1.8696808815002441,0.5022423315599904,35.0,354.0,0.0
Y,R,"[6, 9]",1.0,5.0,0.23068714141845703,1.6329429149627686,0.3017512845833575,35.0,355.0,0.0
Y,R,"[6, 10]",1.0,6.0,0.4803750514984131,1.9813590049743652,0.39988187168205136,35.0,356.0,0.0
R,U,"[5, 10]",1.0,7.0,0.3372199535369873,1.68648099899292,0.25305767354411896,35.0,357.0,0.0
R,U,"[4, 10]",1.0,8.0,0.2856130599975586,1.7913858890533447,0.4108150470340169,35.0,358.0,0.0
B,L,"[4, 9]",1.0,9.0,0.3144199848175049,1.6955299377441406,0.2897560909732997,35.0,359.0,0.0
R,U,"[3, 9]",1.0,10.0,0.2648611068725586,1.9476649761199951,0.5871334316370534,35.0,360.0,0.0
,,"(6, 6)",,,,,,,,
R,U,"[5, 6]",1.0,1.0,0.5792629718780518,2.417297124862671,0.42124692098501515,36.0,361.0,0.0
Y,R,"[5, 7]",1.0,2.0,0.18288493156433105,1.8344640731811523,0.5553323611970191,36.0,362.0,0.0
Y,R,"[5, 8]",1.0,3.0,0.18625378608703613,1.8399710655212402,0.5620506375417826,36.0,363.0,0.0
G,D,"[6, 8]",-1.0,3.0,0.05921506881713867,5.441779851913452,0.2705032627710807,36.0,364.0,0.0
Y,R,"[6, 9]",1.0,4.0,0.3303217887878418,1.8054490089416504,0.37577412401470306,36.0,365.0,0.0
Y,R,"[6, 10]",1.0,5.0,0.22875308990478516,1.8899950981140137,0.5656210884331019,36.0,366.0,0.0
R,U,"[5, 10]",-1.0,5.0,0.018925189971923828,5.727553129196167,0.5761921001485837,36.0,367.0,0.0
R,U,"[4, 10]",1.0,6.0,0.3502078056335449,1.9613771438598633,0.5208832956722198,36.0,368.0,0.0
B,L,"[4, 9]",1.0,7.0,0.23009896278381348,2.006314992904663,0.6770686103243717,36.0,369.0,0.0
R,U,"[3, 9]",1.0,8.0,0.23018908500671387,1.8839221000671387,0.5610497981942518,36.0,370.0,0.0
,,"(6, 6)",,,,,,,,
R,U,"[5, 6]",1.0,1.0,0.5579290390014648,2.4506990909576416,0.2952067862603058,37.0,371.0,0.0
Y,R,"[5, 7]",1.0,2.0,0.5037841796875,2.233783006668091,0.6453209332274324,37.0,372.0,0.0
Y,R,"[5, 8]",1.0,3.0,0.25353312492370605,1.6622300148010254,0.3245228363706603,37.0,373.0,0.0
G,D,"[6, 8]",1.0,4.0,0.2706789970397949,2.063750982284546,0.704498592680769,37.0,374.0,0.0
Y,R,"[6, 9]",1.0,5.0,0.4138360023498535,1.7987899780273438,0.2869838320433907,37.0,375.0,0.0
Y,R,"[6, 10]",1.0,6.0,0.2666761875152588,1.6345300674438477,0.2713847525667234,37.0,376.0,0.0
R,U,"[5, 10]",1.0,7.0,0.5031230449676514,2.199497938156128,0.603767408534738,37.0,377.0,0.0
R,U,"[4, 10]",1.0,8.0,0.20549583435058594,1.864366054534912,0.5514360982876013,37.0,378.0,0.0
B,L,"[4, 9]",1.0,9.0,0.3589198589324951,1.8326938152313232,0.3676878345231706,37.0,379.0,0.0
R,U,"[3, 9]",1.0,10.0,0.3615429401397705,1.7750968933105469,0.3093629271938719,37.0,380.0,0.0
,,"(6, 6)",,,,,,,,
R,U,"[5, 6]",1.0,1.0,0.5047698020935059,2.6973519325256348,0.5397395372573219,38.0,381.0,0.0
Y,R,"[5, 7]",1.0,2.0,0.2311108112335205,1.8662168979644775,0.539093187980531,38.0,382.0,0.0
Y,R,"[5, 8]",1.0,3.0,0.2511789798736572,1.8312339782714844,0.4872243129487496,38.0,383.0,0.0
G,D,"[6, 8]",1.0,4.0,0.18749213218688965,1.9946331977844238,0.7148376302320935,38.0,384.0,0.0
Y,R,"[6, 9]",1.0,5.0,0.20668411254882812,1.7341079711914062,0.43245127663054655,38.0,385.0,0.0
Y,R,"[6, 10]",1.0,6.0,0.4334421157836914,1.973395824432373,0.4390596808800957,38.0,386.0,0.0
R,U,"[5, 10]",1.0,7.0,0.30263495445251465,1.8750250339508057,0.4807129650298157,38.0,387.0,0.0
R,U,"[4, 10]",1.0,8.0,0.21334099769592285,1.8832411766052246,0.5638532698170373,38.0,388.0,0.0
B,L,"[4, 9]",1.0,9.0,0.17330098152160645,1.9504289627075195,0.6640921253289673,38.0,389.0,0.0
R,U,"[3, 9]",1.0,10.0,0.20816779136657715,1.586003065109253,0.2671676422769311,38.0,390.0,0.0
,,"(6, 6)",,,,,,,,
R,U,"[5, 6]",1.0,1.0,0.5165469646453857,2.2606301307678223,0.31090938856329786,39.0,391.0,0.0
Y,R,"[5, 7]",1.0,2.0,0.32248711585998535,2.0095701217651367,0.5869240188763011,39.0,392.0,0.0
Y,R,"[5, 8]",-1.0,2.0,0.09575295448303223,5.60879111289978,0.3789618832439634,39.0,393.0,0.0
G,D,"[6, 8]",1.0,3.0,0.25372791290283203,2.0445170402526855,0.7065304772955077,39.0,394.0,0.0
Y,R,"[6, 9]",1.0,4.0,0.19471096992492676,2.0026681423187256,0.708980181235975,39.0,395.0,0.0
Y,R,"[6, 10]",-2.0,4.0,1.0898118019104004,2.7393860816955566,0.6150768439084839,39.0,396.0,0.0
R,U,"[5, 10]",1.0,5.0,0.23478317260742188,1.9321179389953613,0.5972600715429294,39.0,397.0,0.0
R,U,"[4, 10]",1.0,6.0,0.19727087020874023,1.725027084350586,0.4222830512524745,39.0,398.0,0.0
B,L,"[4, 9]",1.0,7.0,0.2695310115814209,2.036367893218994,0.6751181631659027,39.0,399.0,0.0
R,U,"[3, 9]",1.0,8.0,0.24756097793579102,1.7864749431610107,0.44509027796592815,39.0,400.0,0.0
,,"(6, 6)",,,,,,,,
R,U,"[5, 6]",1.0,1.0,0.5943429470062256,2.7807228565216064,0.6420733831816696,40.0,401.0,0.0
Y,R,"[5, 7]",1.0,2.0,0.24357104301452637,1.6605868339538574,0.3195819093569428,40.0,402.0,0.0
Y,R,"[5, 8]",1.0,3.0,0.3057410717010498,1.9549579620361328,0.5409406387482896,40.0,403.0,0.0
G,D,"[6, 8]",1.0,4.0,0.2948920726776123,2.023131847381592,0.6306110450207578,40.0,404.0,0.0
Y,R,"[6, 9]",1.0,5.0,0.2533559799194336,1.664625883102417,0.31211187493926673,40.0,405.0,0.0
Y,R,"[6, 10]",1.0,6.0,0.3736379146575928,2.1895740032196045,0.7345890293591857,40.0,406.0,0.0
R,U,"[5, 10]",1.0,7.0,0.27564001083374023,1.9302988052368164,0.5484235240769092,40.0,407.0,0.0
R,U,"[4, 10]",1.0,8.0,0.3029651641845703,2.1145589351654053,0.7126562596372668,40.0,408.0,0.0
B,L,"[4, 9]",1.0,9.0,0.25119495391845703,1.8579838275909424,0.5042542636613729,40.0,409.0,0.0
R,U,"[3, 9]",1.0,10.0,0.24991083145141602,2.071415901184082,0.7253256493063269,40.0,410.0,0.0
,,"(6, 6)",,,,,,,,
R,U,"[5, 6]",1.0,1.0,0.4451789855957031,2.606637954711914,0.7152453088157105,41.0,411.0,0.0
Y,R,"[5, 7]",1.0,2.0,0.3500359058380127,2.1171350479125977,0.6656772483716111,41.0,412.0,0.0
Y,R,"[5, 8]",1.0,3.0,0.2012801170349121,1.6836769580841064,0.38279640425195716,41.0,413.0,0.0
Y,R,"[5, 9]",0.0,3.0,0.35773611068725586,2.1264989376068115,0.6589699819936121,41.0,414.0,0.0
Y,R,"[5, 10]",1.0,4.0,0.5391409397125244,2.1126461029052734,0.4717351194024333,41.0,415.0,0.0
Y,R,"[5, 11]",0.0,4.0,0.24338889122009277,1.8237040042877197,0.47881116981657146,41.0,416.0,0.0
R,U,"[4, 11]",0.0,4.0,0.2386331558227539,1.7648658752441406,0.443679050901128,41.0,417.0,0.0
B,L,"[4, 10]",1.0,5.0,0.23809099197387695,1.9437880516052246,0.6205146154283938,41.0,418.0,0.0
B,L,"[4, 9]",1.0,6.0,0.2338700294494629,1.843778133392334,0.514335371546109,41.0,419.0,0.0
R,U,"[3, 9]",1.0,7.0,0.3379099369049072,2.01806902885437,0.5825212754112392,41.0,420.0,0.0
,,"(6, 6)",,,,,,,,
R,U,"[5, 6]",1.0,1.0,0.5910980701446533,3.3189280033111572,0.25128593741287636,42.0,421.0,0.0
Y,R,"[5, 7]",1.0,2.0,0.453510046005249,2.2765250205993652,0.7271783960731968,42.0,422.0,0.0
Y,R,"[5, 8]",1.0,3.0,0.23180913925170898,1.6994960308074951,0.3769344841223263,42.0,423.0,0.0
G,D,"[6, 8]",1.0,4.0,0.2510380744934082,1.9452588558197021,0.6053999831886858,42.0,424.0,0.0
Y,R,"[6, 9]",1.0,5.0,0.3177669048309326,1.6780548095703125,0.2670506345632107,42.0,425.0,0.0
Y,R,"[6, 10]",1.0,6.0,0.3663599491119385,1.89323091506958,0.42682754319005,42.0,426.0,0.0
R,U,"[5, 10]",1.0,7.0,0.3855738639831543,1.8659589290618896,0.3926707149219178,42.0,427.0,0.0
R,U,"[4, 10]",1.0,8.0,0.33139896392822266,2.081530809402466,0.6571865628563496,42.0,428.0,0.0
B,L,"[4, 9]",1.0,9.0,0.2399740219116211,2.0136749744415283,0.6708322786056982,42.0,429.0,0.0
R,U,"[3, 9]",1.0,10.0,0.21117186546325684,2.0381579399108887,0.7258989934121496,42.0,430.0,0.0
,,"(6, 6)",,,,,,,,
R,U,"[5, 6]",1.0,1.0,0.5229029655456543,2.601471185684204,0.6270608871365531,43.0,431.0,0.0
Y,R,"[5, 7]",1.0,2.0,0.21402692794799805,1.7147150039672852,0.40855154807509736,43.0,432.0,0.0
Y,R,"[5, 8]",1.0,3.0,0.23715591430664062,1.7297499179840088,0.40493096288623653,43.0,433.0,0.0
G,D,"[6, 8]",1.0,4.0,0.2612190246582031,1.902601957321167,0.5407275108358292,43.0,434.0,0.0
Y,R,"[6, 9]",1.0,5.0,0.17517900466918945,1.8628301620483398,0.5866955509930248,43.0,435.0,0.0
Y,R,"[6, 10]",1.0,6.0,0.24605488777160645,2.0110440254211426,0.6643458384852298,43.0,436.0,0.0
R,U,"[5, 10]",1.0,7.0,0.19537901878356934,1.6600468158721924,0.3579156424005676,43.0,437.0,0.0
R,U,"[4, 10]",1.0,8.0,0.396373987197876,2.0972559452056885,0.6048762991158894,43.0,438.0,0.0
B,L,"[4, 9]",1.0,9.0,0.3735520839691162,1.9899029731750488,0.5118227520018521,43.0,439.0,0.0
R,U,"[3, 9]",1.0,10.0,0.2780039310455322,1.7344889640808105,0.36265565783144726,43.0,440.0,0.0
,,"(6, 6)",,,,,,,,
R,U,"[5, 6]",1.0,1.0,0.3953208923339844,2.902008056640625,0.331355705377618,44.0,441.0,0.0
Y,R,"[5, 7]",1.0,2.0,0.29889607429504395,1.7548389434814453,0.35266103001986376,44.0,442.0,0.0
Y,R,"[5, 8]",1.0,3.0,0.29791808128356934,2.1380038261413574,0.7402310063797974,44.0,443.0,0.0
G,D,"[6, 8]",1.0,4.0,0.21566200256347656,2.009974956512451,0.7004394987842861,44.0,444.0,0.0
Y,R,"[6, 9]",-1.0,4.0,0.002068042755126953,5.651102066040039,0.5179142380414834,44.0,445.0,0.0
Y,R,"[6, 10]",1.0,5.0,0.6166818141937256,2.3864119052886963,0.6708120401535891,44.0,446.0,0.0
R,U,"[5, 10]",1.0,6.0,0.3271059989929199,1.9624950885772705,0.5334773651863205,44.0,447.0,0.0
R,U,"[4, 10]",1.0,7.0,0.37761402130126953,1.9981639385223389,0.5148210065403563,44.0,448.0,0.0
B,L,"[4, 9]",1.0,8.0,0.28980088233947754,1.6980969905853271,0.29635736285882264,44.0,449.0,0.0
R,U,"[3, 9]",1.0,9.0,0.2666289806365967,1.6414639949798584,0.27130162786883816,44.0,450.0,0.0
,,"(6, 6)",,,,,,,,
R,U,"[5, 6]",1.0,1.0,0.44652295112609863,2.9908480644226074,0.5283431158135226,45.0,451.0,0.0
Y,R,"[5, 7]",1.0,2.0,0.17112016677856445,1.5277807712554932,0.2729797255863869,45.0,452.0,0.0
Y,R,"[5, 8]",1.0,3.0,0.2306060791015625,1.7709360122680664,0.4438315252340525,45.0,453.0,0.0
G,D,"[6, 8]",1.0,4.0,0.18483495712280273,1.5268199443817139,0.2540352287946569,45.0,454.0,0.0
Y,R,"[6, 9]",1.0,5.0,0.4691751003265381,1.885444164276123,0.322746134763159,45.0,455.0,0.0
Y,R,"[6, 10]",1.0,6.0,0.202103853225708,1.8834900856018066,0.5891755783374508,45.0,456.0,0.0
R,U,"[5, 10]",1.0,7.0,0.5229129791259766,1.9167120456695557,0.3061598617405157,45.0,457.0,0.0
R,U,"[4, 10]",1.0,8.0,0.3861382007598877,1.7307748794555664,0.25350039155303905,45.0,458.0,0.0
B,L,"[4, 9]",1.0,9.0,0.336514949798584,1.8907170295715332,0.46072628725049236,45.0,459.0,0.0
R,U,"[3, 9]",1.0,10.0,0.2713601589202881,1.8896541595458984,0.516915646777691,45.0,460.0,0.0
,,"(6, 6)",,,,,,,,
R,U,"[5, 6]",1.0,1.0,0.5497989654541016,2.5833840370178223,0.5835037971655852,46.0,461.0,0.0
Y,R,"[5, 7]",1.0,2.0,0.5789120197296143,2.023627996444702,0.3404632863942375,46.0,462.0,0.0
Y,R,"[5, 8]",1.0,3.0,0.34421682357788086,2.1656479835510254,0.7223810919596761,46.0,463.0,0.0
G,D,"[6, 8]",1.0,4.0,0.22353816032409668,1.9279930591583252,0.6004331970698316,46.0,464.0,0.0
Y,R,"[6, 9]",1.0,5.0,0.21115612983703613,1.8368968963623047,0.5207101903830389,46.0,465.0,0.0
Y,R,"[6, 10]",1.0,6.0,0.7696821689605713,2.4955859184265137,0.5994521493789153,46.0,466.0,0.0
R,U,"[5, 10]",1.0,7.0,0.313884973526001,1.6916999816894531,0.2747512160568388,46.0,467.0,0.0
R,U,"[4, 10]",1.0,8.0,0.28768491744995117,1.9834721088409424,0.6082324359603383,46.0,468.0,0.0
B,L,"[4, 9]",1.0,9.0,0.2702360153198242,2.1057181358337402,0.7467526968932572,46.0,469.0,0.0
R,U,"[3, 9]",1.0,10.0,0.4085829257965088,1.9876761436462402,0.46803130984691355,46.0,470.0,0.0
,,"(6, 6)",,,,,,,,
R,U,"[5, 6]",1.0,1.0,0.49152302742004395,2.6426749229431152,0.7435493339789754,47.0,471.0,0.0
Y,R,"[5, 7]",1.0,2.0,0.1456279754638672,1.7544989585876465,0.5149898083955138,47.0,472.0,0.0
Y,R,"[5, 8]",-1.0,2.0,0.07188606262207031,5.7039430141448975,0.48531256052393995,47.0,473.0,0.0
G,D,"[6, 8]",1.0,3.0,0.33083510398864746,1.9303429126739502,0.4989560584761106,47.0,474.0,0.0
Y,R,"[6, 9]",1.0,4.0,0.38947510719299316,2.193328857421875,0.6920313768914825,47.0,475.0,0.0
Y,R,"[6, 10]",1.0,5.0,0.4633021354675293,2.1678478717803955,0.6099201691872587,47.0,476.0,0.0
R,U,"[5, 10]",1.0,6.0,0.3044161796569824,1.9296269416809082,0.5395056956937485,47.0,477.0,0.0
R,U,"[4, 10]",1.0,7.0,0.36905813217163086,1.9504919052124023,0.48992905206287884,47.0,478.0,0.0
B,L,"[4, 9]",1.0,8.0,0.3700251579284668,2.1270079612731934,0.6668326989565703,47.0,479.0,0.0
R,U,"[3, 9]",1.0,9.0,0.32976198196411133,2.1425399780273438,0.7091274884906724,47.0,480.0,0.0
,,"(6, 6)",,,,,,,,
R,U,"[5, 6]",1.0,1.0,0.48015618324279785,2.58713698387146,0.563128040442431,48.0,481.0,0.0
Y,R,"[5, 7]",1.0,2.0,0.2675600051879883,1.6649370193481445,0.29478827672867447,48.0,482.0,0.0
Y,R,"[5, 8]",1.0,3.0,0.5312769412994385,2.206918954849243,0.5846785055580954,48.0,483.0,0.0
G,D,"[6, 8]",1.0,4.0,0.23052716255187988,2.0149080753326416,0.682896464349787,48.0,484.0,0.0
Y,R,"[6, 9]",1.0,5.0,0.258836030960083,1.7381458282470703,0.37114576998299226,48.0,485.0,0.0
Y,R,"[6, 10]",1.0,6.0,0.32910895347595215,2.0079150199890137,0.5788575269223737,48.0,486.0,0.0
R,U,"[5, 10]",1.0,7.0,0.2564051151275635,1.8150429725646973,0.4605733103468911,48.0,487.0,0.0
R,U,"[4, 10]",1.0,8.0,0.25574398040771484,1.8038010597229004,0.4476476160111276,48.0,488.0,0.0
B,L,"[4, 9]",1.0,9.0,0.25923800468444824,1.6406810283660889,0.2718561511767111,48.0,489.0,0.0
R,U,"[3, 9]",1.0,10.0,0.40572690963745117,2.06204891204834,0.5502545758186405,48.0,490.0,0.0
,,"(6, 6)",,,,,,,,
R,U,"[5, 6]",1.0,1.0,0.4853978157043457,2.4307100772857666,0.2977126050028512,49.0,491.0,0.0
Y,R,"[5, 7]",1.0,2.0,0.2946138381958008,1.8555569648742676,0.4530675497923766,49.0,492.0,0.0
Y,R,"[5, 8]",1.0,3.0,0.23863005638122559,1.8136210441589355,0.4500889716505556,49.0,493.0,0.0
G,D,"[6, 8]",1.0,4.0,0.2308340072631836,1.795654058456421,0.46242783893915634,49.0,494.0,0.0
Y,R,"[6, 9]",1.0,5.0,0.18653607368469238,1.5915229320526123,0.32049079392327984,49.0,495.0,0.0
Y,R,"[6, 10]",1.0,6.0,0.2572009563446045,1.704902172088623,0.3420970522282443,49.0,496.0,0.0
R,U,"[5, 10]",1.0,7.0,0.42859387397766113,1.9768619537353516,0.4521241048996028,49.0,497.0,0.0
B,L,"[5, 9]",0.0,7.0,0.32123398780822754,2.044857978820801,0.6300682939455601,49.0,498.0,0.0
B,L,"[5, 8]",0.0,7.0,0.23717093467712402,2.022373914718628,0.6522832085656265,49.0,499.0,0.0
B,L,"[5, 7]",0.0,7.0,0.10149693489074707,1.8868448734283447,0.6890387553952795,49.0,500.0,0.0
,,"(6, 6)",,,,,,,,
R,U,"[5, 6]",1.0,1.0,0.29326391220092773,3.2747139930725098,0.3475277099224307,50.0,501.0,0.0
Y,R,"[5, 7]",1.0,2.0,0.2426891326904297,1.6209449768066406,0.26822042202799423,50.0,502.0,0.0
Y,R,"[5, 8]",1.0,3.0,0.22723984718322754,1.6231789588928223,0.2913216875147916,50.0,503.0,0.0
G,D,"[6, 8]",1.0,4.0,0.27228713035583496,2.059937000274658,0.6845518229398595,50.0,504.0,0.0
Y,R,"[6, 9]",1.0,5.0,0.21855807304382324,1.8574838638305664,0.541698278820843,50.0,505.0,0.0
Y,R,"[6, 10]",-1.0,5.0,0.08354997634887695,5.623715877532959,0.41544885017368877,50.0,506.0,0.0
R,U,"[5, 10]",-1.0,5.0,0.03165102005004883,5.516764879226685,0.348711754599147,50.0,507.0,0.0
R,U,"[4, 10]",1.0,6.0,0.2913188934326172,2.0094709396362305,0.6078102955116838,50.0,508.0,0.0
B,L,"[4, 9]",1.0,7.0,0.23261594772338867,1.867060899734497,0.5415413048386246,50.0,509.0,0.0
R,U,"[3, 9]",1.0,8.0,0.21014809608459473,1.9821960926055908,0.6736188223357582,50.0,510.0,0.0
,,"(6, 6)",,,,,,,,
R,U,"[5, 6]",1.0,1.0,0.542518138885498,2.7884278297424316,0.5620321908439522,51.0,511.0,0.0
Y,R,"[5, 7]",1.0,2.0,0.3919210433959961,2.0872459411621094,0.5992445136966945,51.0,512.0,0.0
Y,R,"[5, 8]",1.0,3.0,0.3268749713897705,2.162092924118042,0.7281833134299907,51.0,513.0,0.0
G,D,"[6, 8]",1.0,4.0,0.20984315872192383,1.6256990432739258,0.32042172514252343,51.0,514.0,0.0
Y,R,"[6, 9]",1.0,5.0,0.49414896965026855,2.300554037094116,0.7038809767605745,51.0,515.0,0.0
Y,R,"[6, 10]",1.0,6.0,0.18912386894226074,1.9179439544677734,0.6220273945594368,51.0,516.0,0.0
R,U,"[5, 10]",1.0,7.0,0.20788216590881348,1.658492088317871,0.34719647357798805,51.0,517.0,0.0
R,U,"[4, 10]",1.0,8.0,0.29305601119995117,1.8868229389190674,0.48384845052063463,51.0,518.0,0.0
B,L,"[4, 9]",1.0,9.0,0.2739880084991455,2.0299839973449707,0.6470444183108979,51.0,519.0,0.0
R,U,"[3, 9]",1.0,10.0,0.26731300354003906,1.8693549633026123,0.49979916376776834,51.0,520.0,0.0
,,"(6, 6)",,,,,,,,
R,U,"[5, 6]",1.0,1.0,0.22316479682922363,2.5637688636779785,0.5467487693476986,52.0,521.0,0.0
Y,R,"[5, 7]",1.0,2.0,0.22190284729003906,1.812366008758545,0.49240258636078144,52.0,522.0,0.0
Y,R,"[5, 8]",1.0,3.0,0.5269570350646973,1.9032580852508545,0.279173953493375,52.0,523.0,0.0
G,D,"[6, 8]",1.0,4.0,0.4278531074523926,2.0006871223449707,0.4794573211628905,52.0,524.0,0.0
Y,R,"[6, 9]",1.0,5.0,0.25017619132995605,1.9822781085968018,0.6283633067898242,52.0,525.0,0.0
Y,R,"[6, 10]",1.0,6.0,0.19448304176330566,1.585874080657959,0.29767482925747174,52.0,526.0,0.0
R,U,"[5, 10]",1.0,7.0,0.692573070526123,2.3079280853271484,0.5054433954934839,52.0,527.0,0.0
R,U,"[4, 10]",1.0,8.0,0.5964000225067139,2.2456769943237305,0.550999404661253,52.0,528.0,0.0
B,L,"[4, 9]",1.0,9.0,0.3344249725341797,1.8844950199127197,0.4522028740070383,52.0,529.0,0.0
R,U,"[3, 9]",1.0,10.0,0.84511399269104,2.5280208587646484,0.580079729574942,52.0,530.0,0.0
,,"(6, 6)",,,,,,,,
R,U,"[5, 6]",1.0,1.0,0.3629121780395508,3.188178062438965,0.5347155461910468,53.0,531.0,0.0
Y,R,"[5, 7]",1.0,2.0,0.1433579921722412,1.6252479553222656,0.37671561581812774,53.0,532.0,0.0
Y,R,"[5, 8]",1.0,3.0,0.4556159973144531,2.0260298252105713,0.469233674710645,53.0,533.0,0.0
G,D,"[6, 8]",1.0,4.0,0.21425700187683105,1.9999148845672607,0.6855833100701706,53.0,534.0,0.0
Y,R,"[6, 9]",1.0,5.0,0.26056385040283203,1.791283130645752,0.42717252936295014,53.0,535.0,0.0
Y,R,"[6, 10]",1.0,6.0,0.29184913635253906,1.864346981048584,0.474688591381983,53.0,536.0,0.0
R,U,"[5, 10]",1.0,7.0,0.2841000556945801,1.9687738418579102,0.5933693494865543,53.0,537.0,0.0
R,U,"[4, 10]",1.0,8.0,0.1525740623474121,1.6799778938293457,0.43993537783377756,53.0,538.0,0.0
B,L,"[4, 9]",1.0,9.0,0.3953731060028076,2.2161359786987305,0.7224837823441238,53.0,539.0,0.0
R,U,"[3, 9]",1.0,10.0,0.13069486618041992,1.7658600807189941,0.5383989719805213,53.0,540.0,0.0
,,"(6, 6)",,,,,,,,
R,U,"[5, 6]",1.0,1.0,0.5882580280303955,2.7980940341949463,0.48653761563783626,54.0,541.0,0.0
Y,R,"[5, 7]",1.0,2.0,0.9215540885925293,2.391796827316284,0.3616070833803908,54.0,542.0,0.0
Y,R,"[5, 8]",1.0,3.0,0.5043840408325195,2.139488935470581,0.5509280595594934,54.0,543.0,0.0
G,D,"[6, 8]",1.0,4.0,0.2593660354614258,2.0858991146087646,0.7198822796173912,54.0,544.0,0.0
Y,R,"[6, 9]",1.0,5.0,0.23553895950317383,1.8750090599060059,0.545074559415091,54.0,545.0,0.0
Y,R,"[6, 10]",1.0,6.0,0.486163854598999,2.0048680305480957,0.4331752196412026,54.0,546.0,0.0
R,U,"[5, 10]",1.0,7.0,0.5065188407897949,2.11313796043396,0.4962251836816535,54.0,547.0,0.0
R,U,"[4, 10]",1.0,8.0,0.3417849540710449,1.842041015625,0.3883000715040402,54.0,548.0,0.0
R,U,"[3, 10]",0.0,8.0,0.3735949993133545,1.9850969314575195,0.5067372118356042,54.0,549.0,0.0
R,U,"[2, 10]",0.0,8.0,0.31008100509643555,1.8741281032562256,0.46428830421123257,54.0,550.0,0.0
,,"(6, 6)",,,,,,,,
R,U,"[5, 6]",1.0,1.0,0.503605842590332,3.2567250728607178,0.703817858088313,55.0,551.0,0.0
Y,R,"[5, 7]",1.0,2.0,0.29942893981933594,1.6718180179595947,0.27604837620616535,55.0,552.0,0.0
Y,R,"[5, 8]",1.0,3.0,0.44495606422424316,2.2811808586120605,0.7399126545714778,55.0,553.0,0.0
G,D,"[6, 8]",1.0,4.0,0.2706270217895508,1.6705999374389648,0.31072478330335795,55.0,554.0,0.0
Y,R,"[6, 9]",1.0,5.0,0.24208998680114746,1.6083829402923584,0.26923363006208373,55.0,555.0,0.0
Y,R,"[6, 10]",1.0,6.0,0.4405200481414795,2.2763330936431885,0.728386135427991,55.0,556.0,0.0
R,U,"[5, 10]",1.0,7.0,0.2805190086364746,1.6971487998962402,0.3260175814109963,55.0,557.0,0.0
R,U,"[4, 10]",1.0,8.0,0.5155069828033447,2.007188081741333,0.39968188588877734,55.0,558.0,0.0
B,L,"[4, 9]",1.0,9.0,0.4347708225250244,2.038393020629883,0.5044846624620167,55.0,559.0,0.0
R,U,"[3, 9]",1.0,10.0,0.31159496307373047,1.8880739212036133,0.4758418924641704,55.0,560.0,0.0
,,"(6, 6)",,,,,,,,
R,U,"[5, 6]",1.0,1.0,0.41606807708740234,2.3426458835601807,0.418594667575896,56.0,561.0,0.0
Y,R,"[5, 7]",1.0,2.0,0.2823140621185303,1.9324989318847656,0.5507867532618018,56.0,562.0,0.0
Y,R,"[5, 8]",-1.0,2.0,0.018989086151123047,5.40449595451355,0.2554277649205962,56.0,563.0,0.0
G,D,"[6, 8]",1.0,3.0,0.3626987934112549,1.8738219738006592,0.4124428087463939,56.0,564.0,0.0
Y,R,"[6, 9]",1.0,4.0,0.3378901481628418,1.8196630477905273,0.382030586869466,56.0,565.0,0.0
Y,R,"[6, 10]",1.0,5.0,0.32958292961120605,2.133244037628174,0.6981440029395093,56.0,566.0,0.0
R,U,"[5, 10]",1.0,6.0,0.22416305541992188,1.7011430263519287,0.3662481293760877,56.0,567.0,0.0
R,U,"[4, 10]",1.0,7.0,0.3661630153656006,1.8282699584960938,0.3611095124602175,56.0,568.0,0.0
B,L,"[4, 9]",1.0,8.0,0.39249205589294434,2.1503570079803467,0.6611049402812967,56.0,569.0,0.0
R,U,"[3, 9]",1.0,9.0,0.30944395065307617,1.7376081943511963,0.3324206321796535,56.0,570.0,0.0
,,"(6, 6)",,,,,,,,
R,U,"[5, 6]",1.0,1.0,0.5429461002349854,2.706501007080078,0.5052498070901359,57.0,571.0,0.0
Y,R,"[5, 7]",1.0,2.0,0.35669589042663574,2.1516008377075195,0.6899462396804923,57.0,572.0,0.0
Y,R,"[5, 8]",1.0,3.0,0.2043910026550293,1.9344220161437988,0.6243530930670331,57.0,573.0,0.0
G,D,"[6, 8]",1.0,4.0,0.317950963973999,2.0470480918884277,0.6381875811611456,57.0,574.0,0.0
Y,R,"[6, 9]",1.0,5.0,0.2066059112548828,2.037956953048706,0.7258890225932331,57.0,575.0,0.0
Y,R,"[6, 10]",1.0,6.0,0.3185710906982422,1.721534013748169,0.31442210676575844,57.0,576.0,0.0
R,U,"[5, 10]",-2.0,6.0,1.03519606590271,2.3206570148468018,0.251685431465033,57.0,577.0,0.0
R,U,"[4, 10]",1.0,7.0,0.3455071449279785,2.096703052520752,0.6478953887967633,57.0,578.0,0.0
B,L,"[4, 9]",1.0,8.0,0.547529935836792,2.2978830337524414,0.645726614604714,57.0,579.0,0.0
R,U,"[3, 9]",1.0,9.0,0.34341001510620117,2.1563119888305664,0.7019131948724342,57.0,580.0,0.0
,,"(6, 6)",,,,,,,,
R,U,"[5, 6]",1.0,1.0,0.5364120006561279,3.6068668365478516,0.25905975440104795,58.0,581.0,0.0
Y,R,"[5, 7]",1.0,2.0,0.3156721591949463,1.6990470886230469,0.29144552276413976,58.0,582.0,0.0
Y,R,"[5, 8]",1.0,3.0,0.2422928810119629,1.811150074005127,0.4689536644769598,58.0,583.0,0.0
G,D,"[6, 8]",1.0,4.0,0.38852810859680176,2.2066078186035156,0.692035823500198,58.0,584.0,0.0
Y,R,"[6, 9]",-1.0,4.0,0.028021812438964844,5.670754909515381,0.5295800619813136,58.0,585.0,0.0
Y,R,"[6, 10]",1.0,5.0,0.32341814041137695,1.9677479267120361,0.5305094251313908,58.0,586.0,0.0
R,U,"[5, 10]",1.0,6.0,0.16340994834899902,1.965691089630127,0.6961095710041556,58.0,587.0,0.0
R,U,"[4, 10]",-1.0,6.0,0.03308892250061035,5.727108001708984,0.556228603291753,58.0,588.0,0.0
B,L,"[4, 9]",1.0,7.0,0.3160579204559326,2.036508798599243,0.6258551152876862,58.0,589.0,0.0
R,U,"[3, 9]",1.0,8.0,0.30910801887512207,1.866729974746704,0.45938819955163274,58.0,590.0,0.0
,,"(6, 6)",,,,,,,,
R,U,"[5, 6]",1.0,1.0,0.6962261199951172,3.007337808609009,0.35013750428789364,59.0,591.0,0.0
Y,R,"[5, 7]",1.0,2.0,0.5353291034698486,2.3517251014709473,0.7180380124158725,59.0,592.0,0.0
Y,R,"[5, 8]",1.0,3.0,0.13916683197021484,1.481990098953247,0.2505197589112516,59.0,593.0,0.0
G,D,"[6, 8]",1.0,4.0,0.378978967666626,2.220440149307251,0.7369740234594782,59.0,594.0,0.0
Y,R,"[6, 9]",1.0,5.0,0.31510210037231445,2.12150502204895,0.7084462613557383,59.0,595.0,0.0
Y,R,"[6, 10]",1.0,6.0,0.3414919376373291,1.9749870300292969,0.5335268293226312,59.0,596.0,0.0
R,U,"[5, 10]",-1.0,6.0,0.04240298271179199,5.68328595161438,0.5167835354204511,59.0,597.0,0.0
R,U,"[4, 10]",1.0,7.0,0.38495588302612305,1.9342610836029053,0.4508848503205332,59.0,598.0,0.0
B,L,"[4, 9]",1.0,8.0,0.3984701633453369,1.8963990211486816,0.397384761636271,59.0,599.0,0.0
R,U,"[3, 9]",1.0,9.0,0.29526615142822266,1.7712650299072266,0.368513014958847,59.0,600.0,0.0
,,"(6, 6)",,,,,,,,
R,U,"[5, 6]",1.0,1.0,0.3888881206512451,2.1605679988861084,0.29584558115795945,60.0,601.0,0.0
Y,R,"[5, 7]",1.0,2.0,0.3676121234893799,1.731684923171997,0.2774581665528942,60.0,602.0,0.0
Y,R,"[5, 8]",1.0,3.0,0.3193550109863281,1.7775230407714844,0.3715982287325647,60.0,603.0,0.0
G,D,"[6, 8]",1.0,4.0,0.3112921714782715,2.0538508892059326,0.6417303503986864,60.0,604.0,0.0
Y,R,"[6, 9]",1.0,5.0,0.34381794929504395,2.1663849353790283,0.7244114309094815,60.0,605.0,0.0
Y,R,"[6, 10]",1.0,6.0,0.24634194374084473,1.7210559844970703,0.37917059720543766,60.0,606.0,0.0
R,U,"[5, 10]",1.0,7.0,0.455765962600708,2.0335941314697266,0.46265688883353207,60.0,607.0,0.0
R,U,"[4, 10]",1.0,8.0,0.38739514350891113,1.807145118713379,0.3200347687057842,60.0,608.0,0.0
B,L,"[4, 9]",1.0,9.0,0.34320592880249023,1.7562470436096191,0.30949034571390205,60.0,609.0,0.0
R,U,"[3, 9]",1.0,10.0,0.3183431625366211,2.1149609088897705,0.7072040916980277,60.0,610.0,0.0
,,"(6, 6)",,,,,,,,
R,U,"[5, 6]",1.0,1.0,0.3696610927581787,2.7122960090637207,0.7198956701356263,61.0,611.0,0.0
Y,R,"[5, 7]",1.0,2.0,0.22557902336120605,2.0218849182128906,0.691364498975874,61.0,612.0,0.0
Y,R,"[5, 8]",1.0,3.0,0.1912691593170166,1.8671391010284424,0.5752824387893125,61.0,613.0,0.0
G,D,"[6, 8]",1.0,4.0,0.2715568542480469,1.863145112991333,0.5050439334252779,61.0,614.0,0.0
Y,R,"[6, 9]",1.0,5.0,0.23198699951171875,1.8635711669921875,0.535139450265472,61.0,615.0,0.0
Y,R,"[6, 10]",1.0,6.0,0.25015997886657715,2.090723991394043,0.7423466681386989,61.0,616.0,0.0
R,U,"[5, 10]",1.0,7.0,0.20476794242858887,1.9336988925933838,0.626018570050406,61.0,617.0,0.0
R,U,"[4, 10]",1.0,8.0,0.32150912284851074,1.8447108268737793,0.4374686736860335,61.0,618.0,0.0
B,L,"[4, 9]",1.0,9.0,0.3162558078765869,2.1117351055145264,0.6989809870101303,61.0,619.0,0.0
R,U,"[3, 9]",1.0,10.0,0.3146510124206543,1.7396669387817383,0.3222174834700367,61.0,620.0,0.0
,,"(6, 6)",,,,,,,,
R,U,"[5, 6]",1.0,1.0,0.5702059268951416,2.679180145263672,0.7010595071086837,62.0,621.0,0.0
Y,R,"[5, 7]",1.0,2.0,0.26897597312927246,1.617307186126709,0.25199680841814615,62.0,622.0,0.0
Y,R,"[5, 8]",1.0,3.0,0.5943019390106201,2.147555112838745,0.4492583132885809,62.0,623.0,0.0
G,D,"[6, 8]",1.0,4.0,0.30543088912963867,1.7268080711364746,0.32612913358510737,62.0,624.0,0.0
Y,R,"[6, 9]",1.0,5.0,0.4305388927459717,2.1533851623535156,0.6291554960934651,62.0,625.0,0.0
Y,R,"[6, 10]",1.0,6.0,0.3218390941619873,2.0463640689849854,0.6087961206765107,62.0,626.0,0.0
R,U,"[5, 10]",1.0,7.0,0.41264796257019043,2.0567550659179688,0.5489626588963292,62.0,627.0,0.0
R,U,"[4, 10]",1.0,8.0,0.33600282669067383,1.9128990173339844,0.478499226330803,62.0,628.0,0.0
B,L,"[4, 9]",1.0,9.0,0.3477458953857422,1.9565019607543945,0.5182803714280066,62.0,629.0,0.0
R,U,"[3, 9]",1.0,10.0,0.3780829906463623,2.0410380363464355,0.5591918227815837,62.0,630.0,0.0
,,"(6, 6)",,,,,,,,
R,U,"[5, 6]",1.0,1.0,0.5329439640045166,2.4207000732421875,0.4965749963190637,63.0,631.0,0.0
Y,R,"[5, 7]",1.0,2.0,0.14037609100341797,1.791722059249878,0.5380459248942134,63.0,632.0,0.0
Y,R,"[5, 8]",1.0,3.0,0.3282959461212158,2.1615209579467773,0.7327125088141637,63.0,633.0,0.0
G,D,"[6, 8]",1.0,4.0,0.3853871822357178,1.7423460483551025,0.25885250151542705,63.0,634.0,0.0
G,D,"[7, 8]",-2.0,4.0,1.0461950302124023,2.5661070346832275,0.4913715319654959,63.0,635.0,0.0
B,L,"[7, 7]",0.0,4.0,0.5882141590118408,2.1997480392456055,0.5076366355004616,63.0,636.0,0.0
R,U,"[6, 7]",0.0,4.0,0.31320810317993164,2.1103808879852295,0.7009971734800724,63.0,637.0,0.0
R,U,"[5, 7]",0.0,4.0,0.13051104545593262,1.7205498218536377,0.4884093836640874,63.0,638.0,0.0
R,U,"[4, 7]",0.0,4.0,0.31280088424682617,1.911815881729126,0.5001572279388953,63.0,639.0,0.0
R,U,"[3, 7]",0.0,4.0,0.24405407905578613,2.0386250019073486,0.6885782965158469,63.0,640.0,0.0
,,"(6, 6)",,,,,,,,
R,U,"[5, 6]",1.0,1.0,0.42749595642089844,2.7415239810943604,0.31360732203971364,64.0,641.0,0.0
Y,R,"[5, 7]",1.0,2.0,0.5376307964324951,2.0540709495544434,0.41762286582500047,64.0,642.0,0.0
Y,R,"[5, 8]",1.0,3.0,0.36470603942871094,2.203342914581299,0.7375782164028506,64.0,643.0,0.0
G,D,"[6, 8]",-1.0,3.0,0.05584907531738281,5.453744888305664,0.2743916099810373,64.0,644.0,0.0
Y,R,"[6, 9]",1.0,4.0,0.2324988842010498,1.6723880767822266,0.34692085111782717,64.0,645.0,0.0
Y,R,"[6, 10]",1.0,5.0,0.27315497398376465,2.1234290599823,0.7363445988472812,64.0,646.0,0.0
R,U,"[5, 10]",-1.0,5.0,0.043569087982177734,5.880035161972046,0.6999379621405979,64.0,647.0,0.0
R,U,"[4, 10]",1.0,6.0,0.18116402626037598,1.5781800746917725,0.29487620365893913,64.0,648.0,0.0
B,L,"[4, 9]",1.0,7.0,0.3236241340637207,1.7763631343841553,0.37094842758945923,64.0,649.0,0.0
R,U,"[3, 9]",1.0,8.0,0.33271217346191406,1.6990420818328857,0.2701045582525841,64.0,650.0,0.0
,,"(6, 6)",,,,,,,,
R,U,"[5, 6]",1.0,1.0,0.5108559131622314,2.6861321926116943,0.7058764901528436,65.0,651.0,0.0
Y,R,"[5, 7]",1.0,2.0,0.2666499614715576,1.766232967376709,0.405646917718236,65.0,652.0,0.0
Y,R,"[5, 8]",1.0,3.0,0.3170890808105469,1.9261798858642578,0.5148974391658235,65.0,653.0,0.0
G,D,"[6, 8]",1.0,4.0,0.17648720741271973,1.9478330612182617,0.6624886200767637,65.0,654.0,0.0
Y,R,"[6, 9]",1.0,5.0,0.24947810173034668,1.902446985244751,0.5482947272357801,65.0,655.0,0.0
Y,R,"[6, 10]",1.0,6.0,0.23956704139709473,2.0877180099487305,0.7357806448859734,65.0,656.0,0.0
R,U,"[5, 10]",1.0,7.0,0.12314009666442871,1.6738440990447998,0.44320179142655447,65.0,657.0,0.0
R,U,"[4, 10]",1.0,8.0,0.3384261131286621,1.8506622314453125,0.41060408241815943,65.0,658.0,0.0
B,L,"[4, 9]",1.0,9.0,0.3628208637237549,1.8603570461273193,0.40429747467764404,65.0,659.0,0.0
R,U,"[3, 9]",1.0,10.0,0.4264240264892578,1.9469761848449707,0.41779378569826064,65.0,660.0,0.0
,,"(6, 6)",,,,,,,,
R,U,"[5, 6]",1.0,1.0,0.3605320453643799,2.2377350330352783,0.2556281506154419,66.0,661.0,0.0
Y,R,"[5, 7]",1.0,2.0,0.3653111457824707,1.762990951538086,0.30176567318042674,66.0,662.0,0.0
G,D,"[6, 7]",0.0,2.0,0.39702296257019043,2.0202109813690186,0.5216825646057793,66.0,663.0,0.0
G,D,"[7, 7]",0.0,2.0,0.3028988838195801,1.7942991256713867,0.39939595200064343,66.0,664.0,0.0
Y,R,"[7, 8]",0.0,2.0,0.31189799308776855,1.9117801189422607,0.49444334141502655,66.0,665.0,0.0
Y,R,"[7, 9]",0.0,2.0,0.5438809394836426,2.3049709796905518,0.6658109858506446,66.0,666.0,0.0
Y,R,"[7, 10]",0.0,2.0,0.10929203033447266,1.7364108562469482,0.5189954408680382,66.0,667.0,0.0
B,L,"[7, 9]",0.0,2.0,0.29421401023864746,2.1178460121154785,0.7199018517881468,66.0,668.0,0.0
B,L,"[7, 8]",0.0,2.0,0.21874403953552246,1.8618900775909424,0.5485645504387743,66.0,669.0,0.0
B,L,"[7, 7]",0.0,2.0,0.34639692306518555,1.7343239784240723,0.28299787882483357,66.0,670.0,0.0
,,"(6, 6)",,,,,,,,
R,U,"[5, 6]",1.0,1.0,0.46056199073791504,3.3944509029388428,0.3772228761286414,67.0,671.0,0.0
Y,R,"[5, 7]",1.0,2.0,0.24484491348266602,1.8683390617370605,0.5287676212501984,67.0,672.0,0.0
Y,R,"[5, 8]",1.0,3.0,0.2560110092163086,1.6720759868621826,0.31764736221613027,67.0,673.0,0.0
G,D,"[6, 8]",1.0,4.0,0.42587900161743164,1.8001158237457275,0.26781512228560667,67.0,674.0,0.0
Y,R,"[6, 9]",1.0,5.0,0.4705498218536377,2.1290340423583984,0.563033201994684,67.0,675.0,0.0
Y,R,"[6, 10]",1.0,6.0,0.292543888092041,1.8714790344238281,0.4680906022686446,67.0,676.0,0.0
R,U,"[5, 10]",1.0,7.0,0.4866199493408203,2.2776060104370117,0.6953072164212593,67.0,677.0,0.0
R,U,"[4, 10]",-1.0,7.0,0.07539916038513184,5.736346006393433,0.5314107760592934,67.0,678.0,0.0
B,L,"[4, 9]",1.0,8.0,0.30271196365356445,1.7059109210968018,0.30425079100359176,67.0,679.0,0.0
R,U,"[3, 9]",1.0,9.0,0.29195404052734375,1.7317509651184082,0.335766937327917,67.0,680.0,0.0
,,"(6, 6)",,,,,,,,
R,U,"[5, 6]",1.0,1.0,0.4040660858154297,2.0973007678985596,0.29976366321151404,68.0,681.0,0.0
Y,R,"[5, 7]",1.0,2.0,0.36046600341796875,2.0841400623321533,0.6171794144362591,68.0,682.0,0.0
Y,R,"[5, 8]",-1.0,2.0,0.021888017654418945,5.782952070236206,0.6329684394821424,68.0,683.0,0.0
G,D,"[6, 8]",1.0,3.0,0.2154829502105713,1.6274571418762207,0.3108900995387723,68.0,684.0,0.0
Y,R,"[6, 9]",1.0,4.0,0.48790788650512695,1.965149164199829,0.3923333190151303,68.0,685.0,0.0
Y,R,"[6, 10]",1.0,5.0,0.33510613441467285,2.1018900871276855,0.6772839841703704,68.0,686.0,0.0
R,U,"[5, 10]",1.0,6.0,0.22507095336914062,1.9823298454284668,0.6595545708179074,68.0,687.0,0.0
R,U,"[4, 10]",1.0,7.0,0.5278310775756836,2.2359538078308105,0.6122770373755557,68.0,688.0,0.0
B,L,"[4, 9]",1.0,8.0,0.2995150089263916,1.6526238918304443,0.26506392411604424,68.0,689.0,0.0
R,U,"[3, 9]",1.0,9.0,0.611720085144043,2.3341588973999023,0.6155720543186214,68.0,690.0,0.0
,,"(6, 6)",,,,,,,,
R,U,"[5, 6]",1.0,1.0,0.3790450096130371,2.575579881668091,0.5909510157115085,69.0,691.0,0.0
Y,R,"[5, 7]",1.0,2.0,0.2129659652709961,2.02384090423584,0.7146981769474132,69.0,692.0,0.0
Y,R,"[5, 8]",1.0,3.0,0.25333189964294434,1.773982048034668,0.42219441219332604,69.0,693.0,0.0
G,D,"[6, 8]",1.0,4.0,0.38970184326171875,2.1059141159057617,0.611224937755442,69.0,694.0,0.0
Y,R,"[6, 9]",1.0,5.0,0.24450397491455078,1.713975191116333,0.37541062000146047,69.0,695.0,0.0
Y,R,"[6, 10]",1.0,6.0,0.6210188865661621,2.0531671047210693,0.32858722342734215,69.0,696.0,0.0
R,U,"[5, 10]",1.0,7.0,0.750964879989624,2.4132769107818604,0.5747710917089901,69.0,697.0,0.0
R,U,"[4, 10]",1.0,8.0,0.4940989017486572,1.9538030624389648,0.36194731000459296,69.0,698.0,0.0
B,L,"[4, 9]",1.0,9.0,0.4931190013885498,2.229789972305298,0.6415347064218867,69.0,699.0,0.0
R,U,"[3, 9]",1.0,10.0,0.23368191719055176,1.7930269241333008,0.46806208975050045,69.0,700.0,0.0
,,"(6, 6)",,,,,,,,
R,U,"[5, 6]",-2.0,0.0,2.0193769931793213,4.859267950057983,0.5602960765280479,70.0,701.0,0.0
Y,R,"[5, 7]",1.0,1.0,0.49360203742980957,1.8986639976501465,0.30913186247590896,70.0,702.0,0.0
Y,R,"[5, 8]",1.0,2.0,0.6016559600830078,2.343261957168579,0.652015918911967,70.0,703.0,0.0
G,D,"[6, 8]",1.0,3.0,0.25679802894592285,2.004760980606079,0.6400351374215622,70.0,704.0,0.0
Y,R,"[6, 9]",1.0,4.0,0.3175849914550781,1.8167309761047363,0.40696141836857597,70.0,705.0,0.0
Y,R,"[6, 10]",1.0,5.0,0.3479130268096924,1.8953359127044678,0.45217403693168984,70.0,706.0,0.0
R,U,"[5, 10]",1.0,6.0,0.3380618095397949,1.9923272132873535,0.5609629630093187,70.0,707.0,0.0
R,U,"[4, 10]",1.0,7.0,0.3944408893585205,2.0708699226379395,0.5818112039243357,70.0,708.0,0.0
B,L,"[4, 9]",1.0,8.0,0.3850560188293457,1.921226978302002,0.43642784418390085,70.0,709.0,0.0
R,U,"[3, 9]",1.0,9.0,0.37526988983154297,1.7984998226165771,0.3182896959487645,70.0,710.0,0.0
,,"(6, 6)",,,,,,,,
R,U,"[5, 6]",1.0,1.0,0.5005788803100586,2.664499044418335,0.532537500849189,71.0,711.0,0.0
Y,R,"[5, 7]",1.0,2.0,0.27275896072387695,1.8347220420837402,0.4672697270899392,71.0,712.0,0.0
Y,R,"[5, 8]",1.0,3.0,0.37323689460754395,1.9523320198059082,0.4862596041942198,71.0,713.0,0.0
G,D,"[6, 8]",1.0,4.0,0.2552309036254883,1.9905750751495361,0.6266440215172152,71.0,714.0,0.0
Y,R,"[6, 9]",1.0,5.0,0.2468709945678711,1.7748420238494873,0.434814316802873,71.0,715.0,0.0
Y,R,"[6, 10]",1.0,6.0,0.4295358657836914,1.8563580513000488,0.3246164823823448,71.0,716.0,0.0
R,U,"[5, 10]",1.0,7.0,0.5125129222869873,2.1135270595550537,0.504517820878366,71.0,717.0,0.0
R,U,"[4, 10]",1.0,8.0,0.461406946182251,2.087599039077759,0.5253403764401136,71.0,718.0,0.0
B,L,"[4, 9]",1.0,9.0,0.35744810104370117,2.066840887069702,0.6087502395323898,71.0,719.0,0.0
R,U,"[3, 9]",1.0,10.0,0.27873897552490234,1.9115328788757324,0.5369357425687531,71.0,720.0,0.0
,,"(6, 6)",,,,,,,,
R,U,"[5, 6]",1.0,1.0,0.4048149585723877,2.6081700325012207,0.5451254798414493,72.0,721.0,0.0
Y,R,"[5, 7]",1.0,2.0,0.297011137008667,2.101824998855591,0.7133829728838607,72.0,722.0,0.0
Y,R,"[5, 8]",-1.0,2.0,0.02762317657470703,5.760036945343018,0.5899561608479984,72.0,723.0,0.0
G,D,"[6, 8]",1.0,3.0,0.43223094940185547,2.17333722114563,0.6465484266412682,72.0,724.0,0.0
Y,R,"[6, 9]",1.0,4.0,0.23183703422546387,1.7517809867858887,0.41516188048249464,72.0,725.0,0.0
Y,R,"[6, 10]",1.0,5.0,0.5467770099639893,2.25809383392334,0.6062414003740912,72.0,726.0,0.0
R,U,"[5, 10]",1.0,6.0,0.43691086769104004,2.032041072845459,0.5050859163712988,72.0,727.0,0.0
R,U,"[4, 10]",1.0,7.0,0.4044959545135498,2.010551929473877,0.5154987040588733,72.0,728.0,0.0
B,L,"[4, 9]",1.0,8.0,0.4129810333251953,2.0047190189361572,0.4868957127599149,72.0,729.0,0.0
R,U,"[3, 9]",1.0,9.0,0.4693939685821533,2.1912760734558105,0.6282058595738849,72.0,730.0,0.0
,,"(6, 6)",,,,,,,,
R,U,"[5, 6]",1.0,1.0,0.4936990737915039,3.007416009902954,0.4188437672281125,73.0,731.0,0.0
Y,R,"[5, 7]",1.0,2.0,0.584644079208374,2.030025005340576,0.34883214819145497,73.0,732.0,0.0
Y,R,"[5, 8]",1.0,3.0,0.5266451835632324,2.0640809535980225,0.4294330676113133,73.0,733.0,0.0
G,D,"[6, 8]",1.0,4.0,0.33655786514282227,2.147322177886963,0.709653010475866,73.0,734.0,0.0
Y,R,"[6, 9]",1.0,5.0,0.2861790657043457,1.9169411659240723,0.5434620078482669,73.0,735.0,0.0
Y,R,"[6, 10]",1.0,6.0,0.284512996673584,1.8903460502624512,0.5171171073378505,73.0,736.0,0.0
R,U,"[5, 10]",1.0,7.0,0.4556100368499756,2.011915922164917,0.445640379857507,73.0,737.0,0.0
R,U,"[4, 10]",1.0,8.0,0.3795008659362793,2.1163241863250732,0.6453330180742534,73.0,738.0,0.0
B,L,"[4, 9]",1.0,9.0,0.3639240264892578,2.0454959869384766,0.5904420145855114,73.0,739.0,0.0
R,U,"[3, 9]",1.0,10.0,0.6076719760894775,2.340301990509033,0.6308311278779505,73.0,740.0,0.0
,,"(6, 6)",,,,,,,,
R,U,"[5, 6]",1.0,1.0,0.7072219848632812,3.027298927307129,0.3081873109225234,74.0,741.0,0.0
Y,R,"[5, 7]",1.0,2.0,0.7342751026153564,2.4263100624084473,0.600794347343564,74.0,742.0,0.0
Y,R,"[5, 8]",1.0,3.0,0.14763283729553223,1.6601848602294922,0.41110076600920026,74.0,743.0,0.0
G,D,"[6, 8]",1.0,4.0,0.7306010723114014,2.5223090648651123,0.700016166031725,74.0,744.0,0.0
Y,R,"[6, 9]",1.0,5.0,0.2721519470214844,1.8702161312103271,0.5034642195402829,74.0,745.0,0.0
Y,R,"[6, 10]",1.0,6.0,0.3571889400482178,1.9680891036987305,0.5047471297724879,74.0,746.0,0.0
R,U,"[5, 10]",1.0,7.0,0.4081759452819824,2.174584150314331,0.6625328907920733,74.0,747.0,0.0
R,U,"[4, 10]",1.0,8.0,0.28342604637145996,2.021578073501587,0.6339419484307449,74.0,748.0,0.0
B,L,"[4, 9]",1.0,9.0,0.30983591079711914,1.6720170974731445,0.25637257283600834,74.0,749.0,0.0
R,U,"[3, 9]",1.0,10.0,0.47106480598449707,2.0984561443328857,0.5376033574216276,74.0,750.0,0.0
,,"(6, 6)",,,,,,,,
R,U,"[5, 6]",1.0,1.0,0.40291309356689453,2.757611036300659,0.37877230154810737,75.0,751.0,0.0
Y,R,"[5, 7]",1.0,2.0,0.48101186752319336,2.0889220237731934,0.5175059593863618,75.0,752.0,0.0
Y,R,"[5, 8]",1.0,3.0,0.24586987495422363,1.7537250518798828,0.40458604382843855,75.0,753.0,0.0
G,D,"[6, 8]",1.0,4.0,0.31279706954956055,1.9837892055511475,0.571824066149079,75.0,754.0,0.0
Y,R,"[6, 9]",1.0,5.0,0.3268308639526367,1.8154010772705078,0.38708566943486783,75.0,755.0,0.0
Y,R,"[6, 10]",1.0,6.0,0.5037591457366943,2.251579999923706,0.6549288927839705,75.0,756.0,0.0
R,U,"[5, 10]",1.0,7.0,0.18602395057678223,1.9033770561218262,0.6248426672664262,75.0,757.0,0.0
R,U,"[4, 10]",1.0,8.0,0.31298303604125977,1.8451550006866455,0.4369926754526539,75.0,758.0,0.0
B,L,"[4, 9]",1.0,9.0,0.47568297386169434,1.9630799293518066,0.3833456877665658,75.0,759.0,0.0
R,U,"[3, 9]",1.0,10.0,0.7930550575256348,2.172938823699951,0.2728802850870759,75.0,760.0,0.0
,,"(6, 6)",,,,,,,,
R,U,"[5, 6]",1.0,1.0,0.8449139595031738,3.7760510444641113,0.3322162426434921,76.0,761.0,0.0
Y,R,"[5, 7]",1.0,2.0,0.5711240768432617,2.3782119750976562,0.7098607988324783,76.0,762.0,0.0
Y,R,"[5, 8]",1.0,3.0,0.5322630405426025,2.005326986312866,0.3822115936539825,76.0,763.0,0.0
G,D,"[6, 8]",1.0,4.0,0.5645489692687988,2.247882127761841,0.579746817425547,76.0,764.0,0.0
Y,R,"[6, 9]",1.0,5.0,0.363537073135376,2.0252017974853516,0.555044883797158,76.0,765.0,0.0
Y,R,"[6, 10]",1.0,6.0,0.5308990478515625,2.273016929626465,0.6446749969297139,76.0,766.0,0.0
R,U,"[5, 10]",1.0,7.0,0.3121809959411621,1.965390920639038,0.5598562742068616,76.0,767.0,0.0
R,U,"[4, 10]",1.0,8.0,0.5104238986968994,2.158924102783203,0.5521207686276719,76.0,768.0,0.0
B,L,"[4, 9]",1.0,9.0,0.40871500968933105,2.2345259189605713,0.7197374022188696,76.0,769.0,0.0
R,U,"[3, 9]",1.0,10.0,0.47443222999572754,2.0297272205352783,0.4496033133112033,76.0,770.0,0.0
,,"(6, 6)",,,,,,,,
R,U,"[5, 6]",1.0,1.0,0.6329119205474854,2.744892120361328,0.49431624373119226,77.0,771.0,0.0
Y,R,"[5, 7]",1.0,2.0,0.5536899566650391,2.1324169635772705,0.4933486353075008,77.0,772.0,0.0
Y,R,"[5, 8]",1.0,3.0,0.3265349864959717,2.1587369441986084,0.7352549753434239,77.0,773.0,0.0
G,D,"[6, 8]",1.0,4.0,0.22554588317871094,1.6383919715881348,0.3071988725048286,77.0,774.0,0.0
Y,R,"[6, 9]",1.0,5.0,0.6092319488525391,2.356180191040039,0.646331617526082,77.0,775.0,0.0
Y,R,"[6, 10]",1.0,6.0,0.12482190132141113,1.7637770175933838,0.5268058664439226,77.0,776.0,0.0
R,U,"[5, 10]",1.0,7.0,0.4054861068725586,2.051270008087158,0.5446837676970033,77.0,777.0,0.0
R,U,"[4, 10]",1.0,8.0,0.6324529647827148,2.025171995162964,0.30343126490505484,77.0,778.0,0.0
B,L,"[4, 9]",1.0,9.0,0.6040189266204834,2.086920976638794,0.3736553308853996,77.0,779.0,0.0
R,U,"[3, 9]",1.0,10.0,0.5837061405181885,2.0606539249420166,0.3840683787364784,77.0,780.0,0.0
,,"(6, 6)",,,,,,,,
R,U,"[5, 6]",1.0,1.0,0.48386597633361816,2.9437620639801025,0.4110893217398763,78.0,781.0,0.0
Y,R,"[5, 7]",1.0,2.0,0.5607120990753174,1.9973771572113037,0.34182000026688314,78.0,782.0,0.0
Y,R,"[5, 8]",1.0,3.0,0.396683931350708,2.2031400203704834,0.7111892885482167,78.0,783.0,0.0
G,D,"[6, 8]",1.0,4.0,0.28092098236083984,2.0134060382843018,0.6412227504066852,78.0,784.0,0.0
Y,R,"[6, 9]",1.0,5.0,0.28989195823669434,2.000322103500366,0.6081717348129194,78.0,785.0,0.0
Y,R,"[6, 10]",1.0,6.0,0.3858470916748047,1.9814839363098145,0.5064158486366566,78.0,786.0,0.0
R,U,"[5, 10]",1.0,7.0,0.5005440711975098,2.306281089782715,0.7122878573942781,78.0,787.0,0.0
R,U,"[4, 10]",1.0,8.0,0.33288002014160156,1.6954150199890137,0.25813169255087887,78.0,788.0,0.0
B,L,"[4, 9]",1.0,9.0,0.7006981372833252,2.080651044845581,0.2887464243652794,78.0,789.0,0.0
R,U,"[3, 9]",1.0,10.0,0.7691271305084229,2.389660120010376,0.5279934399012767,78.0,790.0,0.0
,,"(6, 6)",,,,,,,,
R,U,"[5, 6]",1.0,1.0,0.3662118911743164,3.6021289825439453,0.6630669949713278,79.0,791.0,0.0
Y,R,"[5, 7]",1.0,2.0,0.24940800666809082,1.6784019470214844,0.32521858234125783,79.0,792.0,0.0
Y,R,"[5, 8]",1.0,3.0,0.3783121109008789,2.1747260093688965,0.6996096466702554,79.0,793.0,0.0
G,D,"[6, 8]",1.0,4.0,0.28191399574279785,1.7041521072387695,0.3208638301523682,79.0,794.0,0.0
Y,R,"[6, 9]",1.0,5.0,0.48369908332824707,2.047689199447632,0.4681230599917452,79.0,795.0,0.0
Y,R,"[6, 10]",1.0,6.0,0.49887800216674805,1.929753065109253,0.33139732279527745,79.0,796.0,0.0
R,U,"[5, 10]",1.0,7.0,0.4695000648498535,1.9078741073608398,0.33916797625262796,79.0,797.0,0.0
R,U,"[4, 10]",1.0,8.0,0.6145901679992676,2.1882741451263428,0.4771650260284181,79.0,798.0,0.0
B,L,"[4, 9]",1.0,9.0,0.400115966796875,2.0419371128082275,0.5525721360798477,79.0,799.0,0.0
R,U,"[3, 9]",1.0,10.0,0.29123616218566895,1.9351820945739746,0.5373227030808188,79.0,800.0,0.0
,,"(6, 6)",,,,,,,,
R,U,"[5, 6]",1.0,1.0,0.518200159072876,2.7609407901763916,0.365227734196503,80.0,801.0,0.0
Y,R,"[5, 7]",1.0,2.0,0.5199851989746094,2.0833120346069336,0.46504721376862784,80.0,802.0,0.0
Y,R,"[5, 8]",1.0,3.0,0.42467498779296875,2.137230157852173,0.601978795722738,80.0,803.0,0.0
G,D,"[6, 8]",1.0,4.0,0.22959494590759277,2.0435569286346436,0.7124911687347437,80.0,804.0,0.0
Y,R,"[6, 9]",1.0,5.0,0.2139120101928711,1.5630550384521484,0.2587697978395761,80.0,805.0,0.0
Y,R,"[6, 10]",1.0,6.0,0.5906012058258057,2.212055206298828,0.5205646740625437,80.0,806.0,0.0
R,U,"[5, 10]",1.0,7.0,0.3993101119995117,1.7988619804382324,0.3029772855453276,80.0,807.0,0.0
R,U,"[4, 10]",1.0,8.0,0.5195279121398926,2.1127378940582275,0.4987735710732658,80.0,808.0,0.0
B,L,"[4, 9]",1.0,9.0,0.5149590969085693,1.9912939071655273,0.3733464742542888,80.0,809.0,0.0
R,U,"[3, 9]",1.0,10.0,0.518455982208252,2.1817989349365234,0.5715339440582803,80.0,810.0,0.0
,,"(6, 6)",,,,,,,,
R,U,"[5, 6]",-2.0,0.0,1.9556670188903809,4.316558837890625,0.5714518591349262,81.0,811.0,0.0
Y,R,"[5, 7]",1.0,1.0,0.2713501453399658,1.6908040046691895,0.32908934211307744,81.0,812.0,0.0
Y,R,"[5, 8]",1.0,2.0,0.4480109214782715,2.1379809379577637,0.5999742680823165,81.0,813.0,0.0
G,D,"[6, 8]",1.0,3.0,0.3409268856048584,1.9069359302520752,0.45694899740844735,81.0,814.0,0.0
Y,R,"[6, 9]",1.0,4.0,0.49588918685913086,2.241323947906494,0.6480211416929557,81.0,815.0,0.0
Y,R,"[6, 10]",1.0,5.0,0.3488631248474121,1.8276808261871338,0.375899216787893,81.0,816.0,0.0
R,U,"[5, 10]",1.0,6.0,0.4531669616699219,2.0510969161987305,0.5100999073956678,81.0,817.0,0.0
R,U,"[4, 10]",1.0,7.0,0.34615302085876465,1.771866798400879,0.3321743284548708,81.0,818.0,0.0
B,L,"[4, 9]",1.0,8.0,0.7118539810180664,2.4425430297851562,0.6247311347870999,81.0,819.0,0.0
R,U,"[3, 9]",1.0,9.0,0.4853978157043457,2.1758830547332764,0.6002730759659229,81.0,820.0,0.0
,,"(6, 6)",,,,,,,,
R,U,"[5, 6]",1.0,1.0,0.5096449851989746,2.895914077758789,0.31293698315541396,82.0,821.0,0.0
Y,R,"[5, 7]",1.0,2.0,0.5541331768035889,2.399245023727417,0.7449826789445753,82.0,822.0,0.0
Y,R,"[5, 8]",1.0,3.0,0.15891098976135254,1.644644021987915,0.38990904604557686,82.0,823.0,0.0
G,D,"[6, 8]",1.0,4.0,0.5866460800170898,2.056074857711792,0.3792583146034202,82.0,824.0,0.0
Y,R,"[6, 9]",1.0,5.0,0.45594000816345215,2.0245509147644043,0.4536511845013006,82.0,825.0,0.0
Y,R,"[6, 10]",1.0,6.0,0.38087916374206543,2.2003560066223145,0.7203912227531906,82.0,826.0,0.0
R,U,"[5, 10]",1.0,7.0,0.24788379669189453,2.0346970558166504,0.6888689086214539,82.0,827.0,0.0
R,U,"[4, 10]",-1.0,7.0,0.017277002334594727,5.888391017913818,0.7431509946658212,82.0,828.0,0.0
B,L,"[4, 9]",1.0,8.0,0.32143712043762207,1.864480972290039,0.45784248327717114,82.0,829.0,0.0
R,U,"[3, 9]",1.0,9.0,0.3457050323486328,1.8615422248840332,0.4194074199293589,82.0,830.0,0.0
,,"(6, 6)",,,,,,,,
R,U,"[5, 6]",1.0,1.0,0.6244950294494629,2.615467071533203,0.3348243657508929,83.0,831.0,0.0
Y,R,"[5, 7]",1.0,2.0,0.2846050262451172,1.7108240127563477,0.32904970576042875,83.0,832.0,0.0
Y,R,"[5, 8]",1.0,3.0,0.2184000015258789,1.7449839115142822,0.44055994644394614,83.0,833.0,0.0
G,D,"[6, 8]",1.0,4.0,0.1732630729675293,1.8416860103607178,0.5653675178825,83.0,834.0,0.0
Y,R,"[6, 9]",1.0,5.0,0.26033592224121094,1.642240047454834,0.2741831197919703,83.0,835.0,0.0
Y,R,"[6, 10]",1.0,6.0,0.2758598327636719,1.9886178970336914,0.612687245532165,83.0,836.0,0.0
R,U,"[5, 10]",1.0,7.0,0.19383502006530762,1.8792948722839355,0.5757090075849451,83.0,837.0,0.0
R,U,"[4, 10]",1.0,8.0,0.21816396713256836,1.810271978378296,0.5023075584983047,83.0,838.0,0.0
B,L,"[4, 9]",1.0,9.0,0.35697007179260254,2.1282880306243896,0.6803422650189137,83.0,839.0,0.0
R,U,"[3, 9]",1.0,10.0,0.1940000057220459,1.741105079650879,0.45481815992392466,83.0,840.0,0.0
,,"(6, 6)",,,,,,,,
R,U,"[5, 6]",1.0,1.0,0.5382599830627441,2.3443830013275146,0.3660042868336898,84.0,841.0,0.0
Y,R,"[5, 7]",1.0,2.0,0.3307020664215088,2.1044180393218994,0.6700260272356501,84.0,842.0,0.0
Y,R,"[5, 8]",1.0,3.0,0.20832014083862305,1.6471569538116455,0.3341104846629467,84.0,843.0,0.0
G,D,"[6, 8]",1.0,4.0,0.38712406158447266,2.1183338165283203,0.6353097599448121,84.0,844.0,0.0
Y,R,"[6, 9]",1.0,5.0,0.1433711051940918,1.7766330242156982,0.5287763352880681,84.0,845.0,0.0
Y,R,"[6, 10]",1.0,6.0,0.3152890205383301,1.9242701530456543,0.5195153608117264,84.0,846.0,0.0
G,D,"[7, 10]",0.0,6.0,0.22406291961669922,1.6990110874176025,0.36880723604495597,84.0,847.0,0.0
R,U,"[6, 10]",0.0,6.0,0.45583605766296387,1.9096431732177734,0.361572163359119,84.0,848.0,0.0
B,L,"[6, 9]",0.0,6.0,0.24978017807006836,1.9626550674438477,0.6239209583459677,84.0,849.0,0.0
B,L,"[6, 8]",-1.0,6.0,0.04842400550842285,5.6211090087890625,0.4451380159723825,84.0,850.0,0.0
,,"(6, 6)",,,,,,,,
R,U,"[5, 6]",-2.0,0.0,1.0949909687042236,5.017822027206421,0.4461229969667265,85.0,851.0,0.0
Y,R,"[5, 7]",1.0,1.0,0.2659440040588379,2.05448317527771,0.6834963016889071,85.0,852.0,0.0
Y,R,"[5, 8]",1.0,2.0,0.22013306617736816,1.9427659511566162,0.6263226359387193,85.0,853.0,0.0
G,D,"[6, 8]",1.0,3.0,0.31255292892456055,1.8623559474945068,0.45544035639910263,85.0,854.0,0.0
Y,R,"[6, 9]",1.0,4.0,0.3650848865509033,2.0099050998687744,0.5485516675970108,85.0,855.0,0.0
Y,R,"[6, 10]",1.0,5.0,0.20918703079223633,2.0145821571350098,0.6962698961084364,85.0,856.0,0.0
R,U,"[5, 10]",1.0,6.0,0.2604711055755615,1.9144439697265625,0.544174363958438,85.0,857.0,0.0
R,U,"[4, 10]",1.0,7.0,0.35846590995788574,2.167556047439575,0.7117463369487962,85.0,858.0,0.0
B,L,"[4, 9]",1.0,8.0,0.34076499938964844,1.9092230796813965,0.47090114241871317,85.0,859.0,0.0
R,U,"[3, 9]",1.0,9.0,0.3507680892944336,1.9255480766296387,0.4797199916848336,85.0,860.0,0.0
,,"(6, 6)",,,,,,,,
R,U,"[5, 6]",1.0,1.0,0.3915438652038574,2.439915895462036,0.5194699712820294,86.0,861.0,0.0
Y,R,"[5, 7]",1.0,2.0,0.41213107109069824,2.0469040870666504,0.5329299003109846,86.0,862.0,0.0
Y,R,"[5, 8]",1.0,3.0,0.27428388595581055,2.078143835067749,0.6941678874492792,86.0,863.0,0.0
G,D,"[6, 8]",1.0,4.0,0.3736898899078369,2.1202900409698486,0.6477468926523412,86.0,864.0,0.0
Y,R,"[6, 9]",1.0,5.0,0.2112269401550293,1.739326000213623,0.4205474747054675,86.0,865.0,0.0
Y,R,"[6, 10]",1.0,6.0,0.27779698371887207,1.8726539611816406,0.49307108025960794,86.0,866.0,0.0
R,U,"[5, 10]",1.0,7.0,0.40718698501586914,1.8680732250213623,0.36132078435176285,86.0,867.0,0.0
R,U,"[4, 10]",1.0,8.0,0.6685199737548828,2.3970720767974854,0.6417127484526388,86.0,868.0,0.0
B,L,"[4, 9]",1.0,9.0,0.25048089027404785,2.0141539573669434,0.6721095438762623,86.0,869.0,0.0
R,U,"[3, 9]",1.0,10.0,0.40886402130126953,2.147037982940674,0.6357264105469498,86.0,870.0,0.0
,,"(6, 6)",,,,,,,,
R,U,"[5, 6]",1.0,1.0,0.5358560085296631,3.1451499462127686,0.7307184713121543,87.0,871.0,0.0
Y,R,"[5, 7]",1.0,2.0,0.16873717308044434,1.5486750602722168,0.2796343416639317,87.0,872.0,0.0
Y,R,"[5, 8]",1.0,3.0,0.6766390800476074,2.0931270122528076,0.3060354403753166,87.0,873.0,0.0
G,D,"[6, 8]",1.0,4.0,0.9412899017333984,2.542246103286743,0.4980326695103408,87.0,874.0,0.0
Y,R,"[6, 9]",1.0,5.0,0.2312459945678711,1.6669421195983887,0.33173357289216976,87.0,875.0,0.0
Y,R,"[6, 10]",1.0,6.0,0.3795180320739746,2.2093021869659424,0.7239030565720372,87.0,876.0,0.0
R,U,"[5, 10]",1.0,7.0,0.23354411125183105,1.6523969173431396,0.32675517141489263,87.0,877.0,0.0
R,U,"[4, 10]",1.0,8.0,0.5518069267272949,2.173917055130005,0.5337605422261651,87.0,878.0,0.0
B,L,"[4, 9]",1.0,9.0,0.45711207389831543,2.2866008281707764,0.736749850253682,87.0,879.0,0.0
R,U,"[3, 9]",1.0,10.0,0.27346181869506836,1.9490299224853516,0.5691093902792851,87.0,880.0,0.0
,,"(6, 6)",,,,,,,,
R,U,"[5, 6]",1.0,1.0,0.292600154876709,2.9298648834228516,0.6654447253943976,88.0,881.0,0.0
Y,R,"[5, 7]",1.0,2.0,0.18033981323242188,1.6605579853057861,0.37629314097184247,88.0,882.0,0.0
Y,R,"[5, 8]",1.0,3.0,0.2304840087890625,1.9278450012207031,0.6037856873260941,88.0,883.0,0.0
G,D,"[6, 8]",1.0,4.0,0.602802038192749,2.1182548999786377,0.42209708058671347,88.0,884.0,0.0
Y,R,"[6, 9]",1.0,5.0,0.4514040946960449,1.9993350505828857,0.454805086163763,88.0,885.0,0.0
Y,R,"[6, 10]",1.0,6.0,0.21875,2.056302070617676,0.7440245157231924,88.0,886.0,0.0
R,U,"[5, 10]",1.0,7.0,0.24819207191467285,2.0545971393585205,0.7152760313304944,88.0,887.0,0.0
R,U,"[4, 10]",1.0,8.0,0.22075295448303223,2.0320119857788086,0.7139119926623667,88.0,888.0,0.0
B,L,"[4, 9]",1.0,9.0,0.24916315078735352,2.0515940189361572,0.6987860338351002,88.0,889.0,0.0
R,U,"[3, 9]",1.0,10.0,0.2557399272918701,2.0602729320526123,0.6922511137579026,88.0,890.0,0.0
,,"(6, 6)",,,,,,,,
R,U,"[5, 6]",1.0,1.0,0.32887983322143555,2.4283361434936523,0.454168793486606,89.0,891.0,0.0
Y,R,"[5, 7]",1.0,2.0,0.4803438186645508,1.9326660633087158,0.35354370108235167,89.0,892.0,0.0
Y,R,"[5, 8]",1.0,3.0,0.3140389919281006,1.9625511169433594,0.5490890468117241,89.0,893.0,0.0
G,D,"[6, 8]",1.0,4.0,0.3526790142059326,1.9291629791259766,0.47856111863310885,89.0,894.0,0.0
Y,R,"[6, 9]",1.0,5.0,0.48795199394226074,2.0159780979156494,0.44430348822809557,89.0,895.0,0.0
Y,R,"[6, 10]",1.0,6.0,0.31825900077819824,2.0148251056671143,0.6089716242426562,89.0,896.0,0.0
R,U,"[5, 10]",1.0,7.0,0.3625791072845459,2.1525051593780518,0.6945811189950444,89.0,897.0,0.0
R,U,"[4, 10]",1.0,8.0,0.2106480598449707,2.0473289489746094,0.7418147575643081,89.0,898.0,0.0
B,L,"[4, 9]",1.0,9.0,0.15347599983215332,1.7154059410095215,0.47395648786154887,89.0,899.0,0.0
R,U,"[3, 9]",1.0,10.0,0.6358990669250488,2.4623849391937256,0.736373376893543,89.0,900.0,0.0
,,"(6, 6)",,,,,,,,
R,U,"[5, 6]",1.0,1.0,0.3601219654083252,2.999419927597046,0.7355400074507865,90.0,901.0,0.0
Y,R,"[5, 7]",-1.0,1.0,0.0003619194030761719,5.86187219619751,0.7304685389214352,90.0,902.0,0.0
Y,R,"[5, 8]",1.0,2.0,0.43930816650390625,2.046694040298462,0.4939854706121124,90.0,903.0,0.0
G,D,"[6, 8]",1.0,3.0,0.23695802688598633,2.008009195327759,0.6849968786086933,90.0,904.0,0.0
Y,R,"[6, 9]",1.0,4.0,0.16837096214294434,1.5484020709991455,0.2837400720339533,90.0,905.0,0.0
Y,R,"[6, 10]",1.0,5.0,0.3483090400695801,1.883268117904663,0.4335189841131561,90.0,906.0,0.0
R,U,"[5, 10]",1.0,6.0,0.1279311180114746,1.8679819107055664,0.6345542631894356,90.0,907.0,0.0
R,U,"[4, 10]",1.0,7.0,0.31917619705200195,1.7070789337158203,0.29185749612777634,90.0,908.0,0.0
B,L,"[4, 9]",1.0,8.0,0.3421611785888672,1.7945070266723633,0.3528742008415873,90.0,909.0,0.0
R,U,"[3, 9]",1.0,9.0,0.5036611557006836,1.9856688976287842,0.3883385099661022,90.0,910.0,0.0
,,"(6, 6)",,,,,,,,
R,U,"[5, 6]",1.0,1.0,0.3952658176422119,2.4556288719177246,0.3109389594372085,91.0,911.0,0.0
Y,R,"[5, 7]",1.0,2.0,0.37669992446899414,2.110158920288086,0.6373587910221838,91.0,912.0,0.0
Y,R,"[5, 8]",1.0,3.0,0.1628251075744629,1.7309448719024658,0.4682735443250538,91.0,913.0,0.0
G,D,"[6, 8]",1.0,4.0,0.43061304092407227,1.8649518489837646,0.33324296990291447,91.0,914.0,0.0
Y,R,"[6, 9]",1.0,5.0,0.2569849491119385,2.0257999897003174,0.6588510487222052,91.0,915.0,0.0
Y,R,"[6, 10]",1.0,6.0,0.27420806884765625,1.7236111164093018,0.349271623489908,91.0,916.0,0.0
R,U,"[5, 10]",1.0,7.0,0.28486180305480957,1.7891128063201904,0.4048746188432833,91.0,917.0,0.0
R,U,"[4, 10]",1.0,8.0,0.2628040313720703,1.8902530670166016,0.5284246120139571,91.0,918.0,0.0
B,L,"[4, 9]",1.0,9.0,0.39319586753845215,2.0770139694213867,0.5886532634079487,91.0,919.0,0.0
R,U,"[3, 9]",1.0,10.0,0.31885600090026855,2.093295097351074,0.6816561197571505,91.0,920.0,0.0
,,"(6, 6)",,,,,,,,
R,U,"[5, 6]",1.0,1.0,0.5415489673614502,3.467349052429199,0.4492236186182598,92.0,921.0,0.0
Y,R,"[5, 7]",1.0,2.0,0.23515892028808594,1.8035848140716553,0.4693194803137148,92.0,922.0,0.0
Y,R,"[5, 8]",1.0,3.0,0.22107505798339844,1.8164958953857422,0.5023269070834903,92.0,923.0,0.0
G,D,"[6, 8]",1.0,4.0,0.29857516288757324,1.7249810695648193,0.3274817410009424,92.0,924.0,0.0
Y,R,"[6, 9]",1.0,5.0,0.45876598358154297,2.0157010555267334,0.4597441378100585,92.0,925.0,0.0
Y,R,"[6, 10]",1.0,6.0,0.17145299911499023,1.9123358726501465,0.6383982032588034,92.0,926.0,0.0
R,U,"[5, 10]",-1.0,6.0,0.05871391296386719,5.928973913192749,0.7341460736412249,92.0,927.0,0.0
R,U,"[4, 10]",1.0,7.0,0.24181294441223145,2.07570481300354,0.7260602482499497,92.0,928.0,0.0
B,L,"[4, 9]",-1.0,7.0,0.0014200210571289062,5.757740020751953,0.6336577729763708,92.0,929.0,0.0
R,U,"[3, 9]",1.0,8.0,0.3126370906829834,1.8622970581054688,0.4461273134694612,92.0,930.0,0.0
,,"(6, 6)",,,,,,,,
R,U,"[5, 6]",1.0,1.0,0.2526519298553467,2.790695905685425,0.6532063849793639,93.0,931.0,0.0
Y,R,"[5, 7]",1.0,2.0,0.33803701400756836,1.8217401504516602,0.3751999139930917,93.0,932.0,0.0
Y,R,"[5, 8]",1.0,3.0,0.37964296340942383,1.8992860317230225,0.4242773234408537,93.0,933.0,0.0
G,D,"[6, 8]",1.0,4.0,0.3996140956878662,2.021976947784424,0.5294329983910168,93.0,934.0,0.0
Y,R,"[6, 9]",1.0,5.0,0.2502260208129883,1.64229416847229,0.28860355289382755,93.0,935.0,0.0
Y,R,"[6, 10]",1.0,6.0,0.343890905380249,1.7218420505523682,0.2770465513700104,93.0,936.0,0.0
R,U,"[5, 10]",1.0,7.0,0.3202219009399414,1.720221996307373,0.3138661667911498,93.0,937.0,0.0
R,U,"[4, 10]",1.0,8.0,0.32380199432373047,1.8071610927581787,0.3708754849310511,93.0,938.0,0.0
B,L,"[4, 9]",1.0,9.0,0.2240591049194336,1.7361161708831787,0.4070037879345755,93.0,939.0,0.0
R,U,"[3, 9]",1.0,10.0,0.21451902389526367,1.618628978729248,0.30904360353962534,93.0,940.0,0.0
,,"(6, 6)",,,,,,,,
R,U,"[5, 6]",1.0,1.0,0.42230701446533203,2.390131950378418,0.5654716509833102,94.0,941.0,0.0
Y,R,"[5, 7]",-1.0,1.0,0.06970095634460449,5.942656993865967,0.7410381245634439,94.0,942.0,0.0
Y,R,"[5, 8]",1.0,2.0,0.23332619667053223,1.5930490493774414,0.26777993568638125,94.0,943.0,0.0
G,D,"[6, 8]",1.0,3.0,0.48824310302734375,2.259296178817749,0.6767586399994538,94.0,944.0,0.0
Y,R,"[6, 9]",1.0,4.0,0.1682271957397461,1.738530158996582,0.4820870991680564,94.0,945.0,0.0
Y,R,"[6, 10]",1.0,5.0,0.20232605934143066,1.5826020240783691,0.2813893292892174,94.0,946.0,0.0
R,U,"[5, 10]",1.0,6.0,0.38680219650268555,2.025031089782715,0.5395326422317623,94.0,947.0,0.0
R,U,"[4, 10]",1.0,7.0,0.214216947555542,1.902811050415039,0.5922379294646135,94.0,948.0,0.0
B,L,"[4, 9]",1.0,8.0,0.2244570255279541,1.7691309452056885,0.44467662897557636,94.0,949.0,0.0
R,U,"[3, 9]",1.0,9.0,0.20869803428649902,2.0262160301208496,0.7205202574350256,94.0,950.0,0.0
,,"(6, 6)",,,,,,,,
R,U,"[5, 6]",1.0,1.0,0.40779614448547363,3.7472610473632812,0.43461677207258365,95.0,951.0,0.0
Y,R,"[5, 7]",1.0,2.0,0.30299997329711914,1.8700659275054932,0.47131029030647387,95.0,952.0,0.0
Y,R,"[5, 8]",1.0,3.0,0.33570003509521484,1.7473890781402588,0.3188487851452934,95.0,953.0,0.0
G,D,"[6, 8]",1.0,4.0,0.4542369842529297,2.0699501037597656,0.5219186140570836,95.0,954.0,0.0
Y,R,"[6, 9]",1.0,5.0,0.32257699966430664,1.7339770793914795,0.3226920126300302,95.0,955.0,0.0
Y,R,"[6, 10]",1.0,6.0,0.2782251834869385,1.8973510265350342,0.5196903132777108,95.0,956.0,0.0
R,U,"[5, 10]",1.0,7.0,0.38805603981018066,1.9204308986663818,0.4235582059538617,95.0,957.0,0.0
R,U,"[4, 10]",1.0,8.0,0.36155200004577637,1.9748458862304688,0.5148162269836869,95.0,958.0,0.0
B,L,"[4, 9]",1.0,9.0,0.3251628875732422,1.962803840637207,0.5275955206535683,95.0,959.0,0.0
R,U,"[3, 9]",1.0,10.0,0.3171088695526123,1.9870750904083252,0.5811966258292963,95.0,960.0,0.0
,,"(6, 6)",,,,,,,,
R,U,"[5, 6]",1.0,1.0,0.6944088935852051,3.7028260231018066,0.2675277029380134,96.0,961.0,0.0
Y,R,"[5, 7]",1.0,2.0,0.48611903190612793,2.239954948425293,0.6571069880928437,96.0,962.0,0.0
Y,R,"[5, 8]",1.0,3.0,0.18183493614196777,1.840264081954956,0.5639842958414403,96.0,963.0,0.0
G,D,"[6, 8]",1.0,4.0,0.5676710605621338,2.1520700454711914,0.48272983532998487,96.0,964.0,0.0
Y,R,"[6, 9]",1.0,5.0,0.6368849277496338,2.270719051361084,0.5369272604786802,96.0,965.0,0.0
Y,R,"[6, 10]",1.0,6.0,0.2528049945831299,1.6753571033477783,0.3288234733072645,96.0,966.0,0.0
R,U,"[5, 10]",1.0,7.0,0.5402021408081055,1.915680170059204,0.27783362980141296,96.0,967.0,0.0
R,U,"[4, 10]",1.0,8.0,0.4934859275817871,1.9041919708251953,0.3151874032156234,96.0,968.0,0.0
B,L,"[4, 9]",1.0,9.0,0.4958169460296631,2.1050870418548584,0.5034111317079271,96.0,969.0,0.0
R,U,"[3, 9]",1.0,10.0,0.18148112297058105,1.8724451065063477,0.5924664244152069,96.0,970.0,0.0
,,"(6, 6)",,,,,,,,
R,U,"[5, 6]",1.0,1.0,0.4628028869628906,4.5398499965667725,0.6488055889826934,97.0,971.0,0.0
Y,R,"[5, 7]",1.0,2.0,0.15516209602355957,1.856827974319458,0.605912955772361,97.0,972.0,0.0
Y,R,"[5, 8]",1.0,3.0,0.2668440341949463,1.755829095840454,0.3948486617676523,97.0,973.0,0.0
G,D,"[6, 8]",1.0,4.0,0.1789238452911377,1.6929669380187988,0.4211224076200407,97.0,974.0,0.0
Y,R,"[6, 9]",1.0,5.0,0.23066306114196777,1.9124839305877686,0.583289127696643,97.0,975.0,0.0
Y,R,"[6, 10]",1.0,6.0,0.3252129554748535,2.0779500007629395,0.6444654042257865,97.0,976.0,0.0
R,U,"[5, 10]",-1.0,6.0,0.010986089706420898,5.634777784347534,0.5124819948811099,97.0,977.0,0.0
R,U,"[4, 10]",1.0,7.0,0.25037503242492676,1.9522929191589355,0.5979865413388242,97.0,978.0,0.0
B,L,"[4, 9]",1.0,8.0,0.20343279838562012,1.8478789329528809,0.546003827441891,97.0,979.0,0.0
R,U,"[3, 9]",1.0,9.0,0.2955489158630371,1.887355089187622,0.4831184510766784,97.0,980.0,0.0
,,"(6, 6)",,,,,,,,
R,U,"[5, 6]",1.0,1.0,0.33135104179382324,3.1482059955596924,0.6478391943161168,98.0,981.0,0.0
Y,R,"[5, 7]",1.0,2.0,0.4079759120941162,1.9077339172363281,0.3891427751553559,98.0,982.0,0.0
Y,R,"[5, 8]",1.0,3.0,0.40297603607177734,1.7981348037719727,0.30396282335173164,98.0,983.0,0.0
G,D,"[6, 8]",1.0,4.0,0.30663585662841797,1.8031630516052246,0.3902943790211635,98.0,984.0,0.0
Y,R,"[6, 9]",1.0,5.0,0.431149959564209,1.8668780326843262,0.34054127504216236,98.0,985.0,0.0
Y,R,"[6, 10]",1.0,6.0,0.22222399711608887,1.6733691692352295,0.3637440218979016,98.0,986.0,0.0
R,U,"[5, 10]",1.0,7.0,0.3858821392059326,2.1015450954437256,0.6149165947534965,98.0,987.0,0.0
R,U,"[4, 10]",1.0,8.0,0.19320082664489746,2.0467610359191895,0.7448503147189576,98.0,988.0,0.0
B,L,"[4, 9]",1.0,9.0,0.1774740219116211,1.792037010192871,0.5205099177262129,98.0,989.0,0.0
R,U,"[3, 9]",1.0,10.0,0.5800580978393555,2.2629261016845703,0.5831900936672735,98.0,990.0,0.0
,,"(6, 6)",,,,,,,,
R,U,"[5, 6]",1.0,1.0,0.43834710121154785,3.0545859336853027,0.3046049471029867,99.0,991.0,0.0
Y,R,"[5, 7]",1.0,2.0,0.5450160503387451,2.051058053970337,0.4056080086905514,99.0,992.0,0.0
Y,R,"[5, 8]",1.0,3.0,0.24961090087890625,1.8303370475769043,0.4858191881486387,99.0,993.0,0.0
G,D,"[6, 8]",1.0,4.0,0.14655399322509766,1.7959859371185303,0.5483599651439842,99.0,994.0,0.0
Y,R,"[6, 9]",1.0,5.0,0.18725919723510742,1.678800106048584,0.3938887686681697,99.0,995.0,0.0
Y,R,"[6, 10]",1.0,6.0,0.3245539665222168,2.036879062652588,0.6137715016168266,99.0,996.0,0.0
R,U,"[5, 10]",1.0,7.0,0.19559788703918457,2.029919147491455,0.7273636694916411,99.0,997.0,0.0
R,U,"[4, 10]",1.0,8.0,0.1589338779449463,1.9895069599151611,0.7329867196261658,99.0,998.0,0.0
B,L,"[4, 9]",1.0,9.0,0.19700384140014648,1.9494130611419678,0.6491308796004152,99.0,999.0,0.0
R,U,"[3, 9]",1.0,10.0,0.23293304443359375,1.897439956665039,0.5631909878628971,99.0,1000.0,0.0
