button_choice,action_choice,coordinate_choice,reward,cumulative_reward,rt,total_trial_time,iti,block_n,trial_n,trial_type
B,L,"[6, 5]",-2.0,0.0,2.5700578689575195,3.9536049365997314,0.35450827864660184,0.0,1.0,0.0
G,D,"[7, 5]",0.0,0.0,0.5687808990478516,2.214790105819702,0.5524881463533838,0.0,2.0,0.0
Y,R,"[7, 6]",0.0,0.0,0.3258359432220459,1.7305951118469238,0.29977002926963914,0.0,3.0,0.0
G,D,"[8, 6]",0.0,0.0,0.2924618721008301,2.083604097366333,0.6830444177041146,0.0,4.0,0.0
R,U,"[7, 6]",0.0,0.0,0.19108080863952637,1.641740083694458,0.3415648383099602,0.0,5.0,0.0
B,L,"[7, 5]",0.0,0.0,0.35479211807250977,1.9596190452575684,0.5009957450535821,0.0,6.0,0.0
Y,R,"[7, 6]",0.0,0.0,0.22607994079589844,2.04748797416687,0.7150614059299121,0.0,7.0,0.0
B,L,"[7, 5]",0.0,0.0,0.4015390872955322,2.04875111579895,0.547096277177358,0.0,8.0,0.0
B,L,"[7, 4]",0.0,0.0,0.30196595191955566,2.1248230934143066,0.7216838689930266,0.0,9.0,0.0
G,D,"[8, 4]",0.0,0.0,0.3503291606903076,2.0986649990081787,0.6537892246438335,0.0,10.0,0.0
,,"(6, 6)",,,,,,,,
Y,R,"[6, 7]",-2.0,0.0,1.0633149147033691,12.035978078842163,0.539323065164617,1.0,11.0,0.0
B,L,"[6, 6]",0.0,0.0,0.2677760124206543,2.082226037979126,0.7212871662750053,1.0,12.0,0.0
G,D,"[7, 6]",0.0,0.0,0.16753387451171875,1.7334551811218262,0.47159826370188546,1.0,13.0,0.0
B,L,"[7, 5]",0.0,0.0,0.18003392219543457,1.5448849201202393,0.2666531086621406,1.0,14.0,0.0
R,U,"[6, 5]",0.0,0.0,0.1610720157623291,1.527777910232544,0.26117854264933626,1.0,15.0,0.0
Y,R,"[6, 6]",0.0,0.0,0.1195368766784668,1.8986239433288574,0.6924100793734593,1.0,16.0,0.0
B,L,"[6, 5]",0.0,0.0,0.350308895111084,1.8685569763183594,0.42794059931882605,1.0,17.0,0.0
G,D,"[7, 5]",0.0,0.0,0.198714017868042,1.7465860843658447,0.45773978839589863,1.0,18.0,0.0
R,U,"[6, 5]",-1.0,0.0,0.015019893646240234,5.625310182571411,0.4829098768478288,1.0,19.0,0.0
R,U,"[5, 5]",0.0,0.0,0.24823594093322754,1.6998140811920166,0.34943242683578385,1.0,20.0,0.0
,,"(6, 6)",,,,,,,,
B,L,"[6, 5]",0.0,0.0,0.3390200138092041,6.4759299755096436,0.45842598961459097,2.0,21.0,0.0
G,D,"[7, 5]",0.0,0.0,0.3293750286102295,1.7352888584136963,0.31044991135029015,2.0,22.0,0.0
B,L,"[7, 4]",0.0,0.0,0.5491299629211426,2.2340760231018066,0.5942148150821001,2.0,23.0,0.0
R,U,"[6, 4]",0.0,0.0,0.20670080184936523,1.751965045928955,0.4462434854844783,2.0,24.0,0.0
Y,R,"[6, 5]",0.0,0.0,0.40993618965148926,2.243790864944458,0.723044168322906,2.0,25.0,0.0
B,L,"[6, 4]",0.0,0.0,0.2156238555908203,1.8301270008087158,0.5200405056253481,2.0,26.0,0.0
R,U,"[5, 4]",0.0,0.0,0.2019329071044922,1.6151809692382812,0.31864512564109776,2.0,27.0,0.0
G,D,"[6, 4]",0.0,0.0,0.39172887802124023,1.7875008583068848,0.2894745470177791,2.0,28.0,0.0
B,L,"[6, 3]",0.0,0.0,0.33620500564575195,1.7104580402374268,0.28305263340306824,2.0,29.0,0.0
B,L,"[6, 2]",0.0,0.0,0.28049588203430176,1.894545078277588,0.5107748291133175,2.0,30.0,0.0
,,"(6, 6)",,,,,,,,
Y,R,"[6, 7]",0.0,0.0,0.8407390117645264,4.396964073181152,0.4576382646634262,3.0,31.0,0.0
R,U,"[5, 7]",1.0,1.0,0.20317697525024414,1.8939628601074219,0.6011706853662009,3.0,32.0,0.0
B,L,"[5, 6]",1.0,2.0,0.19606614112854004,1.9728100299835205,0.6741626164700989,3.0,33.0,0.0
G,D,"[6, 6]",0.0,2.0,0.2193470001220703,1.6867260932922363,0.37769253106679196,3.0,34.0,0.0
B,L,"[6, 5]",0.0,2.0,0.23807811737060547,1.8233959674835205,0.5008305692952426,3.0,35.0,0.0
R,U,"[5, 5]",0.0,2.0,0.2156839370727539,1.8352820873260498,0.5194066072695915,3.0,36.0,0.0
Y,R,"[5, 6]",0.0,2.0,0.22951412200927734,1.776151180267334,0.4457463522090137,3.0,37.0,0.0
B,L,"[5, 5]",0.0,2.0,0.1525270938873291,1.8502209186553955,0.6121543238792033,3.0,38.0,0.0
G,D,"[6, 5]",0.0,2.0,0.11292386054992676,1.792663812637329,0.5714804556646529,3.0,39.0,0.0
R,U,"[5, 5]",0.0,2.0,0.13344192504882812,1.7798070907592773,0.5512704063335587,3.0,40.0,0.0
,,"(6, 6)",,,,,,,,
B,L,"[6, 5]",0.0,0.0,0.40930700302124023,5.976842164993286,0.2782347862553845,4.0,41.0,0.0
R,U,"[5, 5]",0.0,0.0,0.4333629608154297,2.239603042602539,0.7175444180228652,4.0,42.0,0.0
G,D,"[6, 5]",0.0,0.0,0.1983790397644043,1.6966238021850586,0.39756560188944146,4.0,43.0,0.0
Y,R,"[6, 6]",0.0,0.0,0.1873030662536621,1.5848889350891113,0.2991926400346802,4.0,44.0,0.0
B,L,"[6, 5]",0.0,0.0,0.2930159568786621,2.0128979682922363,0.6117105711237333,4.0,45.0,0.0
R,U,"[5, 5]",0.0,0.0,0.1700611114501953,1.9469339847564697,0.6918372675009499,4.0,46.0,0.0
G,D,"[6, 5]",0.0,0.0,0.13715600967407227,1.613097906112671,0.38853318498847506,4.0,47.0,0.0
B,L,"[6, 4]",0.0,0.0,0.20221900939941406,1.692986011505127,0.39807137075051824,4.0,48.0,0.0
Y,R,"[6, 5]",0.0,0.0,0.15209388732910156,1.9984400272369385,0.7462857337920927,4.0,49.0,0.0
R,U,"[5, 5]",0.0,0.0,0.424191951751709,2.2246170043945312,0.6873412202572404,4.0,50.0,0.0
,,"(6, 6)",,,,,,,,
Y,R,"[6, 7]",0.0,0.0,0.25693202018737793,3.9541399478912354,0.7082727183808195,5.0,51.0,0.0
G,D,"[7, 7]",0.0,0.0,0.2714200019836426,1.9115440845489502,0.5362504494217639,5.0,52.0,0.0
B,L,"[7, 6]",0.0,0.0,0.2599148750305176,2.021059989929199,0.6572922083959579,5.0,53.0,0.0
R,U,"[6, 6]",0.0,0.0,0.176239013671875,1.6091840267181396,0.3332482311297326,5.0,54.0,0.0
G,D,"[7, 6]",0.0,0.0,0.19729900360107422,1.7864351272583008,0.4861024501941668,5.0,55.0,0.0
B,L,"[7, 5]",0.0,0.0,0.13996386528015137,1.9148080348968506,0.6673508579390335,5.0,56.0,0.0
R,U,"[6, 5]",0.0,0.0,0.4444611072540283,2.0950257778167725,0.545850771276932,5.0,57.0,0.0
Y,R,"[6, 6]",0.0,0.0,0.5815529823303223,2.2065720558166504,0.5190581671334003,5.0,58.0,0.0
B,L,"[6, 5]",0.0,0.0,0.2373659610748291,1.7934191226959229,0.4627018775740784,5.0,59.0,0.0
G,D,"[7, 5]",0.0,0.0,0.25317883491516113,1.809061050415039,0.45508298562817184,5.0,60.0,0.0
,,"(6, 6)",,,,,,,,
R,U,"[5, 6]",1.0,1.0,0.49764108657836914,5.8927061557769775,0.7470421172398087,6.0,61.0,0.0
Y,R,"[5, 7]",1.0,2.0,0.3352348804473877,2.161147117614746,0.724950994539103,6.0,62.0,0.0
G,D,"[6, 7]",-1.0,2.0,0.08757400512695312,5.812705993652344,0.6042069906449381,6.0,63.0,0.0
G,D,"[7, 7]",0.0,2.0,0.2828850746154785,1.693120002746582,0.31415787281513086,6.0,64.0,0.0
B,L,"[7, 6]",0.0,2.0,0.25321316719055176,1.779595136642456,0.4267137142037837,6.0,65.0,0.0
B,L,"[7, 5]",0.0,2.0,0.34054994583129883,1.803300142288208,0.3634293023557302,6.0,66.0,0.0
R,U,"[6, 5]",0.0,2.0,0.24893689155578613,1.840770959854126,0.48696234586790005,6.0,67.0,0.0
G,D,"[7, 5]",0.0,2.0,0.21204090118408203,2.0594780445098877,0.7465854204260729,6.0,68.0,0.0
Y,R,"[7, 6]",0.0,2.0,0.2209329605102539,2.0292980670928955,0.709261277554314,6.0,69.0,0.0
B,L,"[7, 5]",0.0,2.0,0.3020360469818115,1.9928770065307617,0.6019918014830434,6.0,70.0,0.0
,,"(6, 6)",,,,,,,,
B,L,"[6, 5]",0.0,0.0,0.712548017501831,5.134911060333252,0.6367278373322681,7.0,71.0,0.0
Y,R,"[6, 6]",-1.0,0.0,0.08143496513366699,5.925784111022949,0.7123267319505651,7.0,72.0,0.0
R,U,"[5, 6]",1.0,1.0,0.5541670322418213,2.228553056716919,0.5742219644411387,7.0,73.0,0.0
Y,R,"[5, 7]",1.0,2.0,0.35654115676879883,1.8285200595855713,0.36947212800672413,7.0,74.0,0.0
B,L,"[5, 6]",0.0,2.0,0.3879280090332031,1.8582050800323486,0.37771185038172944,7.0,75.0,0.0
Y,R,"[5, 7]",0.0,2.0,0.16912603378295898,1.908918857574463,0.6533624496678209,7.0,76.0,0.0
G,D,"[6, 7]",0.0,2.0,0.2141711711883545,1.9530880451202393,0.6393536769652355,7.0,77.0,0.0
Y,R,"[6, 8]",1.0,3.0,0.21538186073303223,1.9169399738311768,0.6062514817985954,7.0,78.0,0.0
R,U,"[5, 8]",1.0,4.0,0.283707857131958,1.7413098812103271,0.3645007804226575,7.0,79.0,0.0
Y,R,"[5, 9]",0.0,4.0,0.3739640712738037,2.089462995529175,0.6035904848245883,7.0,80.0,0.0
,,"(6, 6)",,,,,,,,
Y,R,"[6, 7]",0.0,0.0,0.8533210754394531,4.487948894500732,0.6910422771013645,8.0,81.0,0.0
R,U,"[5, 7]",1.0,1.0,0.6512830257415771,2.0758860111236572,0.33413977493973024,8.0,82.0,0.0
R,U,"[4, 7]",0.0,1.0,0.39360499382019043,2.0415899753570557,0.5421528710222896,8.0,83.0,0.0
B,L,"[4, 6]",0.0,1.0,0.35901618003845215,1.7140049934387207,0.25618377500315076,8.0,84.0,0.0
Y,R,"[4, 7]",0.0,1.0,0.37354302406311035,1.9927000999450684,0.5153192642588755,8.0,85.0,0.0
R,U,"[3, 7]",0.0,1.0,0.24769997596740723,2.017491102218628,0.6658960993037293,8.0,86.0,0.0
G,D,"[4, 7]",0.0,1.0,0.2328629493713379,1.8095037937164307,0.47557716172181763,8.0,87.0,0.0
B,L,"[4, 6]",0.0,1.0,0.34674811363220215,2.0189521312713623,0.5776716394383432,8.0,88.0,0.0
Y,R,"[4, 7]",0.0,1.0,0.25905489921569824,1.6554689407348633,0.3000931373389068,8.0,89.0,0.0
R,U,"[3, 7]",0.0,1.0,0.3684878349304199,2.078192949295044,0.6114272119224862,8.0,90.0,0.0
,,"(6, 6)",,,,,,,,
B,L,"[6, 5]",0.0,0.0,0.5083189010620117,3.677215814590454,0.6715573310092386,9.0,91.0,0.0
R,U,"[5, 5]",0.0,0.0,0.26426100730895996,1.9843010902404785,0.622477144017503,9.0,92.0,0.0
R,U,"[4, 5]",0.0,0.0,0.24700593948364258,2.084311008453369,0.7400211830149713,9.0,93.0,0.0
Y,R,"[4, 6]",0.0,0.0,0.1943509578704834,1.62214994430542,0.32927902275491994,9.0,94.0,0.0
Y,R,"[4, 7]",0.0,0.0,0.3611748218536377,1.729966163635254,0.2591073384702887,9.0,95.0,0.0
R,U,"[3, 7]",0.0,0.0,0.24872994422912598,1.7429780960083008,0.40185750000707976,9.0,96.0,0.0
G,D,"[4, 7]",0.0,0.0,0.34645605087280273,2.0890591144561768,0.640792911396397,9.0,97.0,0.0
G,D,"[5, 7]",1.0,1.0,0.259613037109375,1.6300511360168457,0.2710905598240587,9.0,98.0,0.0
G,D,"[6, 7]",0.0,1.0,0.40948486328125,1.8250060081481934,0.31276985551619085,9.0,99.0,0.0
B,L,"[6, 6]",0.0,1.0,0.31839895248413086,1.9795501232147217,0.5585940810919057,9.0,100.0,0.0
,,"(6, 6)",,,,,,,,
Y,R,"[6, 7]",0.0,0.0,0.6420581340789795,3.736772060394287,0.2953208476717319,10.0,101.0,0.0
G,D,"[7, 7]",0.0,0.0,0.6182730197906494,2.195697069168091,0.4907925733209431,10.0,102.0,0.0
B,L,"[7, 6]",0.0,0.0,0.3292689323425293,2.0659821033477783,0.6400459094887356,10.0,103.0,0.0
R,U,"[6, 6]",0.0,0.0,0.27962207794189453,2.0815680027008057,0.704661859283727,10.0,104.0,0.0
Y,R,"[6, 7]",0.0,0.0,0.2161850929260254,1.7697210311889648,0.45815911907497037,10.0,105.0,0.0
B,L,"[6, 6]",0.0,0.0,0.2619469165802002,1.9243509769439697,0.5655338392376126,10.0,106.0,0.0
G,D,"[7, 6]",0.0,0.0,0.1880931854248047,1.978477954864502,0.6771579276605975,10.0,107.0,0.0
B,L,"[7, 5]",0.0,0.0,0.1844480037689209,1.7771928310394287,0.504589921701726,10.0,108.0,0.0
R,U,"[6, 5]",0.0,0.0,0.35179805755615234,1.9705560207366943,0.5249813496610121,10.0,109.0,0.0
G,D,"[7, 5]",0.0,0.0,0.3434441089630127,2.0005149841308594,0.5586510038672803,10.0,110.0,0.0
,,"(6, 6)",,,,,,,,
B,L,"[6, 5]",0.0,0.0,0.5398910045623779,4.086693048477173,0.4952932140774814,11.0,111.0,0.0
R,U,"[5, 5]",0.0,0.0,0.4879779815673828,1.9523680210113525,0.3643737239190133,11.0,112.0,0.0
G,D,"[6, 5]",0.0,0.0,0.5823318958282471,2.1708390712738037,0.48492619210285215,11.0,113.0,0.0
Y,R,"[6, 6]",0.0,0.0,0.5206949710845947,2.147810935974121,0.5159997505709417,11.0,114.0,0.0
B,L,"[6, 5]",0.0,0.0,0.8265571594238281,2.5866761207580566,0.6524472771774903,11.0,115.0,0.0
R,U,"[5, 5]",0.0,0.0,0.5111830234527588,2.3031280040740967,0.688801757138852,11.0,116.0,0.0
G,D,"[6, 5]",0.0,0.0,0.4485030174255371,2.0552780628204346,0.5109361041604135,11.0,117.0,0.0
Y,R,"[6, 6]",0.0,0.0,0.6670999526977539,2.3789680004119873,0.6230486183682198,11.0,118.0,0.0
B,L,"[6, 5]",0.0,0.0,0.3707239627838135,2.0478758811950684,0.5875422130629584,11.0,119.0,0.0
B,L,"[6, 4]",0.0,0.0,0.42830801010131836,2.2605488300323486,0.7312512300439453,11.0,120.0,0.0
,,"(6, 6)",,,,,,,,
B,L,"[6, 5]",0.0,0.0,0.4086720943450928,4.9470720291137695,0.661435470082659,12.0,121.0,0.0
R,U,"[5, 5]",0.0,0.0,0.5127530097961426,2.181565999984741,0.5764794104104641,12.0,122.0,0.0
G,D,"[6, 5]",0.0,0.0,0.2722737789154053,1.9182448387145996,0.5448219730327313,12.0,123.0,0.0
G,D,"[7, 5]",0.0,0.0,0.18798017501831055,1.5859088897705078,0.3140595843181927,12.0,124.0,0.0
Y,R,"[7, 6]",0.0,0.0,0.38157200813293457,2.2342369556427,0.7478192415423013,12.0,125.0,0.0
B,L,"[7, 5]",0.0,0.0,0.24938702583312988,2.0705080032348633,0.718409033421781,12.0,126.0,0.0
R,U,"[6, 5]",0.0,0.0,0.31093788146972656,1.7416861057281494,0.32683606888385186,12.0,127.0,0.0
G,D,"[7, 5]",0.0,0.0,0.7124218940734863,2.1360790729522705,0.32954860329408203,12.0,128.0,0.0
B,L,"[7, 4]",0.0,0.0,0.8022210597991943,2.444507122039795,0.5405586669389655,12.0,129.0,0.0
G,D,"[8, 4]",0.0,0.0,0.299793004989624,1.6559741497039795,0.26353397266905565,12.0,130.0,0.0
,,"(6, 6)",,,,,,,,
R,U,"[5, 6]",1.0,1.0,0.7969400882720947,3.5468311309814453,0.3767697537785546,13.0,131.0,0.0
Y,R,"[5, 7]",1.0,2.0,0.32098913192749023,1.844731092453003,0.4379032170618844,13.0,132.0,0.0
B,L,"[5, 6]",0.0,2.0,0.21096491813659668,1.8123931884765625,0.5001158100700861,13.0,133.0,0.0
G,D,"[6, 6]",0.0,2.0,0.22497105598449707,1.9015519618988037,0.568395845227111,13.0,134.0,0.0
Y,R,"[6, 7]",0.0,2.0,0.21402788162231445,1.844695806503296,0.5296371584913835,13.0,135.0,0.0
B,L,"[6, 6]",0.0,2.0,0.13680291175842285,1.8909950256347656,0.6536961294465619,13.0,136.0,0.0
R,U,"[5, 6]",-2.0,2.0,1.0713510513305664,2.605340003967285,0.49262135858489675,13.0,137.0,0.0
R,U,"[4, 6]",0.0,2.0,0.27542901039123535,1.7446789741516113,0.3705491991802414,13.0,138.0,0.0
G,D,"[5, 6]",0.0,2.0,0.37012600898742676,1.8458611965179443,0.38301505641504796,13.0,139.0,0.0
R,U,"[4, 6]",0.0,2.0,0.3782939910888672,1.797800064086914,0.31425648313511195,13.0,140.0,0.0
,,"(6, 6)",,,,,,,,
Y,R,"[6, 7]",0.0,0.0,0.8239748477935791,3.7362029552459717,0.28363221608709377,14.0,141.0,0.0
G,D,"[7, 7]",0.0,0.0,0.27706289291381836,1.8360140323638916,0.4529404800698155,14.0,142.0,0.0
G,D,"[8, 7]",-1.0,0.0,0.0008981227874755859,5.4345080852508545,0.30393425734543983,14.0,143.0,0.0
G,D,"[9, 7]",0.0,0.0,0.7830121517181396,2.6044230461120605,0.7243384499073273,14.0,144.0,0.0
R,U,"[8, 7]",0.0,0.0,0.48259711265563965,2.3146750926971436,0.7390165013443111,14.0,145.0,0.0
B,L,"[8, 6]",0.0,0.0,0.328463077545166,1.8972687721252441,0.46993620014274,14.0,146.0,0.0
Y,R,"[8, 7]",0.0,0.0,0.2692561149597168,1.9774091243743896,0.6134713221346803,14.0,147.0,0.0
Y,R,"[8, 8]",0.0,0.0,0.31815004348754883,2.092858076095581,0.6731517082937819,14.0,148.0,0.0
G,D,"[9, 8]",0.0,0.0,0.19965720176696777,1.9394731521606445,0.6462301271751887,14.0,149.0,0.0
R,U,"[8, 8]",0.0,0.0,0.2360241413116455,1.7466449737548828,0.40945440145612944,14.0,150.0,0.0
,,"(6, 6)",,,,,,,,
B,L,"[6, 5]",0.0,0.0,0.554203987121582,3.3738508224487305,0.2501151946170453,15.0,151.0,0.0
G,D,"[7, 5]",0.0,0.0,0.5069339275360107,2.1537740230560303,0.5368950127878108,15.0,152.0,0.0
R,U,"[6, 5]",-1.0,0.0,0.056468963623046875,5.763261079788208,0.5830169391020315,15.0,153.0,0.0
R,U,"[5, 5]",0.0,0.0,0.48360300064086914,1.902820110321045,0.3192590485073885,15.0,154.0,0.0
Y,R,"[5, 6]",1.0,1.0,0.4033999443054199,2.184319019317627,0.6866119791573397,15.0,155.0,0.0
Y,R,"[5, 7]",1.0,2.0,0.5174620151519775,2.354034900665283,0.7404474587863844,15.0,156.0,0.0
G,D,"[6, 7]",0.0,2.0,0.36866211891174316,2.026108980178833,0.5667778204349541,15.0,157.0,0.0
Y,R,"[6, 8]",1.0,3.0,0.5112922191619873,1.9347691535949707,0.31831062890652295,15.0,158.0,0.0
Y,R,"[6, 9]",1.0,4.0,0.5079638957977295,2.073965072631836,0.4589034385802466,15.0,159.0,0.0
Y,R,"[6, 10]",1.0,5.0,0.5453319549560547,1.8947489261627197,0.25361814992999654,15.0,160.0,0.0
,,"(6, 6)",,,,,,,,
R,U,"[5, 6]",-2.0,0.0,1.397810935974121,4.466835021972656,0.3368760314065095,16.0,161.0,0.0
Y,R,"[5, 7]",1.0,1.0,0.6112120151519775,2.4301390647888184,0.7172233702260323,16.0,162.0,0.0
Y,R,"[5, 8]",1.0,2.0,0.40435791015625,1.9305839538574219,0.4307502395643971,16.0,163.0,0.0
R,U,"[4, 8]",0.0,2.0,0.3779308795928955,1.7424430847167969,0.25646935858460673,16.0,164.0,0.0
Y,R,"[4, 9]",1.0,3.0,0.11345601081848145,1.58638596534729,0.37608090649648107,16.0,165.0,0.0
Y,R,"[4, 10]",1.0,4.0,0.5130560398101807,2.081387996673584,0.47422983532160917,16.0,166.0,0.0
Y,R,"[4, 11]",0.0,4.0,0.47969508171081543,2.014725923538208,0.43881740020922866,16.0,167.0,0.0
G,D,"[5, 11]",0.0,4.0,0.43401598930358887,1.8347790241241455,0.30698191234374905,16.0,168.0,0.0
B,L,"[5, 10]",1.0,5.0,0.3136119842529297,1.946094036102295,0.5362091852101136,16.0,169.0,0.0
R,U,"[4, 10]",0.0,5.0,0.31261610984802246,2.1538829803466797,0.7397053818850754,16.0,170.0,0.0
,,"(6, 6)",,,,,,,,
B,L,"[6, 5]",0.0,0.0,0.7744879722595215,3.729081869125366,0.6353324827563473,17.0,171.0,0.0
G,D,"[7, 5]",0.0,0.0,0.33617305755615234,1.6894619464874268,0.2584920739109868,17.0,172.0,0.0
Y,R,"[7, 6]",0.0,0.0,0.8148319721221924,2.2008109092712402,0.2925891323817644,17.0,173.0,0.0
R,U,"[6, 6]",0.0,0.0,0.7208437919616699,2.453904867172241,0.646079015992423,17.0,174.0,0.0
B,L,"[6, 5]",0.0,0.0,0.32105207443237305,2.0585570335388184,0.6378261163966085,17.0,175.0,0.0
G,D,"[7, 5]",-1.0,0.0,0.07288193702697754,5.611415147781372,0.39927925779645773,17.0,176.0,0.0
G,D,"[8, 5]",0.0,0.0,0.3752710819244385,2.093524932861328,0.6092159169156719,17.0,177.0,0.0
Y,R,"[8, 6]",0.0,0.0,0.7309360504150391,2.235487937927246,0.4117623517169584,17.0,178.0,0.0
B,L,"[8, 5]",0.0,0.0,0.6275670528411865,2.41766095161438,0.6953650280494388,17.0,179.0,0.0
R,U,"[7, 5]",0.0,0.0,0.4832010269165039,2.1882941722869873,0.6004287288806902,17.0,180.0,0.0
,,"(6, 6)",,,,,,,,
Y,R,"[6, 7]",0.0,0.0,0.5734748840332031,3.6562139987945557,0.6731178714777075,18.0,181.0,0.0
R,U,"[5, 7]",1.0,1.0,0.30380916595458984,1.7564659118652344,0.36323432327171046,18.0,182.0,0.0
G,D,"[6, 7]",0.0,1.0,0.47722911834716797,2.118783950805664,0.5317991450671498,18.0,183.0,0.0
R,U,"[5, 7]",0.0,1.0,0.5175681114196777,2.0000131130218506,0.381870275385273,18.0,184.0,0.0
B,L,"[5, 6]",1.0,2.0,0.2773599624633789,1.7460498809814453,0.36123608010964425,18.0,185.0,0.0
B,L,"[5, 5]",0.0,2.0,0.6300311088562012,1.9828829765319824,0.2609091535687676,18.0,186.0,0.0
Y,R,"[5, 6]",0.0,2.0,0.42165398597717285,1.7805061340332031,0.25784401132716805,18.0,187.0,0.0
Y,R,"[5, 7]",0.0,2.0,0.27025485038757324,1.6375279426574707,0.27878974297909137,18.0,188.0,0.0
G,D,"[6, 7]",0.0,2.0,0.25890088081359863,1.9669010639190674,0.6120059463255352,18.0,189.0,0.0
R,U,"[5, 7]",0.0,2.0,0.20522093772888184,1.6015379428863525,0.2972155827905199,18.0,190.0,0.0
,,"(6, 6)",,,,,,,,
Y,R,"[6, 7]",0.0,0.0,0.1975100040435791,2.8194739818573,0.3163970844989865,19.0,191.0,0.0
G,D,"[7, 7]",0.0,0.0,0.5138030052185059,1.8774030208587646,0.2604134154269183,19.0,192.0,0.0
B,L,"[7, 6]",0.0,0.0,0.3590729236602783,1.7681469917297363,0.31186379609871373,19.0,193.0,0.0
R,U,"[6, 6]",0.0,0.0,0.27053308486938477,2.040485143661499,0.6686683199530994,19.0,194.0,0.0
R,U,"[5, 6]",1.0,1.0,0.34844088554382324,1.999450922012329,0.551425330190513,19.0,195.0,0.0
B,L,"[5, 5]",0.0,1.0,0.5645010471343994,2.248582124710083,0.5832419746637899,19.0,196.0,0.0
Y,R,"[5, 6]",0.0,1.0,0.3282959461212158,1.7684359550476074,0.3351096321204903,19.0,197.0,0.0
R,U,"[4, 6]",0.0,1.0,0.33968400955200195,1.873417854309082,0.42538099955576664,19.0,198.0,0.0
G,D,"[5, 6]",0.0,1.0,0.37895798683166504,1.8297698497772217,0.35491547212467556,19.0,199.0,0.0
B,L,"[5, 5]",0.0,1.0,0.43964695930480957,2.2452218532562256,0.7163030104190111,19.0,200.0,0.0
,,"(6, 6)",,,,,,,,
G,D,"[7, 6]",0.0,0.0,0.8650109767913818,3.9398858547210693,0.7393588927094348,20.0,201.0,0.0
B,L,"[7, 5]",0.0,0.0,0.25152111053466797,1.9153499603271484,0.5714089421651216,20.0,202.0,0.0
R,U,"[6, 5]",0.0,0.0,0.8014650344848633,2.291321039199829,0.39625387592725625,20.0,203.0,0.0
Y,R,"[6, 6]",0.0,0.0,0.4516129493713379,2.228482961654663,0.674477198794798,20.0,204.0,0.0
R,U,"[5, 6]",1.0,1.0,0.10970711708068848,1.8944671154022217,0.6856778696156105,20.0,205.0,0.0
R,U,"[4, 6]",0.0,1.0,0.44197988510131836,1.9996869564056396,0.45206175709145346,20.0,206.0,0.0
Y,R,"[4, 7]",0.0,1.0,0.4016299247741699,1.958357810974121,0.4603788264709887,20.0,207.0,0.0
B,L,"[4, 6]",0.0,1.0,0.48579907417297363,2.147167921066284,0.5739178260638236,20.0,208.0,0.0
G,D,"[5, 6]",0.0,1.0,0.3989729881286621,2.115983009338379,0.6231744304359143,20.0,209.0,0.0
Y,R,"[5, 7]",1.0,2.0,0.8779139518737793,2.557541847229004,0.5806841481090128,20.0,210.0,0.0
,,"(6, 6)",,,,,,,,
Y,R,"[6, 7]",0.0,0.0,0.6020858287811279,2.943963050842285,0.2748500214353658,21.0,211.0,0.0
G,D,"[7, 7]",0.0,0.0,0.45287513732910156,1.7929470539093018,0.25114986822374996,21.0,212.0,0.0
R,U,"[6, 7]",0.0,0.0,0.26880908012390137,1.6788411140441895,0.3131277013906396,21.0,213.0,0.0
B,L,"[6, 6]",0.0,0.0,0.3475780487060547,1.973383903503418,0.5195561978765328,21.0,214.0,0.0
G,D,"[7, 6]",0.0,0.0,0.2936739921569824,2.0113840103149414,0.6140927028958991,21.0,215.0,0.0
Y,R,"[7, 7]",0.0,0.0,0.5646460056304932,2.4025511741638184,0.7330958978211176,21.0,216.0,0.0
R,U,"[6, 7]",0.0,0.0,0.10303187370300293,1.528317928314209,0.3285491090363414,21.0,217.0,0.0
Y,R,"[6, 8]",1.0,1.0,0.4563009738922119,2.0061819553375244,0.4510702016464384,21.0,218.0,0.0
B,L,"[6, 7]",0.0,1.0,0.31958889961242676,1.7719998359680176,0.35661369222614264,21.0,219.0,0.0
G,D,"[7, 7]",0.0,1.0,0.41996312141418457,1.96750807762146,0.4571146590960509,21.0,220.0,0.0
,,"(6, 6)",,,,,,,,
G,D,"[7, 6]",-2.0,0.0,1.0472521781921387,3.5974490642547607,0.3546619665362827,22.0,221.0,0.0
G,D,"[8, 6]",0.0,0.0,0.6093430519104004,2.127397060394287,0.41529003670296116,22.0,222.0,0.0
B,L,"[8, 5]",0.0,0.0,0.552833080291748,2.371535062789917,0.7196701786349868,22.0,223.0,0.0
R,U,"[7, 5]",0.0,0.0,0.3661918640136719,1.792388916015625,0.32909536560146957,22.0,224.0,0.0
Y,R,"[7, 6]",0.0,0.0,0.5240261554718018,2.135627031326294,0.4977486183819608,22.0,225.0,0.0
Y,R,"[7, 7]",0.0,0.0,0.38571715354919434,2.06046199798584,0.5749015353272782,22.0,226.0,0.0
B,L,"[7, 6]",0.0,0.0,0.40865492820739746,2.2011399269104004,0.6924328265467075,22.0,227.0,0.0
B,L,"[7, 5]",0.0,0.0,0.23278284072875977,1.951218843460083,0.6271201688307257,22.0,228.0,0.0
B,L,"[7, 4]",0.0,0.0,0.205704927444458,1.610663890838623,0.30479670908375067,22.0,229.0,0.0
G,D,"[8, 4]",0.0,0.0,0.2844259738922119,1.726773977279663,0.34804726878392434,22.0,230.0,0.0
,,"(6, 6)",,,,,,,,
R,U,"[5, 6]",1.0,1.0,0.5301671028137207,3.8224761486053467,0.6866803365148965,23.0,231.0,0.0
R,U,"[4, 6]",0.0,1.0,0.29876089096069336,2.1353189945220947,0.7386086922405191,23.0,232.0,0.0
G,D,"[5, 6]",0.0,1.0,0.24152112007141113,2.079265832901001,0.734318531233475,23.0,233.0,0.0
Y,R,"[5, 7]",1.0,2.0,0.31612420082092285,1.816309928894043,0.4010026298680039,23.0,234.0,0.0
Y,R,"[5, 8]",1.0,3.0,0.4682168960571289,2.1689229011535645,0.6028629101855887,23.0,235.0,0.0
Y,R,"[5, 9]",0.0,3.0,0.32261109352111816,2.0480878353118896,0.6341585654011211,23.0,236.0,0.0
B,L,"[5, 8]",0.0,3.0,0.20165705680847168,1.8673839569091797,0.5682451512155308,23.0,237.0,0.0
R,U,"[4, 8]",0.0,3.0,0.28098201751708984,2.006537914276123,0.6249439133206873,23.0,238.0,0.0
G,D,"[5, 8]",0.0,3.0,0.3289780616760254,1.760810136795044,0.3358369452229884,23.0,239.0,0.0
B,L,"[5, 7]",0.0,3.0,0.4123809337615967,1.9192512035369873,0.4048571922860775,23.0,240.0,0.0
,,"(6, 6)",,,,,,,,
R,U,"[5, 6]",1.0,1.0,0.5470089912414551,3.2368710041046143,0.6580497599123591,24.0,241.0,0.0
G,D,"[6, 6]",0.0,1.0,0.684110164642334,2.2563488483428955,0.48139739402070353,24.0,242.0,0.0
Y,R,"[6, 7]",0.0,1.0,0.40547800064086914,2.093867063522339,0.5916368573400971,24.0,243.0,0.0
B,L,"[6, 6]",0.0,1.0,0.36319518089294434,1.7829339504241943,0.3247740169808353,24.0,244.0,0.0
G,D,"[7, 6]",0.0,1.0,0.22387099266052246,2.0319228172302246,0.7063827011193676,24.0,245.0,0.0
R,U,"[6, 6]",0.0,1.0,0.16669607162475586,1.6930160522460938,0.4328175240502649,24.0,246.0,0.0
G,D,"[7, 6]",0.0,1.0,0.225294828414917,2.0571091175079346,0.723062867878525,24.0,247.0,0.0
Y,R,"[7, 7]",0.0,1.0,0.2483370304107666,1.9668447971343994,0.6231325034995885,24.0,248.0,0.0
B,L,"[7, 6]",0.0,1.0,0.4626600742340088,1.9228980541229248,0.36269988717983787,24.0,249.0,0.0
R,U,"[6, 6]",0.0,1.0,0.4282550811767578,1.8795881271362305,0.3423865142964317,24.0,250.0,0.0
,,"(6, 6)",,,,,,,,
G,D,"[7, 6]",0.0,0.0,0.669867992401123,3.5614449977874756,0.5866671839530724,25.0,251.0,0.0
Y,R,"[7, 7]",0.0,0.0,0.334611177444458,1.9836299419403076,0.5536685876916578,25.0,252.0,0.0
R,U,"[6, 7]",0.0,0.0,0.27240800857543945,1.9588730335235596,0.579360842731278,25.0,253.0,0.0
B,L,"[6, 6]",0.0,0.0,0.5480220317840576,2.262125015258789,0.6077845817974883,25.0,254.0,0.0
G,D,"[7, 6]",0.0,0.0,0.3318519592285156,1.8230209350585938,0.397619240165031,25.0,255.0,0.0
Y,R,"[7, 7]",0.0,0.0,0.5883569717407227,1.9810638427734375,0.29539779326138316,25.0,256.0,0.0
R,U,"[6, 7]",0.0,0.0,0.4227149486541748,1.903325080871582,0.3819887988277909,25.0,257.0,0.0
G,D,"[7, 7]",0.0,0.0,0.12198019027709961,1.6072769165039062,0.38922305877009156,25.0,258.0,0.0
B,L,"[7, 6]",0.0,0.0,0.9432380199432373,2.33038592338562,0.28641088002413034,25.0,259.0,0.0
G,D,"[8, 6]",0.0,0.0,0.4926459789276123,1.986292839050293,0.3889679896470833,25.0,260.0,0.0
,,"(6, 6)",,,,,,,,
G,D,"[7, 6]",-2.0,0.0,1.0046591758728027,3.5249128341674805,0.41399572959861586,26.0,261.0,0.0
G,D,"[8, 6]",0.0,0.0,0.19086408615112305,1.5948748588562012,0.2920818946402263,26.0,262.0,0.0
R,U,"[7, 6]",0.0,0.0,0.3546149730682373,2.124298095703125,0.6659446502963436,26.0,263.0,0.0
B,L,"[7, 5]",0.0,0.0,0.3433501720428467,1.9031331539154053,0.4527804234964529,26.0,264.0,0.0
Y,R,"[7, 6]",0.0,0.0,0.24818801879882812,1.7904150485992432,0.4428512920284421,26.0,265.0,0.0
Y,R,"[7, 7]",0.0,0.0,0.24880599975585938,1.962953805923462,0.6222946774525342,26.0,266.0,0.0
R,U,"[6, 7]",0.0,0.0,0.45421791076660156,2.1834139823913574,0.6389362002784555,26.0,267.0,0.0
B,L,"[6, 6]",-1.0,0.0,0.06176590919494629,5.715165138244629,0.5206917117566199,26.0,268.0,0.0
B,L,"[6, 5]",-2.0,0.0,1.178638219833374,2.826268196105957,0.6137670039528985,26.0,269.0,0.0
G,D,"[7, 5]",0.0,0.0,0.23965811729431152,1.7571899890899658,0.40437051557614967,26.0,270.0,0.0
,,"(6, 6)",,,,,,,,
B,L,"[6, 5]",0.0,0.0,0.4546527862548828,3.3908910751342773,0.5946847649604066,27.0,271.0,0.0
Y,R,"[6, 6]",0.0,0.0,0.29514098167419434,2.1314120292663574,0.7431081000574383,27.0,272.0,0.0
R,U,"[5, 6]",1.0,1.0,0.2477428913116455,1.678166151046753,0.33789438492751295,27.0,273.0,0.0
R,U,"[4, 6]",0.0,1.0,0.44295597076416016,1.925915002822876,0.38055280883712794,27.0,274.0,0.0
G,D,"[5, 6]",0.0,1.0,0.282210111618042,1.722447156906128,0.3361198423433678,27.0,275.0,0.0
Y,R,"[5, 7]",1.0,2.0,0.1896190643310547,1.7267839908599854,0.4294198973344616,27.0,276.0,0.0
Y,R,"[5, 8]",1.0,3.0,0.38996005058288574,1.9671220779418945,0.46298743725220515,27.0,277.0,0.0
B,L,"[5, 7]",0.0,3.0,0.40026307106018066,1.767975091934204,0.26450843031153204,27.0,278.0,0.0
Y,R,"[5, 8]",0.0,3.0,0.5326938629150391,1.9972360134124756,0.3617732423586736,27.0,279.0,0.0
G,D,"[6, 8]",1.0,4.0,0.4522979259490967,2.113342046737671,0.5745894480749802,27.0,280.0,0.0
,,"(6, 6)",,,,,,,,
G,D,"[7, 6]",0.0,0.0,0.714655876159668,3.446074962615967,0.3706838346692351,28.0,281.0,0.0
B,L,"[7, 5]",0.0,0.0,0.33630800247192383,1.687701940536499,0.2585316919905502,28.0,282.0,0.0
Y,R,"[7, 6]",0.0,0.0,0.37212109565734863,1.968013048171997,0.47633406153722585,28.0,283.0,0.0
G,D,"[8, 6]",0.0,0.0,0.2364799976348877,1.5771701335906982,0.253825714034453,28.0,284.0,0.0
B,L,"[8, 5]",0.0,0.0,0.34305405616760254,2.0942819118499756,0.6474457357472843,28.0,285.0,0.0
R,U,"[7, 5]",0.0,0.0,0.22803306579589844,1.821444034576416,0.485588830625268,28.0,286.0,0.0
G,D,"[8, 5]",0.0,0.0,0.3852379322052002,1.8345251083374023,0.35349290952347756,28.0,287.0,0.0
Y,R,"[8, 6]",0.0,0.0,0.2367539405822754,1.921755075454712,0.5916976985218637,28.0,288.0,0.0
B,L,"[8, 5]",0.0,0.0,0.11349201202392578,1.4787240028381348,0.2706363211337792,28.0,289.0,0.0
R,U,"[7, 5]",0.0,0.0,0.48464012145996094,2.0527408123016357,0.47333710912291743,28.0,290.0,0.0
,,"(6, 6)",,,,,,,,
G,D,"[7, 6]",0.0,0.0,0.3901641368865967,3.9117588996887207,0.6352625742213704,29.0,291.0,0.0
B,L,"[7, 5]",0.0,0.0,0.22519612312316895,2.0646119117736816,0.7325632054961153,29.0,292.0,0.0
Y,R,"[7, 6]",0.0,0.0,0.22847294807434082,2.004150152206421,0.669858816456576,29.0,293.0,0.0
Y,R,"[7, 7]",0.0,0.0,0.25126004219055176,1.9554321765899658,0.6086816624465778,29.0,294.0,0.0
R,U,"[6, 7]",0.0,0.0,0.19243788719177246,1.861677885055542,0.5703919812994112,29.0,295.0,0.0
B,L,"[6, 6]",0.0,0.0,0.2944469451904297,1.8287770748138428,0.4325515717927143,29.0,296.0,0.0
G,D,"[7, 6]",0.0,0.0,0.27446508407592773,1.7264180183410645,0.3422514457421529,29.0,297.0,0.0
Y,R,"[7, 7]",0.0,0.0,0.35271310806274414,1.767632007598877,0.32679049093352525,29.0,298.0,0.0
Y,R,"[7, 8]",0.0,0.0,0.26519012451171875,1.987968921661377,0.6308803717682107,29.0,299.0,0.0
R,U,"[6, 8]",1.0,1.0,0.44394707679748535,2.065837860107422,0.5135750005991252,29.0,300.0,0.0
,,"(6, 6)",,,,,,,,
B,L,"[6, 5]",0.0,0.0,0.46447205543518066,3.482269048690796,0.7286773665746058,30.0,301.0,0.0
R,U,"[5, 5]",0.0,0.0,0.4748690128326416,1.9075720310211182,0.3032620069513191,30.0,302.0,0.0
G,D,"[6, 5]",0.0,0.0,0.5156371593475342,2.2212440967559814,0.6075046972626355,30.0,303.0,0.0
Y,R,"[6, 6]",0.0,0.0,0.28330302238464355,1.7983121871948242,0.4224537144896726,30.0,304.0,0.0
B,L,"[6, 5]",0.0,0.0,0.38919496536254883,2.2175800800323486,0.7230763779252578,30.0,305.0,0.0
R,U,"[5, 5]",0.0,0.0,0.33743906021118164,1.7278461456298828,0.3012499925778076,30.0,306.0,0.0
G,D,"[6, 5]",0.0,0.0,0.3390522003173828,1.7527821063995361,0.32060255706419494,30.0,307.0,0.0
Y,R,"[6, 6]",0.0,0.0,0.3821589946746826,2.1473450660705566,0.6674725876759398,30.0,308.0,0.0
B,L,"[6, 5]",0.0,0.0,0.37700891494750977,1.9976282119750977,0.5155475123286224,30.0,309.0,0.0
B,L,"[6, 4]",0.0,0.0,0.2760288715362549,1.730499029159546,0.3459670874383906,30.0,310.0,0.0
,,"(6, 6)",,,,,,,,
B,L,"[6, 5]",0.0,0.0,0.42162299156188965,3.129390001296997,0.442006004684889,31.0,311.0,0.0
R,U,"[5, 5]",0.0,0.0,0.33393287658691406,2.1656999588012695,0.7406808165482816,31.0,312.0,0.0
Y,R,"[5, 6]",-1.0,0.0,0.08649206161499023,5.648483037948608,0.4392847785706992,31.0,313.0,0.0
Y,R,"[5, 7]",1.0,1.0,0.901170015335083,2.288316011428833,0.2940408463793501,31.0,314.0,0.0
G,D,"[6, 7]",0.0,1.0,0.7627389430999756,2.1179587841033936,0.2619591508809185,31.0,315.0,0.0
G,D,"[7, 7]",0.0,1.0,0.5910618305206299,1.9526700973510742,0.26476614632152706,31.0,316.0,0.0
R,U,"[6, 7]",0.0,1.0,0.7103829383850098,2.2827789783477783,0.4639502070761055,31.0,317.0,0.0
B,L,"[6, 6]",0.0,1.0,0.6240959167480469,2.232058048248291,0.4957001543960646,31.0,318.0,0.0
G,D,"[7, 6]",0.0,1.0,0.5205788612365723,1.9824419021606445,0.3616874050874758,31.0,319.0,0.0
Y,R,"[7, 7]",0.0,1.0,0.7284729480743408,2.0853209495544434,0.2636694457444984,31.0,320.0,0.0
,,"(6, 6)",,,,,,,,
R,U,"[5, 6]",1.0,1.0,0.8667731285095215,4.355792045593262,0.4856595001728766,32.0,321.0,0.0
R,U,"[4, 6]",0.0,1.0,0.28475403785705566,1.9892961978912354,0.608379891291762,32.0,322.0,0.0
Y,R,"[4, 7]",0.0,1.0,0.24550700187683105,1.8350410461425781,0.49323398473027824,32.0,323.0,0.0
B,L,"[4, 6]",0.0,1.0,0.31909990310668945,1.7875869274139404,0.38082705337314465,32.0,324.0,0.0
Y,R,"[4, 7]",0.0,1.0,0.4430248737335205,1.9984099864959717,0.44588938124437133,32.0,325.0,0.0
G,D,"[5, 7]",1.0,2.0,0.32000017166137695,2.1360549926757812,0.7151794723636729,32.0,326.0,0.0
Y,R,"[5, 8]",1.0,3.0,0.22278380393981934,1.7640149593353271,0.4295582436643293,32.0,327.0,0.0
Y,R,"[5, 9]",0.0,3.0,0.359083890914917,2.126005172729492,0.6549230879453146,32.0,328.0,0.0
R,U,"[4, 9]",1.0,4.0,0.2303149700164795,2.075516939163208,0.7469583218024226,32.0,329.0,0.0
B,L,"[4, 8]",0.0,4.0,0.40311503410339355,1.9921131134033203,0.489245880035875,32.0,330.0,0.0
,,"(6, 6)",,,,,,,,
G,D,"[7, 6]",0.0,0.0,0.47948789596557617,3.748363971710205,0.45435059171183506,33.0,331.0,0.0
R,U,"[6, 6]",0.0,0.0,0.25923895835876465,2.110562801361084,0.7482644885635779,33.0,332.0,0.0
Y,R,"[6, 7]",0.0,0.0,0.23374104499816895,1.6980390548706055,0.36267099569590794,33.0,333.0,0.0
B,L,"[6, 6]",0.0,0.0,0.28180694580078125,1.6388490200042725,0.25157613274615603,33.0,334.0,0.0
B,L,"[6, 5]",0.0,0.0,0.2544829845428467,1.7926361560821533,0.42728654478181316,33.0,335.0,0.0
Y,R,"[6, 6]",0.0,0.0,0.35422706604003906,2.1384270191192627,0.6986485214474177,33.0,336.0,0.0
Y,R,"[6, 7]",0.0,0.0,0.28905200958251953,1.8538057804107666,0.45269650195353583,33.0,337.0,0.0
Y,R,"[6, 8]",1.0,1.0,0.3289928436279297,2.123746871948242,0.6931766511320583,33.0,338.0,0.0
Y,R,"[6, 9]",1.0,2.0,0.3004891872406006,1.7219700813293457,0.3317937396140072,33.0,339.0,0.0
Y,R,"[6, 10]",1.0,3.0,0.5039498805999756,2.0660929679870605,0.46456788240830527,33.0,340.0,0.0
,,"(6, 6)",,,,,,,,
Y,R,"[6, 7]",-2.0,0.0,1.379634141921997,4.1431639194488525,0.5407125199932841,34.0,341.0,0.0
Y,R,"[6, 8]",1.0,1.0,0.8270609378814697,2.6024179458618164,0.6761386912830106,34.0,342.0,0.0
Y,R,"[6, 9]",1.0,2.0,0.2658669948577881,1.9982280731201172,0.6409881310063397,34.0,343.0,0.0
Y,R,"[6, 10]",1.0,3.0,0.36780381202697754,2.054119825363159,0.5952369517447198,34.0,344.0,0.0
Y,R,"[6, 11]",-2.0,3.0,1.034787893295288,2.3465089797973633,0.29188873025368955,34.0,345.0,0.0
Y,R,"[6, 10]",-3.0,3.0,0.24166393280029297,2.053598165512085,0.7117440033428328,34.0,346.0,0.0
Y,R,"[6, 11]",0.0,3.0,0.47469496726989746,2.167314052581787,0.5957152428729526,34.0,347.0,0.0
Y,R,"[6, 10]",-3.0,3.0,0.31632494926452637,1.746812105178833,0.3261793601512944,34.0,348.0,0.0
G,D,"[7, 10]",0.0,3.0,0.23006010055541992,2.0214381217956543,0.6971466934653252,34.0,349.0,0.0
R,U,"[6, 10]",0.0,3.0,0.22159099578857422,1.850114107131958,0.5309354891088072,34.0,350.0,0.0
,,"(6, 6)",,,,,,,,
B,L,"[6, 5]",0.0,0.0,0.5630550384521484,3.649919033050537,0.3139972264542114,35.0,351.0,0.0
Y,R,"[6, 6]",0.0,0.0,0.7234580516815186,2.473550796508789,0.6370388088262791,35.0,352.0,0.0
G,D,"[7, 6]",0.0,0.0,0.18044495582580566,1.7650880813598633,0.48596008892481896,35.0,353.0,0.0
R,U,"[6, 6]",0.0,0.0,0.22000789642333984,1.9569730758666992,0.6423317004018567,35.0,354.0,0.0
B,L,"[6, 5]",0.0,0.0,0.3453710079193115,1.712932825088501,0.2722301130171553,35.0,355.0,0.0
Y,R,"[6, 6]",0.0,0.0,0.5045650005340576,2.1283249855041504,0.5171621855270118,35.0,356.0,0.0
Y,R,"[6, 7]",0.0,0.0,0.3261551856994629,1.9097180366516113,0.4769686991356247,35.0,357.0,0.0
G,D,"[7, 7]",0.0,0.0,0.3501091003417969,1.862414836883545,0.42242628786836633,35.0,358.0,0.0
R,U,"[6, 7]",0.0,0.0,0.3113079071044922,2.086805820465088,0.6756518449788929,35.0,359.0,0.0
B,L,"[6, 6]",0.0,0.0,0.1589372158050537,1.6469719409942627,0.38944399352108033,35.0,360.0,0.0
,,"(6, 6)",,,,,,,,
G,D,"[7, 6]",0.0,0.0,0.5699701309204102,3.1312530040740967,0.2539128931348389,36.0,361.0,0.0
Y,R,"[7, 7]",0.0,0.0,0.5672600269317627,2.2622201442718506,0.5991221889203945,36.0,362.0,0.0
B,L,"[7, 6]",0.0,0.0,0.2788259983062744,1.9470620155334473,0.5630710403840692,36.0,363.0,0.0
R,U,"[6, 6]",-1.0,0.0,0.09122085571289062,5.705418825149536,0.4847354930572008,36.0,364.0,0.0
R,U,"[5, 6]",1.0,1.0,0.3576638698577881,2.112993001937866,0.6476577613819448,36.0,365.0,0.0
R,U,"[4, 6]",-2.0,1.0,1.3311519622802734,2.7459371089935303,0.3770536913208568,36.0,366.0,0.0
R,U,"[3, 6]",0.0,1.0,0.16492199897766113,1.6149020195007324,0.35853116544764424,36.0,367.0,0.0
B,L,"[3, 5]",0.0,1.0,0.7349820137023926,2.3014209270477295,0.4763974662718548,36.0,368.0,0.0
G,D,"[4, 5]",0.0,1.0,0.2809159755706787,1.7501561641693115,0.3767878129987039,36.0,369.0,0.0
Y,R,"[4, 6]",0.0,1.0,0.5269348621368408,2.0181591510772705,0.395102718948114,36.0,370.0,0.0
,,"(6, 6)",,,,,,,,
Y,R,"[6, 7]",0.0,0.0,0.3980710506439209,3.215847969055176,0.6102516062013015,37.0,371.0,0.0
B,L,"[6, 6]",0.0,0.0,0.11753392219543457,1.6692450046539307,0.4628755261345692,37.0,372.0,0.0
G,D,"[7, 6]",0.0,0.0,0.1371629238128662,1.8474969863891602,0.6102686780772472,37.0,373.0,0.0
R,U,"[6, 6]",0.0,0.0,0.3957550525665283,2.2092490196228027,0.719387864489307,37.0,374.0,0.0
B,L,"[6, 5]",0.0,0.0,0.29917097091674805,1.8488950729370117,0.4516610909239268,37.0,375.0,0.0
G,D,"[7, 5]",0.0,0.0,0.30407190322875977,2.0619630813598633,0.6634661023438565,37.0,376.0,0.0
Y,R,"[7, 6]",0.0,0.0,0.2983419895172119,2.090536117553711,0.6876769347161473,37.0,377.0,0.0
R,U,"[6, 6]",0.0,0.0,0.22766590118408203,1.8248331546783447,0.4954653509514634,37.0,378.0,0.0
B,L,"[6, 5]",-1.0,0.0,0.09729409217834473,5.545660972595215,0.3246759277595684,37.0,379.0,0.0
B,L,"[6, 4]",0.0,0.0,0.24518418312072754,1.758687973022461,0.416553762308812,37.0,380.0,0.0
,,"(6, 6)",,,,,,,,
G,D,"[7, 6]",-2.0,0.0,1.1494479179382324,5.017745018005371,0.5837824634534579,38.0,381.0,0.0
B,L,"[7, 5]",0.0,0.0,0.25481200218200684,2.006817102432251,0.657006384979272,38.0,382.0,0.0
Y,R,"[7, 6]",0.0,0.0,0.31772613525390625,1.8226828575134277,0.41335751935765586,38.0,383.0,0.0
R,U,"[6, 6]",0.0,0.0,0.378338098526001,1.7767879962921143,0.2900918378678254,38.0,384.0,0.0
G,D,"[7, 6]",0.0,0.0,0.4536569118499756,2.273437976837158,0.7296809665335351,38.0,385.0,0.0
G,D,"[8, 6]",0.0,0.0,0.2102069854736328,1.9146249294281006,0.5944075672062412,38.0,386.0,0.0
B,L,"[8, 5]",0.0,0.0,0.3042759895324707,1.9351320266723633,0.5462967674786909,38.0,387.0,0.0
Y,R,"[8, 6]",0.0,0.0,0.25229811668395996,2.000441789627075,0.6463828652053776,38.0,388.0,0.0
R,U,"[7, 6]",0.0,0.0,0.45821094512939453,2.2953901290893555,0.7253325550329244,38.0,389.0,0.0
B,L,"[7, 5]",0.0,0.0,0.23489809036254883,1.7502110004425049,0.4257598142241631,38.0,390.0,0.0
,,"(6, 6)",,,,,,,,
G,D,"[7, 6]",0.0,0.0,0.4647212028503418,4.646129846572876,0.7211985966639328,39.0,391.0,0.0
B,L,"[7, 5]",0.0,0.0,0.2478799819946289,1.8138389587402344,0.4688539921020315,39.0,392.0,0.0
Y,R,"[7, 6]",0.0,0.0,0.2180309295654297,1.8792870044708252,0.5643192435349846,39.0,393.0,0.0
B,L,"[7, 5]",0.0,0.0,0.20900511741638184,1.6255559921264648,0.30660302145322266,39.0,394.0,0.0
G,D,"[8, 5]",0.0,0.0,0.40697503089904785,2.1360490322113037,0.6259337979762621,39.0,395.0,0.0
R,U,"[7, 5]",0.0,0.0,0.2636280059814453,1.8940379619598389,0.5364451495311189,39.0,396.0,0.0
Y,R,"[7, 6]",0.0,0.0,0.20333099365234375,1.9368610382080078,0.6398378533711078,39.0,397.0,0.0
B,L,"[7, 5]",0.0,0.0,0.15047502517700195,1.7466809749603271,0.5033828640429754,39.0,398.0,0.0
G,D,"[8, 5]",-1.0,0.0,0.08618497848510742,5.701140880584717,0.48767314751349755,39.0,399.0,0.0
G,D,"[9, 5]",0.0,0.0,0.39371299743652344,1.9158539772033691,0.42036473100478844,39.0,400.0,0.0
,,"(6, 6)",,,,,,,,
Y,R,"[6, 7]",0.0,0.0,0.5361859798431396,4.091277122497559,0.4114768242162357,40.0,401.0,0.0
G,D,"[7, 7]",0.0,0.0,0.5173819065093994,2.3503000736236572,0.7447518359751076,40.0,402.0,0.0
B,L,"[7, 6]",0.0,0.0,0.5222220420837402,1.9244561195373535,0.28604783248211546,40.0,403.0,0.0
R,U,"[6, 6]",0.0,0.0,0.48072004318237305,2.0169517993927,0.43606810725846085,40.0,404.0,0.0
G,D,"[7, 6]",0.0,0.0,0.2699131965637207,1.690100908279419,0.32638181891111173,40.0,405.0,0.0
Y,R,"[7, 7]",-1.0,0.0,0.0621800422668457,5.765591859817505,0.5748597524497214,40.0,406.0,0.0
Y,R,"[7, 8]",0.0,0.0,0.9652338027954102,2.499955892562866,0.44135270827307166,40.0,407.0,0.0
B,L,"[7, 7]",0.0,0.0,0.647860050201416,2.206019878387451,0.4640507677724908,40.0,408.0,0.0
G,D,"[8, 7]",0.0,0.0,0.6800570487976074,2.476761817932129,0.6904398732776948,40.0,409.0,0.0
R,U,"[7, 7]",0.0,0.0,0.5263998508453369,1.9958219528198242,0.3699345018625907,40.0,410.0,0.0
,,"(6, 6)",,,,,,,,
B,L,"[6, 5]",0.0,0.0,0.4340322017669678,3.591495990753174,0.6612102182286441,41.0,411.0,0.0
G,D,"[7, 5]",0.0,0.0,0.280987024307251,1.8238539695739746,0.4516859028656141,41.0,412.0,0.0
Y,R,"[7, 6]",0.0,0.0,0.42861104011535645,2.2486109733581543,0.7167076040626106,41.0,413.0,0.0
B,L,"[7, 5]",0.0,0.0,0.8787269592285156,2.675806999206543,0.6922384685835967,41.0,414.0,0.0
R,U,"[6, 5]",0.0,0.0,0.29500913619995117,2.071449041366577,0.6806092901128742,41.0,415.0,0.0
G,D,"[7, 5]",0.0,0.0,0.2987239360809326,1.7975130081176758,0.39488616350442973,41.0,416.0,0.0
Y,R,"[7, 6]",0.0,0.0,0.28143811225891113,1.68082594871521,0.3089404306861528,41.0,417.0,0.0
B,L,"[7, 5]",0.0,0.0,0.6770241260528564,2.343674898147583,0.5690922553437048,41.0,418.0,0.0
Y,R,"[7, 6]",0.0,0.0,0.2907121181488037,2.016875982284546,0.6192055784642085,41.0,419.0,0.0
R,U,"[6, 6]",0.0,0.0,0.1772749423980713,1.5794780254364014,0.2990606607339324,41.0,420.0,0.0
,,"(6, 6)",,,,,,,,
G,D,"[7, 6]",0.0,0.0,0.4874091148376465,3.601486921310425,0.683174793608028,42.0,421.0,0.0
Y,R,"[7, 7]",0.0,0.0,0.7606170177459717,2.2013180255889893,0.3347764112209118,42.0,422.0,0.0
B,L,"[7, 6]",0.0,0.0,0.477586030960083,2.3294830322265625,0.7470972077586386,42.0,423.0,0.0
R,U,"[6, 6]",0.0,0.0,0.39422106742858887,1.7526030540466309,0.25000983717958664,42.0,424.0,0.0
G,D,"[7, 6]",0.0,0.0,0.8811509609222412,2.669423818588257,0.6859415104459032,42.0,425.0,0.0
Y,R,"[7, 7]",0.0,0.0,0.3485870361328125,2.0535008907318115,0.6058444659618569,42.0,426.0,0.0
B,L,"[7, 6]",0.0,0.0,0.3024759292602539,2.0408008098602295,0.6466380372271201,42.0,427.0,0.0
R,U,"[6, 6]",0.0,0.0,0.32442712783813477,1.9616990089416504,0.5251482879828735,42.0,428.0,0.0
G,D,"[7, 6]",0.0,0.0,0.2444319725036621,1.8675382137298584,0.5257359228477941,42.0,429.0,0.0
Y,R,"[7, 7]",0.0,0.0,0.20883584022521973,1.6253468990325928,0.318001718434467,42.0,430.0,0.0
,,"(6, 6)",,,,,,,,
B,L,"[6, 5]",0.0,0.0,0.4153859615325928,3.0220699310302734,0.43979099899360563,43.0,431.0,0.0
R,U,"[5, 5]",0.0,0.0,0.8516101837158203,2.470003843307495,0.5262021051065235,43.0,432.0,0.0
G,D,"[6, 5]",0.0,0.0,0.6660518646240234,2.0874338150024414,0.3304812598153357,43.0,433.0,0.0
Y,R,"[6, 6]",0.0,0.0,0.5031118392944336,1.982292890548706,0.37944644421440865,43.0,434.0,0.0
B,L,"[6, 5]",0.0,0.0,0.3664999008178711,2.2046170234680176,0.7339511353127118,43.0,435.0,0.0
G,D,"[7, 5]",0.0,0.0,0.28149890899658203,1.7213599681854248,0.3385152457547699,43.0,436.0,0.0
R,U,"[6, 5]",0.0,0.0,0.43407702445983887,1.9143688678741455,0.38623175168682433,43.0,437.0,0.0
G,D,"[7, 5]",0.0,0.0,0.3261890411376953,1.774872064590454,0.3442610494744429,43.0,438.0,0.0
B,L,"[7, 4]",0.0,0.0,0.4377248287200928,1.9163689613342285,0.39416430621460985,43.0,439.0,0.0
Y,R,"[7, 5]",0.0,0.0,0.23375797271728516,1.6374990940093994,0.3147436307991732,43.0,440.0,0.0
,,"(6, 6)",,,,,,,,
G,D,"[7, 6]",0.0,0.0,0.29760003089904785,3.5888168811798096,0.5533047265462498,44.0,441.0,0.0
R,U,"[6, 6]",0.0,0.0,0.44402503967285156,1.955995798110962,0.4092750249061959,44.0,442.0,0.0
B,L,"[6, 5]",0.0,0.0,0.61834716796875,2.0204238891601562,0.3130830542134083,44.0,443.0,0.0
Y,R,"[6, 6]",0.0,0.0,0.3850119113922119,1.8003408908843994,0.3133973597812057,44.0,444.0,0.0
B,L,"[6, 5]",0.0,0.0,0.6048879623413086,2.3310000896453857,0.6273535411379768,44.0,445.0,0.0
Y,R,"[6, 6]",0.0,0.0,0.34034299850463867,1.746032953262329,0.30693950954741067,44.0,446.0,0.0
G,D,"[7, 6]",0.0,0.0,0.45520997047424316,1.9983041286468506,0.4384900097702867,44.0,447.0,0.0
R,U,"[6, 6]",0.0,0.0,0.24327516555786133,1.988279104232788,0.6431628422332598,44.0,448.0,0.0
B,L,"[6, 5]",0.0,0.0,0.48897290229797363,1.8853061199188232,0.29553409419411536,44.0,449.0,0.0
G,D,"[7, 5]",0.0,0.0,0.4685070514678955,2.063244104385376,0.5083175858504683,44.0,450.0,0.0
,,"(6, 6)",,,,,,,,
Y,R,"[6, 7]",0.0,0.0,0.3462679386138916,3.0716030597686768,0.5298796066655527,45.0,451.0,0.0
R,U,"[5, 7]",1.0,1.0,0.46034908294677734,2.2395808696746826,0.6691668057286206,45.0,452.0,0.0
R,U,"[4, 7]",0.0,1.0,0.26601505279541016,1.8203458786010742,0.456371598096014,45.0,453.0,0.0
Y,R,"[4, 8]",0.0,1.0,0.3292880058288574,1.882105827331543,0.4552173624820412,45.0,454.0,0.0
G,D,"[5, 8]",1.0,2.0,0.3779580593109131,1.9735050201416016,0.49514597985600484,45.0,455.0,0.0
B,L,"[5, 7]",0.0,2.0,0.2702329158782959,1.6358370780944824,0.2811939146830899,45.0,456.0,0.0
Y,R,"[5, 8]",0.0,2.0,0.28026390075683594,1.9199938774108887,0.5342194451815452,45.0,457.0,0.0
G,D,"[6, 8]",1.0,3.0,0.2614779472351074,1.7755048274993896,0.40970470085530275,45.0,458.0,0.0
G,D,"[7, 8]",0.0,3.0,0.1908581256866455,1.752957820892334,0.46259650964091975,45.0,459.0,0.0
R,U,"[6, 8]",0.0,3.0,0.3210179805755615,1.7495050430297852,0.3288942816003564,45.0,460.0,0.0
,,"(6, 6)",,,,,,,,
R,U,"[5, 6]",1.0,1.0,0.3807048797607422,3.004263162612915,0.5161351766905895,46.0,461.0,0.0
G,D,"[6, 6]",0.0,1.0,0.29919910430908203,1.695742130279541,0.2953092922714722,46.0,462.0,0.0
B,L,"[6, 5]",0.0,1.0,0.5707039833068848,2.188939094543457,0.5341995536967743,46.0,463.0,0.0
Y,R,"[6, 6]",0.0,1.0,0.2747170925140381,1.9755499362945557,0.5927632522065459,46.0,464.0,0.0
R,U,"[5, 6]",0.0,1.0,0.2468860149383545,2.026474952697754,0.6856214004743642,46.0,465.0,0.0
G,D,"[6, 6]",-1.0,1.0,0.09094095230102539,5.81168794631958,0.5806119396328703,46.0,466.0,0.0
G,D,"[7, 6]",0.0,1.0,0.3108408451080322,1.7548720836639404,0.33581430003517104,46.0,467.0,0.0
R,U,"[6, 6]",0.0,1.0,0.4137899875640869,2.2254769802093506,0.7108166359033294,46.0,468.0,0.0
B,L,"[6, 5]",0.0,1.0,0.6161510944366455,2.282896041870117,0.5770034038385815,46.0,469.0,0.0
Y,R,"[6, 6]",0.0,1.0,0.19687700271606445,1.6558949947357178,0.36643254810334064,46.0,470.0,0.0
,,"(6, 6)",,,,,,,,
Y,R,"[6, 7]",0.0,0.0,0.4155600070953369,3.0940470695495605,0.5434869307213892,47.0,471.0,0.0
B,L,"[6, 6]",-2.0,0.0,1.025813102722168,2.62273907661438,0.5662024197226556,47.0,472.0,0.0
G,D,"[7, 6]",0.0,0.0,0.29235410690307617,1.7051420211791992,0.3047852273829938,47.0,473.0,0.0
B,L,"[7, 5]",0.0,0.0,0.4505469799041748,2.1044418811798096,0.5590410294518315,47.0,474.0,0.0
R,U,"[6, 5]",0.0,0.0,0.35218310356140137,1.988497018814087,0.5474477031611817,47.0,475.0,0.0
B,L,"[6, 4]",-1.0,0.0,0.08329606056213379,5.569231033325195,0.35002081682578257,47.0,476.0,0.0
B,L,"[6, 3]",0.0,0.0,0.9804708957672119,2.6671361923217773,0.5835194782021962,47.0,477.0,0.0
G,D,"[7, 3]",0.0,0.0,0.5158071517944336,2.317711114883423,0.7012245332917533,47.0,478.0,0.0
Y,R,"[7, 4]",0.0,0.0,0.5472080707550049,1.9574041366577148,0.30875925848888025,47.0,479.0,0.0
R,U,"[6, 4]",0.0,0.0,0.8040599822998047,2.178194999694824,0.2868511799981442,47.0,480.0,0.0
,,"(6, 6)",,,,,,,,
B,L,"[6, 5]",0.0,0.0,0.5484251976013184,3.8795790672302246,0.6492505972618297,48.0,481.0,0.0
Y,R,"[6, 6]",0.0,0.0,0.3983120918273926,2.072110176086426,0.5714568632135384,48.0,482.0,0.0
R,U,"[5, 6]",1.0,1.0,0.5056838989257812,1.983673095703125,0.3884432871902371,48.0,483.0,0.0
G,D,"[6, 6]",0.0,1.0,0.6353538036346436,2.1931381225585938,0.46487932001921134,48.0,484.0,0.0
R,U,"[5, 6]",0.0,1.0,0.7561309337615967,2.507725954055786,0.6390589441910199,48.0,485.0,0.0
G,D,"[6, 6]",0.0,1.0,0.4281439781188965,2.209291934967041,0.6816219801310439,48.0,486.0,0.0
B,L,"[6, 5]",-1.0,1.0,0.0934140682220459,5.63909387588501,0.4042523097891208,48.0,487.0,0.0
Y,R,"[6, 6]",-2.0,1.0,1.0067710876464844,2.324836015701294,0.2789435017491459,48.0,488.0,0.0
B,L,"[6, 5]",0.0,1.0,0.49129700660705566,1.9430930614471436,0.3553294791075758,48.0,489.0,0.0
R,U,"[5, 5]",0.0,1.0,0.7873039245605469,2.59938907623291,0.7209301915226638,48.0,490.0,0.0
,,"(6, 6)",,,,,,,,
G,D,"[7, 6]",0.0,0.0,0.5013930797576904,3.395479917526245,0.533107583793307,49.0,491.0,0.0
R,U,"[6, 6]",0.0,0.0,0.41220998764038086,2.074160099029541,0.5570484087143094,49.0,492.0,0.0
B,L,"[6, 5]",0.0,0.0,0.2464909553527832,1.9341111183166504,0.5913196798770841,49.0,493.0,0.0
Y,R,"[6, 6]",0.0,0.0,0.3091909885406494,1.852492094039917,0.4436966994066209,49.0,494.0,0.0
R,U,"[5, 6]",1.0,1.0,0.4451141357421875,2.262078046798706,0.7221767578948664,49.0,495.0,0.0
G,D,"[6, 6]",0.0,1.0,0.25438714027404785,1.8432369232177734,0.49879060997027425,49.0,496.0,0.0
R,U,"[5, 6]",0.0,1.0,0.2893030643463135,1.8069398403167725,0.40582413574824117,49.0,497.0,0.0
Y,R,"[5, 7]",1.0,2.0,0.255357027053833,1.7547519207000732,0.39387607313059314,49.0,498.0,0.0
Y,R,"[5, 8]",-1.0,2.0,0.0216519832611084,5.498714923858643,0.35906950132352816,49.0,499.0,0.0
Y,R,"[5, 9]",0.0,2.0,0.3973259925842285,1.7785420417785645,0.2878460257931671,49.0,500.0,0.0
,,"(6, 6)",,,,,,,,
Y,R,"[6, 7]",0.0,0.0,0.33675384521484375,3.6627800464630127,0.46690884993232856,50.0,501.0,0.0
Y,R,"[6, 8]",1.0,1.0,0.800482988357544,2.2937979698181152,0.39385362196204565,50.0,502.0,0.0
Y,R,"[6, 9]",1.0,2.0,0.5439310073852539,1.9113378524780273,0.2717993081958537,50.0,503.0,0.0
Y,R,"[6, 10]",1.0,3.0,0.7673289775848389,2.4810891151428223,0.620041446514852,50.0,504.0,0.0
Y,R,"[6, 11]",0.0,3.0,0.2416689395904541,1.5974879264831543,0.2503817446786566,50.0,505.0,0.0
B,L,"[6, 10]",-2.0,3.0,1.3496930599212646,2.6955249309539795,0.31256678213099626,50.0,506.0,0.0
B,L,"[6, 9]",0.0,3.0,0.35373902320861816,1.7129340171813965,0.25885909524577355,50.0,507.0,0.0
G,D,"[7, 9]",0.0,3.0,0.5197041034698486,2.060896158218384,0.45269251713064357,50.0,508.0,0.0
R,U,"[6, 9]",0.0,3.0,0.28406381607055664,2.05387806892395,0.6730025293190576,50.0,509.0,0.0
R,U,"[5, 9]",0.0,3.0,0.21294498443603516,1.9432828426361084,0.6329226958057836,50.0,510.0,0.0
,,"(6, 6)",,,,,,,,
R,U,"[5, 6]",1.0,1.0,0.3824319839477539,3.3568129539489746,0.3234172902468618,51.0,511.0,0.0
R,U,"[4, 6]",0.0,1.0,0.3461620807647705,1.9262630939483643,0.4826343595770787,51.0,512.0,0.0
R,U,"[3, 6]",0.0,1.0,0.4804348945617676,1.9003679752349854,0.31632668550158394,51.0,513.0,0.0
R,U,"[2, 6]",0.0,1.0,0.5584349632263184,2.2886221408843994,0.6212642245289015,51.0,514.0,0.0
R,U,"[1, 6]",0.0,1.0,0.27245402336120605,1.6656630039215088,0.2873451293333497,51.0,515.0,0.0
Y,R,"[1, 7]",0.0,1.0,0.5390739440917969,2.181234836578369,0.5348795360449943,51.0,516.0,0.0
B,L,"[1, 6]",-1.0,1.0,0.08505392074584961,5.626641035079956,0.4113814927765564,51.0,517.0,0.0
B,L,"[1, 5]",0.0,1.0,0.5473499298095703,2.047513008117676,0.40889167356447803,51.0,518.0,0.0
B,L,"[1, 4]",0.0,1.0,0.9373679161071777,2.6714999675750732,0.6466675692305008,51.0,519.0,0.0
G,D,"[2, 4]",0.0,1.0,0.6028010845184326,2.1720399856567383,0.4688123649822965,51.0,520.0,0.0
,,"(6, 6)",,,,,,,,
Y,R,"[6, 7]",0.0,0.0,0.3270869255065918,3.28800892829895,0.7397523473459123,52.0,521.0,0.0
G,D,"[7, 7]",0.0,0.0,0.8709011077880859,2.3329429626464844,0.3732522969053496,52.0,522.0,0.0
R,U,"[6, 7]",0.0,0.0,0.5723819732666016,2.106356143951416,0.4458476428630457,52.0,523.0,0.0
B,L,"[6, 6]",0.0,0.0,0.39162683486938477,2.045849084854126,0.5418034540521255,52.0,524.0,0.0
G,D,"[7, 6]",0.0,0.0,0.2723100185394287,1.6943838596343994,0.3196901764167498,52.0,525.0,0.0
R,U,"[6, 6]",0.0,0.0,0.3893880844116211,2.214931011199951,0.7172415436689354,52.0,526.0,0.0
Y,R,"[6, 7]",0.0,0.0,0.38277697563171387,1.9522380828857422,0.46965942768868857,52.0,527.0,0.0
B,L,"[6, 6]",0.0,0.0,0.41535210609436035,2.262637138366699,0.7486607456116798,52.0,528.0,0.0
G,D,"[7, 6]",-1.0,0.0,0.08289408683776855,5.814799070358276,0.5969426859775664,52.0,529.0,0.0
G,D,"[8, 6]",0.0,0.0,0.9642949104309082,2.432690143585205,0.36286290714943564,52.0,530.0,0.0
,,"(6, 6)",,,,,,,,
R,U,"[5, 6]",1.0,1.0,0.7396230697631836,3.288054943084717,0.31749275221014567,53.0,531.0,0.0
Y,R,"[5, 7]",-2.0,1.0,1.0443089008331299,2.5379748344421387,0.45535866627927335,53.0,532.0,0.0
Y,R,"[5, 8]",1.0,2.0,0.3504958152770996,1.9600780010223389,0.5153233870295262,53.0,533.0,0.0
R,U,"[4, 8]",0.0,2.0,0.43532299995422363,2.2645370960235596,0.7297821063848178,53.0,534.0,0.0
Y,R,"[4, 9]",1.0,3.0,0.2565419673919678,1.8795959949493408,0.5093605496160407,53.0,535.0,0.0
Y,R,"[4, 10]",1.0,4.0,0.1639249324798584,1.6315429210662842,0.3743016114954913,53.0,536.0,0.0
Y,R,"[4, 11]",-2.0,4.0,1.137557029724121,2.5124828815460205,0.3535609819267343,53.0,537.0,0.0
B,L,"[4, 10]",0.0,4.0,0.23957300186157227,1.9142560958862305,0.5675648188622466,53.0,538.0,0.0
Y,R,"[4, 11]",0.0,4.0,0.2564220428466797,1.9527828693389893,0.5869023206183424,53.0,539.0,0.0
G,D,"[5, 11]",0.0,4.0,0.26389312744140625,2.098360776901245,0.7351448182206294,53.0,540.0,0.0
,,"(6, 6)",,,,,,,,
R,U,"[5, 6]",1.0,1.0,0.34499502182006836,3.2104759216308594,0.49555171975718515,54.0,541.0,0.0
R,U,"[4, 6]",0.0,1.0,0.5420680046081543,2.2178990840911865,0.5797715559061579,54.0,542.0,0.0
B,L,"[4, 5]",0.0,1.0,0.7256391048431396,2.578407049179077,0.7414922249528715,54.0,543.0,0.0
Y,R,"[4, 6]",0.0,1.0,0.3329629898071289,2.002808094024658,0.5775790954576805,54.0,544.0,0.0
G,D,"[5, 6]",-1.0,1.0,0.08805680274963379,5.799677133560181,0.5771129977492493,54.0,545.0,0.0
G,D,"[6, 6]",0.0,1.0,0.32884716987609863,2.012624979019165,0.5895482867352593,54.0,546.0,0.0
R,U,"[5, 6]",0.0,1.0,0.39124107360839844,1.8272440433502197,0.3337565386149409,54.0,547.0,0.0
Y,R,"[5, 7]",1.0,2.0,0.6937768459320068,2.0573580265045166,0.2576658454536508,54.0,548.0,0.0
Y,R,"[5, 8]",1.0,3.0,0.4149181842803955,1.8348140716552734,0.3257035467815281,54.0,549.0,0.0
Y,R,"[5, 9]",0.0,3.0,0.22956109046936035,1.8339920043945312,0.5094083918198844,54.0,550.0,0.0
,,"(6, 6)",,,,,,,,
G,D,"[7, 6]",0.0,0.0,0.5249960422515869,3.454176902770996,0.6134253452155141,55.0,551.0,0.0
B,L,"[7, 5]",0.0,0.0,0.6722860336303711,2.0470378398895264,0.2610285546906784,55.0,552.0,0.0
R,U,"[6, 5]",0.0,0.0,0.6309819221496582,2.292957067489624,0.570192962696158,55.0,553.0,0.0
G,D,"[7, 5]",0.0,0.0,0.5787811279296875,2.1764729022979736,0.49654027435395015,55.0,554.0,0.0
Y,R,"[7, 6]",-1.0,0.0,0.0968010425567627,5.8820579051971436,0.6450084754483771,55.0,555.0,0.0
Y,R,"[7, 7]",0.0,0.0,0.3178141117095947,1.7218139171600342,0.31691861070272737,55.0,556.0,0.0
B,L,"[7, 6]",-2.0,0.0,1.046424150466919,2.4835119247436523,0.40033338206068336,55.0,557.0,0.0
B,L,"[7, 5]",0.0,0.0,0.5559720993041992,2.210078001022339,0.5436052514450305,55.0,558.0,0.0
G,D,"[8, 5]",0.0,0.0,0.41622495651245117,2.0011520385742188,0.4950069770749577,55.0,559.0,0.0
R,U,"[7, 5]",0.0,0.0,0.48015379905700684,1.9879059791564941,0.41608954329148007,55.0,560.0,0.0
,,"(6, 6)",,,,,,,,
B,L,"[6, 5]",0.0,0.0,0.9266488552093506,4.118957042694092,0.6843980756500018,56.0,561.0,0.0
G,D,"[7, 5]",0.0,0.0,0.26545000076293945,1.9685940742492676,0.6030981530180162,56.0,562.0,0.0
R,U,"[6, 5]",0.0,0.0,0.3342747688293457,1.9307341575622559,0.5005095720983903,56.0,563.0,0.0
G,D,"[7, 5]",0.0,0.0,0.31607508659362793,1.983307123184204,0.5671712820171416,56.0,564.0,0.0
Y,R,"[7, 6]",0.0,0.0,0.34282898902893066,2.0130770206451416,0.563317965549436,56.0,565.0,0.0
B,L,"[7, 5]",0.0,0.0,0.4151461124420166,1.9176440238952637,0.3978463173090449,56.0,566.0,0.0
R,U,"[6, 5]",0.0,0.0,0.5574090480804443,2.336803913116455,0.6676398334703029,56.0,567.0,0.0
G,D,"[7, 5]",0.0,0.0,0.31734204292297363,2.1087019443511963,0.6929387912311278,56.0,568.0,0.0
Y,R,"[7, 6]",0.0,0.0,0.3982670307159424,1.8583629131317139,0.36835180832129116,56.0,569.0,0.0
B,L,"[7, 5]",0.0,0.0,0.6113731861114502,2.222126007080078,0.5067405873327222,56.0,570.0,0.0
,,"(6, 6)",,,,,,,,
R,U,"[5, 6]",1.0,1.0,0.5774259567260742,3.755053997039795,0.6949780689971733,57.0,571.0,0.0
Y,R,"[5, 7]",1.0,2.0,0.39577484130859375,2.1184139251708984,0.6299282636703966,57.0,572.0,0.0
R,U,"[4, 7]",0.0,2.0,0.26637792587280273,1.9143140316009521,0.5443353500246917,57.0,573.0,0.0
Y,R,"[4, 8]",0.0,2.0,0.4153118133544922,1.8772578239440918,0.37171739949571314,57.0,574.0,0.0
B,L,"[4, 7]",0.0,2.0,0.4483199119567871,1.9906699657440186,0.4453622330930033,57.0,575.0,0.0
G,D,"[5, 7]",0.0,2.0,0.22956395149230957,1.912470817565918,0.5909890239103923,57.0,576.0,0.0
G,D,"[6, 7]",0.0,2.0,0.9171020984649658,2.688204050064087,0.6792833305990102,57.0,577.0,0.0
B,L,"[6, 6]",0.0,2.0,0.7878820896148682,2.4755349159240723,0.5712802509416162,57.0,578.0,0.0
R,U,"[5, 6]",0.0,2.0,0.4593071937561035,2.206915855407715,0.6447688765522326,57.0,579.0,0.0
Y,R,"[5, 7]",0.0,2.0,0.29423999786376953,1.8235869407653809,0.43527530589197055,57.0,580.0,0.0
,,"(6, 6)",,,,,,,,
B,L,"[6, 5]",0.0,0.0,0.5261118412017822,3.334453821182251,0.6194099294165354,58.0,581.0,0.0
Y,R,"[6, 6]",0.0,0.0,0.728010892868042,2.3413119316101074,0.5106693308055195,58.0,582.0,0.0
G,D,"[7, 6]",0.0,0.0,0.4339730739593506,1.8569509983062744,0.3343847848382312,58.0,583.0,0.0
B,L,"[7, 5]",0.0,0.0,0.7112648487091064,2.1458511352539062,0.33014015213264586,58.0,584.0,0.0
R,U,"[6, 5]",0.0,0.0,0.8391120433807373,2.2523090839385986,0.29909588575946505,58.0,585.0,0.0
B,L,"[6, 4]",0.0,0.0,0.576275110244751,2.415321111679077,0.7306859801089806,58.0,586.0,0.0
R,U,"[5, 4]",0.0,0.0,0.22630810737609863,1.949951171875,0.6143530773537671,58.0,587.0,0.0
G,D,"[6, 4]",0.0,0.0,0.5235519409179688,1.8773229122161865,0.25812676467098905,58.0,588.0,0.0
Y,R,"[6, 5]",0.0,0.0,0.712677001953125,2.1403539180755615,0.3316279410295475,58.0,589.0,0.0
B,L,"[6, 4]",0.0,0.0,0.6766359806060791,2.4766628742218018,0.6912160482313771,58.0,590.0,0.0
,,"(6, 6)",,,,,,,,
R,U,"[5, 6]",1.0,1.0,0.4468860626220703,3.0429418087005615,0.2679037969013596,59.0,591.0,0.0
R,U,"[4, 6]",0.0,1.0,0.4520270824432373,1.9206678867340088,0.3717515753455884,59.0,592.0,0.0
R,U,"[3, 6]",0.0,1.0,0.8712320327758789,2.5125091075897217,0.550633456401348,59.0,593.0,0.0
Y,R,"[3, 7]",0.0,1.0,0.238447904586792,1.9997079372406006,0.6667218195222875,59.0,594.0,0.0
G,D,"[4, 7]",0.0,1.0,0.425447940826416,1.8883728981018066,0.35540652158020797,59.0,595.0,0.0
B,L,"[4, 6]",0.0,1.0,0.36214399337768555,2.0357000827789307,0.5743284546919476,59.0,596.0,0.0
G,D,"[5, 6]",0.0,1.0,0.38193583488464355,2.197746992111206,0.7216757069663504,59.0,597.0,0.0
B,L,"[5, 5]",0.0,1.0,0.3097879886627197,1.9527058601379395,0.5412257810298233,59.0,598.0,0.0
G,D,"[6, 5]",0.0,1.0,0.3917720317840576,2.1895370483398438,0.6974145355036777,59.0,599.0,0.0
B,L,"[6, 4]",0.0,1.0,0.3076350688934326,2.118349075317383,0.6988737696661638,59.0,600.0,0.0
,,"(6, 6)",,,,,,,,
Y,R,"[6, 7]",0.0,0.0,0.6307950019836426,3.070706844329834,0.3200401525082468,60.0,601.0,0.0
R,U,"[5, 7]",1.0,1.0,0.521960973739624,2.1696178913116455,0.5391077649433353,60.0,602.0,0.0
R,U,"[4, 7]",0.0,1.0,0.14652514457702637,1.714879035949707,0.47057389362106056,60.0,603.0,0.0
R,U,"[3, 7]",0.0,1.0,0.22422409057617188,1.619206190109253,0.29011127115949004,60.0,604.0,0.0
R,U,"[2, 7]",0.0,1.0,0.439302921295166,1.97660493850708,0.4330646716777512,60.0,605.0,0.0
R,U,"[1, 7]",0.0,1.0,0.2339489459991455,2.024005889892578,0.6899353361541787,60.0,606.0,0.0
R,U,"[2, 7]",-3.0,1.0,0.20908498764038086,1.9366960525512695,0.6267949458065244,60.0,607.0,0.0
R,U,"[1, 7]",0.0,1.0,0.3547170162200928,1.9005711078643799,0.4607346150753729,60.0,608.0,0.0
Y,R,"[1, 8]",0.0,1.0,0.46602487564086914,1.975071907043457,0.41907793632588064,60.0,609.0,0.0
Y,R,"[1, 9]",0.0,1.0,0.3272550106048584,1.8814458847045898,0.4504562951947054,60.0,610.0,0.0
,,"(6, 6)",,,,,,,,
B,L,"[6, 5]",0.0,0.0,0.5656981468200684,3.3607659339904785,0.41112682823436064,61.0,611.0,0.0
G,D,"[7, 5]",0.0,0.0,0.33784985542297363,2.0039618015289307,0.5814973590280259,61.0,612.0,0.0
G,D,"[8, 5]",0.0,0.0,0.3312649726867676,2.11100697517395,0.6759021220150325,61.0,613.0,0.0
Y,R,"[8, 6]",0.0,0.0,0.12732601165771484,1.701258897781372,0.4773132193713513,61.0,614.0,0.0
Y,R,"[8, 7]",0.0,0.0,0.3452601432800293,2.0525829792022705,0.6128289330475922,61.0,615.0,0.0
Y,R,"[8, 8]",0.0,0.0,0.2974379062652588,1.6578609943389893,0.2543176749571634,61.0,616.0,0.0
R,U,"[7, 8]",0.0,0.0,0.8010659217834473,2.595245838165283,0.699293799528542,61.0,617.0,0.0
R,U,"[6, 8]",1.0,1.0,0.3544580936431885,1.7573368549346924,0.29024189206497286,61.0,618.0,0.0
R,U,"[5, 8]",1.0,2.0,0.5535287857055664,2.0229249000549316,0.3795328298408725,61.0,619.0,0.0
R,U,"[4, 8]",0.0,2.0,0.34212303161621094,2.0587379932403564,0.6047741377493085,61.0,620.0,0.0
,,"(6, 6)",,,,,,,,
Y,R,"[6, 7]",0.0,0.0,0.4232149124145508,3.0060601234436035,0.39427969481320974,62.0,621.0,0.0
Y,R,"[6, 8]",1.0,1.0,0.4720780849456787,1.8728129863739014,0.31706801016694836,62.0,622.0,0.0
Y,R,"[6, 9]",1.0,2.0,0.46248292922973633,2.1660470962524414,0.5993618884319807,62.0,623.0,0.0
B,L,"[6, 8]",0.0,2.0,0.20684480667114258,1.7711410522460938,0.45401884812262683,62.0,624.0,0.0
B,L,"[6, 7]",0.0,2.0,0.1540508270263672,1.8215258121490479,0.5753392957920205,62.0,625.0,0.0
Y,R,"[6, 8]",0.0,2.0,0.3274650573730469,1.799245834350586,0.3747142413317814,62.0,626.0,0.0
R,U,"[5, 8]",1.0,3.0,0.3335139751434326,1.8123650550842285,0.3871688165361428,62.0,627.0,0.0
G,D,"[6, 8]",0.0,3.0,0.4294850826263428,2.1915040016174316,0.661373347601775,62.0,628.0,0.0
R,U,"[5, 8]",0.0,3.0,0.3053610324859619,1.8876428604125977,0.49919897284716247,62.0,629.0,0.0
Y,R,"[5, 9]",-2.0,3.0,1.1403610706329346,2.890486001968384,0.70598674533024,62.0,630.0,0.0
,,"(6, 6)",,,,,,,,
G,D,"[7, 6]",0.0,0.0,0.802570104598999,4.2795939445495605,0.28583576423463464,63.0,631.0,0.0
B,L,"[7, 5]",0.0,0.0,0.31562209129333496,1.8499338626861572,0.4357847954813657,63.0,632.0,0.0
Y,R,"[7, 6]",0.0,0.0,0.8947949409484863,2.2500967979431152,0.25242929619804416,63.0,633.0,0.0
Y,R,"[7, 7]",0.0,0.0,0.4007999897003174,2.196449041366577,0.6988716466696727,63.0,634.0,0.0
G,D,"[8, 7]",0.0,0.0,0.28855299949645996,2.0408380031585693,0.639316728792248,63.0,635.0,0.0
B,L,"[8, 6]",0.0,0.0,0.23011398315429688,1.8476970195770264,0.5203096336401963,63.0,636.0,0.0
B,L,"[8, 5]",0.0,0.0,0.4271280765533447,2.148599863052368,0.6189177613397263,63.0,637.0,0.0
B,L,"[8, 4]",0.0,0.0,0.3281221389770508,2.0372278690338135,0.6057986902024025,63.0,638.0,0.0
R,U,"[7, 4]",0.0,0.0,0.38574814796447754,1.736814022064209,0.2596636467705496,63.0,639.0,0.0
R,U,"[6, 4]",0.0,0.0,0.26250410079956055,1.8782899379730225,0.5211470451393434,63.0,640.0,0.0
,,"(6, 6)",,,,,,,,
G,D,"[7, 6]",0.0,0.0,0.34267401695251465,3.0977730751037598,0.6187190873045527,64.0,641.0,0.0
B,L,"[7, 5]",0.0,0.0,0.6950438022613525,2.248624086380005,0.45059598872171586,64.0,642.0,0.0
B,L,"[7, 4]",0.0,0.0,0.24909305572509766,1.821686029434204,0.4724632844735583,64.0,643.0,0.0
Y,R,"[7, 5]",0.0,0.0,0.10323596000671387,1.6704368591308594,0.4758919630440375,64.0,644.0,0.0
G,D,"[8, 5]",0.0,0.0,0.25452518463134766,1.6654129028320312,0.3082725341585796,64.0,645.0,0.0
R,U,"[7, 5]",0.0,0.0,0.535862922668457,2.0839598178863525,0.45862023776950805,64.0,646.0,0.0
B,L,"[7, 4]",0.0,0.0,0.4934968948364258,2.1987719535827637,0.6071533672798703,64.0,647.0,0.0
Y,R,"[7, 5]",0.0,0.0,0.3385579586029053,2.131726026535034,0.6887373600339834,64.0,648.0,0.0
G,D,"[8, 5]",0.0,0.0,0.13315415382385254,1.8523540496826172,0.6243200222453102,64.0,649.0,0.0
R,U,"[7, 5]",0.0,0.0,0.44199514389038086,1.9140000343322754,0.3720086054907838,64.0,650.0,0.0
,,"(6, 6)",,,,,,,,
G,D,"[7, 6]",-2.0,0.0,1.1219210624694824,3.9318370819091797,0.5368932612482227,65.0,651.0,0.0
G,D,"[8, 6]",0.0,0.0,0.5268111228942871,1.9920151233673096,0.36218730771893665,65.0,652.0,0.0
R,U,"[7, 6]",0.0,0.0,0.32857394218444824,2.0944409370422363,0.6729692105962481,65.0,653.0,0.0
R,U,"[6, 6]",0.0,0.0,0.250903844833374,1.652113914489746,0.30886568231562755,65.0,654.0,0.0
Y,R,"[6, 7]",0.0,0.0,0.780526876449585,2.2123970985412598,0.3376462340439697,65.0,655.0,0.0
B,L,"[6, 6]",0.0,0.0,0.5785470008850098,2.016843795776367,0.3377420055765428,65.0,656.0,0.0
G,D,"[7, 6]",0.0,0.0,0.4506251811981201,2.2626938819885254,0.7166350862105706,65.0,657.0,0.0
B,L,"[7, 5]",0.0,0.0,0.35039591789245605,1.8003408908843994,0.3506448132162903,65.0,658.0,0.0
R,U,"[6, 5]",0.0,0.0,0.6893818378448486,2.297153949737549,0.4978301563210141,65.0,659.0,0.0
G,D,"[7, 5]",0.0,0.0,0.4673640727996826,2.2964580059051514,0.7270356712264154,65.0,660.0,0.0
,,"(6, 6)",,,,,,,,
Y,R,"[6, 7]",0.0,0.0,0.4666099548339844,3.2071380615234375,0.351218221456678,66.0,661.0,0.0
B,L,"[6, 6]",0.0,0.0,0.7586979866027832,2.309713125228882,0.4439913406074888,66.0,662.0,0.0
R,U,"[5, 6]",1.0,1.0,0.31939101219177246,1.788956880569458,0.38293280794214335,66.0,663.0,0.0
G,D,"[6, 6]",0.0,1.0,0.26216602325439453,1.9374029636383057,0.5704248226455106,66.0,664.0,0.0
B,L,"[6, 5]",0.0,1.0,0.18757891654968262,1.769481897354126,0.4898529838896592,66.0,665.0,0.0
R,U,"[5, 5]",0.0,1.0,0.17028594017028809,1.60617995262146,0.3459023712591942,66.0,666.0,0.0
Y,R,"[5, 6]",0.0,1.0,0.44243502616882324,2.0467870235443115,0.49259288957635394,66.0,667.0,0.0
G,D,"[6, 6]",0.0,1.0,0.21628093719482422,1.6173641681671143,0.30994205965270033,66.0,668.0,0.0
G,D,"[7, 6]",0.0,1.0,0.11441802978515625,1.9279379844665527,0.7208925207546066,66.0,669.0,0.0
B,L,"[7, 5]",0.0,1.0,0.5696909427642822,2.2308809757232666,0.5517322162619227,66.0,670.0,0.0
,,"(6, 6)",,,,,,,,
R,U,"[5, 6]",1.0,1.0,0.6242730617523193,3.452104091644287,0.45390369211157466,67.0,671.0,0.0
R,U,"[4, 6]",0.0,1.0,0.3052959442138672,1.8017768859863281,0.3890061728504782,67.0,672.0,0.0
G,D,"[5, 6]",0.0,1.0,0.2066960334777832,1.6493098735809326,0.354958791833289,67.0,673.0,0.0
B,L,"[5, 5]",0.0,1.0,0.2290480136871338,1.8872239589691162,0.5586206275047416,67.0,674.0,0.0
Y,R,"[5, 6]",0.0,1.0,0.22820782661437988,1.7725720405578613,0.4479638315039552,67.0,675.0,0.0
B,L,"[5, 5]",0.0,1.0,0.40682196617126465,1.8622589111328125,0.343554324216489,67.0,676.0,0.0
G,D,"[6, 5]",0.0,1.0,0.1408710479736328,1.7716059684753418,0.5314906949166045,67.0,677.0,0.0
R,U,"[5, 5]",-1.0,1.0,0.08665800094604492,5.936226844787598,0.717273052471039,67.0,678.0,0.0
R,U,"[4, 5]",0.0,1.0,0.28911399841308594,1.6598799228668213,0.27764656917017594,67.0,679.0,0.0
G,D,"[5, 5]",0.0,1.0,0.49303698539733887,2.1044511795043945,0.5153546898499365,67.0,680.0,0.0
,,"(6, 6)",,,,,,,,
Y,R,"[6, 7]",0.0,0.0,0.4148671627044678,3.2160251140594482,0.6975345768352038,68.0,681.0,0.0
B,L,"[6, 6]",0.0,0.0,0.778540849685669,2.51627516746521,0.630624756756957,68.0,682.0,0.0
R,U,"[5, 6]",1.0,1.0,0.4173760414123535,1.9217920303344727,0.4026648585642381,68.0,683.0,0.0
Y,R,"[5, 7]",1.0,2.0,0.6002840995788574,2.062869071960449,0.36525411449902445,68.0,684.0,0.0
G,D,"[6, 7]",0.0,2.0,0.49274516105651855,1.9697167873382568,0.36822290521874773,68.0,685.0,0.0
B,L,"[6, 6]",0.0,2.0,0.40181708335876465,2.030359983444214,0.5317284981890187,68.0,686.0,0.0
R,U,"[5, 6]",0.0,2.0,0.13640999794006348,1.9037997722625732,0.6685706280599528,68.0,687.0,0.0
R,U,"[4, 6]",0.0,2.0,0.13254904747009277,1.6215920448303223,0.39035941865512447,68.0,688.0,0.0
Y,R,"[4, 7]",0.0,2.0,0.3268589973449707,1.8221659660339355,0.39597918376542235,68.0,689.0,0.0
Y,R,"[4, 8]",0.0,2.0,0.2523660659790039,1.7666199207305908,0.4123280409153109,68.0,690.0,0.0
,,"(6, 6)",,,,,,,,
G,D,"[7, 6]",0.0,0.0,0.5070340633392334,4.307459831237793,0.7028609544623361,69.0,691.0,0.0
B,L,"[7, 5]",-1.0,0.0,0.02062511444091797,5.8833770751953125,0.7359660520940434,69.0,692.0,0.0
B,L,"[7, 4]",0.0,0.0,0.2360091209411621,1.894463062286377,0.564021208773865,69.0,693.0,0.0
Y,R,"[7, 5]",0.0,0.0,0.4600789546966553,2.0978610515594482,0.5283216193823668,69.0,694.0,0.0
R,U,"[6, 5]",0.0,0.0,0.45377683639526367,1.8488330841064453,0.3106671862945859,69.0,695.0,0.0
B,L,"[6, 4]",0.0,0.0,0.4637789726257324,2.2089359760284424,0.6524443460127526,69.0,696.0,0.0
R,U,"[5, 4]",0.0,0.0,0.18141698837280273,1.8828849792480469,0.6020503577374162,69.0,697.0,0.0
G,D,"[6, 4]",0.0,0.0,0.5369160175323486,2.180485963821411,0.5492507949380256,69.0,698.0,0.0
Y,R,"[6, 5]",0.0,0.0,0.27231311798095703,2.099526882171631,0.731748156942359,69.0,699.0,0.0
Y,R,"[6, 6]",0.0,0.0,0.21328306198120117,1.7209408283233643,0.4028538012208013,69.0,700.0,0.0
,,"(6, 6)",,,,,,,,
B,L,"[6, 5]",0.0,0.0,0.6942188739776611,3.441092014312744,0.29412786316449935,70.0,701.0,0.0
R,U,"[5, 5]",0.0,0.0,0.24133992195129395,1.6099281311035156,0.27069347610979294,70.0,702.0,0.0
G,D,"[6, 5]",0.0,0.0,0.3342618942260742,1.8179168701171875,0.3884930778347298,70.0,703.0,0.0
Y,R,"[6, 6]",0.0,0.0,0.6151230335235596,2.1356167793273926,0.42401467890362793,70.0,704.0,0.0
G,D,"[7, 6]",0.0,0.0,0.37774014472961426,1.8003780841827393,0.3243866154075389,70.0,705.0,0.0
B,L,"[7, 5]",0.0,0.0,0.24670100212097168,1.7782859802246094,0.43603441066954834,70.0,706.0,0.0
R,U,"[6, 5]",0.0,0.0,0.3301239013671875,1.9958698749542236,0.5648857218089839,70.0,707.0,0.0
Y,R,"[6, 6]",-1.0,0.0,0.07828187942504883,5.634526968002319,0.41614564518788194,70.0,708.0,0.0
Y,R,"[6, 7]",0.0,0.0,0.2636299133300781,1.9018158912658691,0.5341720107062471,70.0,709.0,0.0
B,L,"[6, 6]",0.0,0.0,0.4535868167877197,1.8404388427734375,0.2914368984601204,70.0,710.0,0.0
,,"(6, 6)",,,,,,,,
G,D,"[7, 6]",0.0,0.0,0.26090502738952637,3.5004329681396484,0.5917431469470444,71.0,711.0,0.0
B,L,"[7, 5]",0.0,0.0,0.40123486518859863,1.946491003036499,0.4547097944582401,71.0,712.0,0.0
Y,R,"[7, 6]",0.0,0.0,0.32479190826416016,1.7088909149169922,0.2805694390084114,71.0,713.0,0.0
Y,R,"[7, 7]",0.0,0.0,0.3774750232696533,2.21531081199646,0.7286073506196089,71.0,714.0,0.0
R,U,"[6, 7]",0.0,0.0,0.2644820213317871,2.034162998199463,0.6794480216979655,71.0,715.0,0.0
G,D,"[7, 7]",0.0,0.0,0.31137514114379883,1.9807071685791016,0.5600708470205613,71.0,716.0,0.0
R,U,"[6, 7]",0.0,0.0,0.49672508239746094,2.025151014328003,0.4352945549769545,71.0,717.0,0.0
Y,R,"[6, 8]",1.0,1.0,0.44127917289733887,2.2293741703033447,0.6809961413226513,71.0,718.0,0.0
B,L,"[6, 7]",0.0,1.0,0.3641519546508789,1.9641151428222656,0.4953485046915409,71.0,719.0,0.0
R,U,"[5, 7]",1.0,2.0,0.3959510326385498,1.7977190017700195,0.30987960708116963,71.0,720.0,0.0
,,"(6, 6)",,,,,,,,
R,U,"[5, 6]",1.0,1.0,0.8156089782714844,3.6344799995422363,0.5272948128699755,72.0,721.0,0.0
R,U,"[4, 6]",0.0,1.0,0.257659912109375,1.635228157043457,0.27914127696930724,72.0,722.0,0.0
Y,R,"[4, 7]",0.0,1.0,0.4354879856109619,2.003157138824463,0.46566491320156234,72.0,723.0,0.0
Y,R,"[4, 8]",-1.0,1.0,0.08687996864318848,5.581763029098511,0.3638798232719524,72.0,724.0,0.0
Y,R,"[4, 9]",1.0,2.0,0.30904698371887207,2.0836310386657715,0.6639036097913769,72.0,725.0,0.0
Y,R,"[4, 10]",1.0,3.0,0.3617110252380371,1.8426449298858643,0.373656604808047,72.0,726.0,0.0
Y,R,"[4, 11]",0.0,3.0,0.3543431758880615,1.714453935623169,0.27134938015439264,72.0,727.0,0.0
R,U,"[3, 11]",0.0,3.0,0.3984100818634033,2.2045199871063232,0.7086440345230064,72.0,728.0,0.0
B,L,"[3, 10]",0.0,3.0,0.3867189884185791,2.124406099319458,0.6496102707967251,72.0,729.0,0.0
G,D,"[4, 10]",0.0,3.0,0.29320502281188965,2.0152740478515625,0.614857704156726,72.0,730.0,0.0
,,"(6, 6)",,,,,,,,
G,D,"[7, 6]",0.0,0.0,0.7181658744812012,3.878376007080078,0.4601252139502057,73.0,731.0,0.0
B,L,"[7, 5]",0.0,0.0,0.44687604904174805,1.9716289043426514,0.43150588910650856,73.0,732.0,0.0
Y,R,"[7, 6]",0.0,0.0,0.24041509628295898,2.093061923980713,0.7409364960840458,73.0,733.0,0.0
R,U,"[6, 6]",0.0,0.0,0.3233468532562256,2.0979959964752197,0.6722324687034799,73.0,734.0,0.0
R,U,"[5, 6]",1.0,1.0,0.35306596755981445,2.070604085922241,0.6262105897528861,73.0,735.0,0.0
R,U,"[4, 6]",0.0,1.0,0.3384060859680176,1.931380033493042,0.507700344190804,73.0,736.0,0.0
G,D,"[5, 6]",0.0,1.0,0.22599005699157715,1.9133360385894775,0.5873729450743755,73.0,737.0,0.0
G,D,"[6, 6]",0.0,1.0,0.3322131633758545,1.9843180179595947,0.555204154468073,73.0,738.0,0.0
B,L,"[6, 5]",0.0,1.0,0.7029531002044678,2.1951260566711426,0.4002738114617019,73.0,739.0,0.0
Y,R,"[6, 6]",0.0,1.0,0.681952953338623,2.3800058364868164,0.5968967367799232,73.0,740.0,0.0
,,"(6, 6)",,,,,,,,
R,U,"[5, 6]",1.0,1.0,0.7161588668823242,3.631537914276123,0.7117408211422245,74.0,741.0,0.0
R,U,"[4, 6]",0.0,1.0,0.40884995460510254,2.0558130741119385,0.5505110387034768,74.0,742.0,0.0
B,L,"[4, 5]",0.0,1.0,0.35605287551879883,2.112913131713867,0.6466872484593126,74.0,743.0,0.0
G,D,"[5, 5]",0.0,1.0,0.2965571880340576,2.1147990226745605,0.7113217582196655,74.0,744.0,0.0
Y,R,"[5, 6]",0.0,1.0,0.5716290473937988,2.263526201248169,0.5917669583693125,74.0,745.0,0.0
Y,R,"[5, 7]",1.0,2.0,0.5151410102844238,2.0483169555664062,0.44004446386149243,74.0,746.0,0.0
G,D,"[6, 7]",-2.0,2.0,3.8287668228149414,5.126104831695557,0.2658951925869893,74.0,747.0,0.0
R,U,"[5, 7]",0.0,2.0,0.3382840156555176,2.1775639057159424,0.7431094601850218,74.0,748.0,0.0
G,D,"[6, 7]",0.0,2.0,0.2456371784210205,1.9218099117279053,0.5815582904583109,74.0,749.0,0.0
B,L,"[6, 6]",0.0,2.0,0.45525288581848145,2.1148500442504883,0.5465209914318442,74.0,750.0,0.0
,,"(6, 6)",,,,,,,,
G,D,"[7, 6]",0.0,0.0,0.47283005714416504,3.515048027038574,0.7444754966059339,75.0,751.0,0.0
R,U,"[6, 6]",0.0,0.0,0.3966360092163086,1.81221604347229,0.32380837239090077,75.0,752.0,0.0
B,L,"[6, 5]",0.0,0.0,0.8069899082183838,2.247835874557495,0.33828395207022804,75.0,753.0,0.0
Y,R,"[6, 6]",0.0,0.0,0.919064998626709,2.453562021255493,0.44160730803767223,75.0,754.0,0.0
Y,R,"[6, 7]",-1.0,0.0,0.03864407539367676,5.623400926589966,0.4646788801104326,75.0,755.0,0.0
G,D,"[7, 7]",0.0,0.0,0.4552149772644043,2.0426950454711914,0.47422805249249944,75.0,756.0,0.0
B,L,"[7, 6]",0.0,0.0,0.5089480876922607,1.8983330726623535,0.2891617398967042,75.0,757.0,0.0
Y,R,"[7, 7]",0.0,0.0,0.32996296882629395,2.0262889862060547,0.5986570123493169,75.0,758.0,0.0
R,U,"[6, 7]",0.0,0.0,0.25051283836364746,1.697540044784546,0.346129119096946,75.0,759.0,0.0
Y,R,"[6, 8]",1.0,1.0,0.3387298583984375,1.9678912162780762,0.5140046447884491,75.0,760.0,0.0
,,"(6, 6)",,,,,,,,
Y,R,"[6, 7]",0.0,0.0,0.2800130844116211,3.9852421283721924,0.2826730167791507,76.0,761.0,0.0
Y,R,"[6, 8]",1.0,1.0,0.3244781494140625,2.0633339881896973,0.6287786228441552,76.0,762.0,0.0
R,U,"[5, 8]",-1.0,1.0,0.06880998611450195,5.8593199253082275,0.6711808315995293,76.0,763.0,0.0
R,U,"[4, 8]",0.0,1.0,0.21259689331054688,1.7172329425811768,0.40548306450648947,76.0,764.0,0.0
Y,R,"[4, 9]",1.0,2.0,0.5769491195678711,2.1627089977264404,0.4845090027407957,76.0,765.0,0.0
B,L,"[4, 8]",0.0,2.0,0.5021650791168213,1.9026458263397217,0.3041364163060459,76.0,766.0,0.0
Y,R,"[4, 9]",0.0,2.0,0.36589813232421875,2.197519063949585,0.7345178761177902,76.0,767.0,0.0
Y,R,"[4, 10]",1.0,3.0,0.23319005966186523,1.7927980422973633,0.46080901718757294,76.0,768.0,0.0
Y,R,"[4, 11]",0.0,3.0,0.2808218002319336,1.629105806350708,0.25647453274798265,76.0,769.0,0.0
Y,R,"[4, 10]",-3.0,3.0,0.46642494201660156,2.098737955093384,0.5381752469527579,76.0,770.0,0.0
,,"(6, 6)",,,,,,,,
Y,R,"[6, 7]",0.0,0.0,0.25838804244995117,3.044787883758545,0.28317154197270594,77.0,771.0,0.0
Y,R,"[6, 8]",1.0,1.0,0.2713191509246826,1.6173300743103027,0.2504585390136634,77.0,772.0,0.0
Y,R,"[6, 9]",1.0,2.0,0.13904190063476562,1.7295589447021484,0.4797987774339628,77.0,773.0,0.0
Y,R,"[6, 10]",-1.0,2.0,0.08065414428710938,5.604066848754883,0.3836816415970179,77.0,774.0,0.0
Y,R,"[6, 11]",0.0,2.0,0.327286958694458,1.8964550495147705,0.46333986005907035,77.0,775.0,0.0
Y,R,"[6, 10]",-3.0,2.0,0.46015405654907227,2.1605961322784424,0.590447836987686,77.0,776.0,0.0
Y,R,"[6, 11]",0.0,2.0,0.30922508239746094,2.0325870513916016,0.6229370710417409,77.0,777.0,0.0
Y,R,"[6, 10]",-3.0,2.0,0.22716712951660156,1.8396461009979248,0.5127375385303001,77.0,778.0,0.0
Y,R,"[6, 11]",0.0,2.0,0.23431396484375,1.9686341285705566,0.6313007418444895,77.0,779.0,0.0
Y,R,"[6, 10]",-3.0,2.0,0.13749909400939941,1.5644638538360596,0.3290503993163301,77.0,780.0,0.0
,,"(6, 6)",,,,,,,,
G,D,"[7, 6]",0.0,0.0,0.57452392578125,4.454268932342529,0.7161413305964854,78.0,781.0,0.0
B,L,"[7, 5]",0.0,0.0,0.22123098373413086,1.8240079879760742,0.5070713521946681,78.0,782.0,0.0
G,D,"[8, 5]",0.0,0.0,0.2736670970916748,1.909278154373169,0.5330773996091829,78.0,783.0,0.0
B,L,"[8, 4]",0.0,0.0,0.2798891067504883,1.8856050968170166,0.5019461510828189,78.0,784.0,0.0
G,D,"[9, 4]",0.0,0.0,0.38880205154418945,2.2078921794891357,0.7093819845968097,78.0,785.0,0.0
B,L,"[9, 3]",0.0,0.0,0.21053695678710938,1.8963730335235596,0.5897481952145964,78.0,786.0,0.0
G,D,"[10, 3]",0.0,0.0,0.5084831714630127,2.29260516166687,0.6817870036455255,78.0,787.0,0.0
B,L,"[10, 2]",0.0,0.0,0.2314159870147705,1.5872130393981934,0.25236116380932355,78.0,788.0,0.0
B,L,"[10, 1]",0.0,0.0,0.9390900135040283,2.3930468559265137,0.3454163416723956,78.0,789.0,0.0
G,D,"[11, 1]",0.0,0.0,0.31172609329223633,1.6972508430480957,0.2926833886994998,78.0,790.0,0.0
,,"(6, 6)",,,,,,,,
R,U,"[5, 6]",1.0,1.0,0.5273470878601074,4.267853021621704,0.3269680770206713,79.0,791.0,0.0
R,U,"[4, 6]",0.0,1.0,0.7729499340057373,2.2089550495147705,0.3358579475776157,79.0,792.0,0.0
G,D,"[5, 6]",0.0,1.0,0.4342498779296875,1.982403039932251,0.4516195605089673,79.0,793.0,0.0
B,L,"[5, 5]",0.0,1.0,0.15505695343017578,1.940497875213623,0.658377879675157,79.0,794.0,0.0
Y,R,"[5, 6]",-1.0,1.0,0.059597015380859375,5.695799827575684,0.5206820732171635,79.0,795.0,0.0
Y,R,"[5, 7]",1.0,2.0,0.4200911521911621,1.9158899784088135,0.4034471412707917,79.0,796.0,0.0
Y,R,"[5, 8]",1.0,3.0,0.34241604804992676,1.7372429370880127,0.2907017603694032,79.0,797.0,0.0
Y,R,"[5, 9]",0.0,3.0,0.7595129013061523,2.376304864883423,0.5166450911818732,79.0,798.0,0.0
B,L,"[5, 8]",0.0,3.0,0.6760461330413818,2.356811046600342,0.5732471035221461,79.0,799.0,0.0
G,D,"[6, 8]",1.0,4.0,0.4599900245666504,2.131369113922119,0.5714056012351088,79.0,800.0,0.0
,,"(6, 6)",,,,,,,,
R,U,"[5, 6]",1.0,1.0,0.45203709602355957,3.785085916519165,0.273141887834886,80.0,801.0,0.0
R,U,"[4, 6]",0.0,1.0,0.3661830425262451,2.127027988433838,0.666386558708112,80.0,802.0,0.0
G,D,"[5, 6]",0.0,1.0,0.6220080852508545,2.025247097015381,0.29219386734562736,80.0,803.0,0.0
Y,R,"[5, 7]",1.0,2.0,0.556279182434082,2.0000040531158447,0.34210215966868046,80.0,804.0,0.0
R,U,"[4, 7]",0.0,2.0,0.2191929817199707,1.5904059410095215,0.2822552191441597,80.0,805.0,0.0
Y,R,"[4, 8]",0.0,2.0,0.33220791816711426,2.0213639736175537,0.5865709450193182,80.0,806.0,0.0
B,L,"[4, 7]",0.0,2.0,0.15830397605895996,1.518949031829834,0.25586745343675527,80.0,807.0,0.0
G,D,"[5, 7]",0.0,2.0,0.4717440605163574,2.2467548847198486,0.6687250553847792,80.0,808.0,0.0
G,D,"[6, 7]",0.0,2.0,0.4879028797149658,2.337635040283203,0.7233244884687735,80.0,809.0,0.0
R,U,"[5, 7]",0.0,2.0,0.2834630012512207,2.0327839851379395,0.6559357791448996,80.0,810.0,0.0
,,"(6, 6)",,,,,,,,
R,U,"[5, 6]",1.0,1.0,0.45518994331359863,5.507205009460449,0.6795288143283225,81.0,811.0,0.0
R,U,"[4, 6]",0.0,1.0,0.18030381202697754,1.934053897857666,0.6467134370453076,81.0,812.0,0.0
Y,R,"[4, 7]",0.0,1.0,0.45786404609680176,1.8310258388519287,0.2613901616152463,81.0,813.0,0.0
B,L,"[4, 6]",0.0,1.0,0.7992489337921143,2.3322880268096924,0.4434391667817995,81.0,814.0,0.0
G,D,"[5, 6]",0.0,1.0,0.4058108329772949,1.9748458862304688,0.46843008306314804,81.0,815.0,0.0
B,L,"[5, 5]",0.0,1.0,0.32044506072998047,1.855970859527588,0.4408023761630585,81.0,816.0,0.0
Y,R,"[5, 6]",0.0,1.0,0.5024371147155762,1.881695032119751,0.2891319375939397,81.0,817.0,0.0
Y,R,"[5, 7]",1.0,2.0,0.3940880298614502,2.151252031326294,0.6566758269893492,81.0,818.0,0.0
Y,R,"[5, 8]",1.0,3.0,0.29913783073425293,1.8581819534301758,0.46511515550646354,81.0,819.0,0.0
R,U,"[4, 8]",0.0,3.0,0.3682999610900879,2.105912923812866,0.6374561017503843,81.0,820.0,0.0
,,"(6, 6)",,,,,,,,
G,D,"[7, 6]",0.0,0.0,0.3851051330566406,3.1684021949768066,0.5390184110386833,82.0,821.0,0.0
G,D,"[8, 6]",0.0,0.0,0.2905721664428711,1.80336594581604,0.4092873619934128,82.0,822.0,0.0
G,D,"[9, 6]",0.0,0.0,0.4065408706665039,1.7918000221252441,0.30103358527838947,82.0,823.0,0.0
B,L,"[9, 5]",0.0,0.0,0.41254305839538574,1.7931840419769287,0.2775861916186468,82.0,824.0,0.0
Y,R,"[9, 6]",0.0,0.0,0.4082958698272705,1.9061250686645508,0.40010270343884985,82.0,825.0,0.0
Y,R,"[9, 7]",0.0,0.0,0.3913991451263428,2.2096028327941895,0.7094815109755015,82.0,826.0,0.0
R,U,"[8, 7]",-1.0,0.0,0.014734029769897461,5.6649088859558105,0.5242004915890776,82.0,827.0,0.0
R,U,"[7, 7]",0.0,0.0,0.28177881240844727,1.8650388717651367,0.4895333622758465,82.0,828.0,0.0
B,L,"[7, 6]",0.0,0.0,0.3519749641418457,2.0084619522094727,0.5643387730822912,82.0,829.0,0.0
Y,R,"[7, 7]",0.0,0.0,0.5612790584564209,1.9222941398620605,0.25354503916400395,82.0,830.0,0.0
,,"(6, 6)",,,,,,,,
G,D,"[7, 6]",0.0,0.0,0.431581974029541,3.188789129257202,0.5918498317595726,83.0,831.0,0.0
R,U,"[6, 6]",0.0,0.0,0.2932310104370117,1.7080230712890625,0.316792032281302,83.0,832.0,0.0
B,L,"[6, 5]",0.0,0.0,0.5175058841705322,2.2757527828216553,0.6587447282999177,83.0,833.0,0.0
Y,R,"[6, 6]",0.0,0.0,0.4099080562591553,2.1838300228118896,0.6759518489025573,83.0,834.0,0.0
R,U,"[5, 6]",1.0,1.0,0.38346004486083984,1.854175090789795,0.38029746980645246,83.0,835.0,0.0
R,U,"[4, 6]",0.0,1.0,0.24773383140563965,1.9364428520202637,0.5831344948792005,83.0,836.0,0.0
G,D,"[5, 6]",0.0,1.0,0.3103470802307129,1.9317779541015625,0.5149193984325826,83.0,837.0,0.0
G,D,"[6, 6]",0.0,1.0,0.7621538639068604,2.5565848350524902,0.6880361963173893,83.0,838.0,0.0
G,D,"[7, 6]",0.0,1.0,0.1964108943939209,1.8026578426361084,0.5075155916287282,83.0,839.0,0.0
G,D,"[8, 6]",0.0,1.0,0.3699629306793213,1.926785945892334,0.46750850754378365,83.0,840.0,0.0
,,"(6, 6)",,,,,,,,
Y,R,"[6, 7]",0.0,0.0,0.4250152111053467,3.541944980621338,0.6258693590612115,84.0,841.0,0.0
R,U,"[5, 7]",1.0,1.0,0.17332983016967773,1.5113270282745361,0.25398465449703234,84.0,842.0,0.0
R,U,"[4, 7]",0.0,1.0,0.24624919891357422,1.6411209106445312,0.2949990015216935,84.0,843.0,0.0
B,L,"[4, 6]",0.0,1.0,0.2071390151977539,1.8165860176086426,0.5116483414746127,84.0,844.0,0.0
G,D,"[5, 6]",1.0,2.0,0.20960116386413574,1.8670790195465088,0.5618314537303934,84.0,845.0,0.0
G,D,"[6, 6]",-1.0,2.0,0.08209109306335449,5.89383602142334,0.6882970925174359,84.0,846.0,0.0
G,D,"[7, 6]",0.0,2.0,0.2075331211090088,1.5954790115356445,0.28439769664237907,84.0,847.0,0.0
G,D,"[8, 6]",-1.0,2.0,0.0804758071899414,5.657389879226685,0.441346468125212,84.0,848.0,0.0
Y,R,"[8, 7]",-1.0,2.0,0.03990793228149414,5.770428895950317,0.6119503621873736,84.0,849.0,0.0
Y,R,"[8, 8]",0.0,2.0,0.37281298637390137,2.046872854232788,0.5750171844606711,84.0,850.0,0.0
,,"(6, 6)",,,,,,,,
R,U,"[5, 6]",1.0,1.0,0.17786216735839844,3.367297887802124,0.5088341980067439,85.0,851.0,0.0
Y,R,"[5, 7]",1.0,2.0,0.3033769130706787,2.0364439487457275,0.6451158289383688,85.0,852.0,0.0
G,D,"[6, 7]",0.0,2.0,0.2568800449371338,1.9922740459442139,0.6375842279488886,85.0,853.0,0.0
Y,R,"[6, 8]",1.0,3.0,0.4584231376647949,2.172562837600708,0.609971207066964,85.0,854.0,0.0
Y,R,"[6, 9]",1.0,4.0,0.2679779529571533,1.9815778732299805,0.6247303352339993,85.0,855.0,0.0
R,U,"[5, 9]",0.0,4.0,0.5347130298614502,2.1345670223236084,0.5092227168412624,85.0,856.0,0.0
Y,R,"[5, 10]",1.0,5.0,0.46125006675720215,2.1501951217651367,0.5927512305517596,85.0,857.0,0.0
Y,R,"[5, 11]",0.0,5.0,0.28626012802124023,1.8547639846801758,0.48071687263868984,85.0,858.0,0.0
B,L,"[5, 10]",0.0,5.0,0.4424629211425781,2.1513869762420654,0.5989060211750421,85.0,859.0,0.0
G,D,"[6, 10]",1.0,6.0,0.3255019187927246,1.9054839611053467,0.47096976464298307,85.0,860.0,0.0
,,"(6, 6)",,,,,,,,
G,D,"[7, 6]",0.0,0.0,0.5400819778442383,3.2452759742736816,0.2995404688240652,86.0,861.0,0.0
Y,R,"[7, 7]",0.0,0.0,0.46038007736206055,2.23750376701355,0.670003604737521,86.0,862.0,0.0
R,U,"[6, 7]",0.0,0.0,0.22983407974243164,1.8361868858337402,0.5064776404774423,86.0,863.0,0.0
B,L,"[6, 6]",0.0,0.0,0.36071300506591797,2.205915927886963,0.7456126142539048,86.0,864.0,0.0
B,L,"[6, 5]",0.0,0.0,0.29279303550720215,1.9250719547271729,0.5370276242816228,86.0,865.0,0.0
B,L,"[6, 4]",0.0,0.0,0.4920330047607422,2.342195987701416,0.7458058118929607,86.0,866.0,0.0
G,D,"[7, 4]",0.0,0.0,0.36623597145080566,2.1583199501037598,0.6873776643727593,86.0,867.0,0.0
R,U,"[6, 4]",0.0,0.0,0.3178849220275879,2.0880069732666016,0.6752014624803242,86.0,868.0,0.0
Y,R,"[6, 5]",0.0,0.0,0.37098002433776855,2.1023199558258057,0.6443953128666947,86.0,869.0,0.0
B,L,"[6, 4]",0.0,0.0,0.3139529228210449,2.1479949951171875,0.7420085494877072,86.0,870.0,0.0
,,"(6, 6)",,,,,,,,
R,U,"[5, 6]",1.0,1.0,0.39441800117492676,3.0815320014953613,0.457094525717341,87.0,871.0,0.0
R,U,"[4, 6]",0.0,1.0,0.5608301162719727,2.3398749828338623,0.6799545261287019,87.0,872.0,0.0
B,L,"[4, 5]",0.0,1.0,0.25133204460144043,1.9888339042663574,0.6357097269748773,87.0,873.0,0.0
G,D,"[5, 5]",0.0,1.0,0.519096851348877,2.2215638160705566,0.6070456399123756,87.0,874.0,0.0
Y,R,"[5, 6]",0.0,1.0,0.5023190975189209,2.003087043762207,0.4102333475044347,87.0,875.0,0.0
B,L,"[5, 5]",0.0,1.0,0.6453399658203125,2.395869016647339,0.6558893812560502,87.0,876.0,0.0
R,U,"[4, 5]",0.0,1.0,0.3512129783630371,1.8183250427246094,0.37434770970188147,87.0,877.0,0.0
G,D,"[5, 5]",0.0,1.0,0.6095600128173828,1.9957261085510254,0.2866840291330146,87.0,878.0,0.0
R,U,"[4, 5]",0.0,1.0,0.51727294921875,2.015191078186035,0.40180251184513033,87.0,879.0,0.0
B,L,"[4, 4]",0.0,1.0,0.3388051986694336,1.9788031578063965,0.5469315534332936,87.0,880.0,0.0
,,"(6, 6)",,,,,,,,
G,D,"[7, 6]",0.0,0.0,0.6280629634857178,3.51472806930542,0.661531679254945,88.0,881.0,0.0
Y,R,"[7, 7]",0.0,0.0,0.5884089469909668,2.3805651664733887,0.7086417385114344,88.0,882.0,0.0
R,U,"[6, 7]",0.0,0.0,0.33303093910217285,1.905806064605713,0.481147161413212,88.0,883.0,0.0
G,D,"[7, 7]",0.0,0.0,0.37088680267333984,2.0529489517211914,0.5840170008861901,88.0,884.0,0.0
B,L,"[7, 6]",0.0,0.0,0.3333439826965332,1.8119890689849854,0.37950524483026793,88.0,885.0,0.0
G,D,"[8, 6]",0.0,0.0,0.6795949935913086,2.122183084487915,0.3349981614915699,88.0,886.0,0.0
Y,R,"[8, 7]",0.0,0.0,0.45101404190063477,2.0549631118774414,0.5063966259782025,88.0,887.0,0.0
R,U,"[7, 7]",0.0,0.0,0.3679311275482178,2.174896001815796,0.7143342049841579,88.0,888.0,0.0
B,L,"[7, 6]",0.0,0.0,0.19850611686706543,2.046333074569702,0.7441041268733202,88.0,889.0,0.0
G,D,"[8, 6]",0.0,0.0,0.24715304374694824,1.7410011291503906,0.40199004810083616,88.0,890.0,0.0
,,"(6, 6)",,,,,,,,
B,L,"[6, 5]",0.0,0.0,0.19254589080810547,3.5482161045074463,0.7162585328607367,89.0,891.0,0.0
B,L,"[6, 4]",0.0,0.0,0.3130159378051758,1.7330000400543213,0.3162134796432275,89.0,892.0,0.0
Y,R,"[6, 5]",0.0,0.0,0.7676999568939209,2.1735880374908447,0.30641908070551754,89.0,893.0,0.0
B,L,"[6, 4]",0.0,0.0,0.3163940906524658,1.990751028060913,0.5804362922561647,89.0,894.0,0.0
B,L,"[6, 3]",0.0,0.0,0.28997802734375,1.6954221725463867,0.29269820921077894,89.0,895.0,0.0
B,L,"[6, 2]",0.0,0.0,0.2990128993988037,1.7353260517120361,0.34434853577180874,89.0,896.0,0.0
G,D,"[7, 2]",0.0,0.0,0.8536338806152344,2.487614154815674,0.5485503076452667,89.0,897.0,0.0
G,D,"[8, 2]",0.0,0.0,0.31567907333374023,2.043358087539673,0.6250808886271739,89.0,898.0,0.0
G,D,"[9, 2]",0.0,0.0,0.3418450355529785,1.8777987957000732,0.4362690659332491,89.0,899.0,0.0
R,U,"[8, 2]",0.0,0.0,0.24148201942443848,1.6297328472137451,0.2827729992196679,89.0,900.0,0.0
,,"(6, 6)",,,,,,,,
G,D,"[7, 6]",0.0,0.0,0.4527409076690674,3.7593679428100586,0.30863425563344093,90.0,901.0,0.0
G,D,"[8, 6]",-1.0,0.0,0.018270015716552734,5.4148828983306885,0.2734364113069021,90.0,902.0,0.0
G,D,"[9, 6]",0.0,0.0,0.3925149440765381,2.1087889671325684,0.6151322153772205,90.0,903.0,0.0
R,U,"[8, 6]",0.0,0.0,0.34303903579711914,2.036555051803589,0.5851366750072879,90.0,904.0,0.0
B,L,"[8, 5]",0.0,0.0,0.28037405014038086,1.7272820472717285,0.3457569230389398,90.0,905.0,0.0
Y,R,"[8, 6]",-2.0,0.0,1.3226070404052734,2.6317429542541504,0.2774998327967261,90.0,906.0,0.0
Y,R,"[8, 7]",0.0,0.0,0.2622520923614502,2.105448007583618,0.7490643859047643,90.0,907.0,0.0
G,D,"[9, 7]",0.0,0.0,0.5286271572113037,2.109459161758423,0.4753715236100414,90.0,908.0,0.0
G,D,"[10, 7]",0.0,0.0,0.35854101181030273,2.082313060760498,0.6240588140467177,90.0,909.0,0.0
B,L,"[10, 6]",0.0,0.0,0.3603670597076416,2.0565900802612305,0.597470594253741,90.0,910.0,0.0
,,"(6, 6)",,,,,,,,
R,U,"[5, 6]",1.0,1.0,0.2880101203918457,3.2894551753997803,0.5366778138270156,91.0,911.0,0.0
R,U,"[4, 6]",0.0,1.0,0.42603302001953125,2.0631110668182373,0.5331662544576854,91.0,912.0,0.0
G,D,"[5, 6]",0.0,1.0,0.40067219734191895,1.957097053527832,0.45691561697487987,91.0,913.0,0.0
R,U,"[4, 6]",0.0,1.0,0.2922649383544922,1.8480420112609863,0.4547872457167409,91.0,914.0,0.0
R,U,"[3, 6]",0.0,1.0,0.7123620510101318,2.405384063720703,0.5936828600760942,91.0,915.0,0.0
Y,R,"[3, 7]",0.0,1.0,0.2672410011291504,1.874392032623291,0.5178211386945692,91.0,916.0,0.0
B,L,"[3, 6]",0.0,1.0,0.48686814308166504,2.3277578353881836,0.745297201373073,91.0,917.0,0.0
Y,R,"[3, 7]",0.0,1.0,0.3441789150238037,1.956407070159912,0.5185296589837846,91.0,918.0,0.0
G,D,"[4, 7]",0.0,1.0,0.6084780693054199,1.9935729503631592,0.27880205947499526,91.0,919.0,0.0
B,L,"[4, 6]",0.0,1.0,0.6231069564819336,2.0980069637298584,0.39342233819802475,91.0,920.0,0.0
,,"(6, 6)",,,,,,,,
R,U,"[5, 6]",1.0,1.0,0.3219759464263916,3.4605050086975098,0.436953003453086,92.0,921.0,0.0
Y,R,"[5, 7]",1.0,2.0,0.5740978717803955,2.306288003921509,0.6263866609597488,92.0,922.0,0.0
G,D,"[6, 7]",0.0,2.0,0.6484429836273193,2.1284217834472656,0.38833618288472416,92.0,923.0,0.0
R,U,"[5, 7]",0.0,2.0,0.6640300750732422,2.285137891769409,0.5233813897406006,92.0,924.0,0.0
Y,R,"[5, 8]",1.0,3.0,0.4096341133117676,1.8132579326629639,0.3033470040591036,92.0,925.0,0.0
R,U,"[4, 8]",-2.0,3.0,1.1026029586791992,2.454653024673462,0.3246267573992705,92.0,926.0,0.0
R,U,"[3, 8]",0.0,3.0,0.4168229103088379,1.8234682083129883,0.31461648627835337,92.0,927.0,0.0
Y,R,"[3, 9]",1.0,4.0,0.35448312759399414,1.731590986251831,0.27942818942918585,92.0,928.0,0.0
R,U,"[2, 9]",0.0,4.0,0.7102749347686768,2.3278470039367676,0.5071137251753954,92.0,929.0,0.0
Y,R,"[2, 10]",0.0,4.0,0.5848178863525391,2.1594290733337402,0.48309226644368514,92.0,930.0,0.0
,,"(6, 6)",,,,,,,,
Y,R,"[6, 7]",0.0,0.0,0.3409078121185303,3.4281680583953857,0.6109845596606505,93.0,931.0,0.0
R,U,"[5, 7]",1.0,1.0,0.5400400161743164,2.220673084259033,0.5818884137748543,93.0,932.0,0.0
G,D,"[6, 7]",0.0,1.0,0.32668614387512207,1.7296128273010254,0.2949126680465972,93.0,933.0,0.0
R,U,"[5, 7]",0.0,1.0,0.6596260070800781,2.1569979190826416,0.401778507779999,93.0,934.0,0.0
B,L,"[5, 6]",1.0,2.0,0.6949441432952881,2.4022860527038574,0.6038323861544972,93.0,935.0,0.0
B,L,"[5, 5]",0.0,2.0,0.25493884086608887,1.7161531448364258,0.35331488047003506,93.0,936.0,0.0
R,U,"[4, 5]",0.0,2.0,0.9182450771331787,2.5532360076904297,0.5397641297645158,93.0,937.0,0.0
Y,R,"[4, 6]",0.0,2.0,0.23348593711853027,1.8455209732055664,0.5187226830331162,93.0,938.0,0.0
Y,R,"[4, 7]",0.0,2.0,0.49851083755493164,2.2079381942749023,0.6096481158535154,93.0,939.0,0.0
B,L,"[4, 6]",0.0,2.0,0.6024401187896729,2.2408640384674072,0.5504290193158732,93.0,940.0,0.0
,,"(6, 6)",,,,,,,,
G,D,"[7, 6]",0.0,0.0,0.9780361652374268,5.470422983169556,0.4534410055895626,94.0,941.0,0.0
R,U,"[6, 6]",0.0,0.0,0.9301118850708008,2.654412031173706,0.6248824409525304,94.0,942.0,0.0
B,L,"[6, 5]",0.0,0.0,0.31377387046813965,1.681791067123413,0.2737204515090689,94.0,943.0,0.0
Y,R,"[6, 6]",0.0,0.0,0.641326904296875,2.293140172958374,0.5498511513614344,94.0,944.0,0.0
B,L,"[6, 5]",0.0,0.0,0.19817399978637695,1.6327989101409912,0.3327319035923183,94.0,945.0,0.0
G,D,"[7, 5]",0.0,0.0,0.1629021167755127,1.7727248668670654,0.5052958479809206,94.0,946.0,0.0
R,U,"[6, 5]",0.0,0.0,0.22623801231384277,1.903735876083374,0.575678716716788,94.0,947.0,0.0
G,D,"[7, 5]",0.0,0.0,0.22448492050170898,1.7057008743286133,0.3980181988954894,94.0,948.0,0.0
G,D,"[8, 5]",0.0,0.0,0.2714269161224365,2.0211708545684814,0.6356029273817817,94.0,949.0,0.0
G,D,"[9, 5]",0.0,0.0,0.20482420921325684,1.5722389221191406,0.2580482354809042,94.0,950.0,0.0
,,"(6, 6)",,,,,,,,
Y,R,"[6, 7]",0.0,0.0,0.28809404373168945,2.8724489212036133,0.4471777915779387,95.0,951.0,0.0
B,L,"[6, 6]",0.0,0.0,0.7598118782043457,2.4208860397338867,0.5510303280336031,95.0,952.0,0.0
G,D,"[7, 6]",0.0,0.0,0.3770170211791992,2.161916971206665,0.6794345291173335,95.0,953.0,0.0
R,U,"[6, 6]",0.0,0.0,0.2543461322784424,1.8854551315307617,0.5316057073165534,95.0,954.0,0.0
B,L,"[6, 5]",0.0,0.0,0.2013380527496338,1.852484941482544,0.5506161136445678,95.0,955.0,0.0
Y,R,"[6, 6]",0.0,0.0,0.9973628520965576,2.6521999835968018,0.5528542547751291,95.0,956.0,0.0
G,D,"[7, 6]",0.0,0.0,0.2819039821624756,1.9685790538787842,0.5879731115531732,95.0,957.0,0.0
B,L,"[7, 5]",0.0,0.0,0.2445359230041504,1.8577439785003662,0.5123131882758459,95.0,958.0,0.0
R,U,"[6, 5]",0.0,0.0,0.7934739589691162,2.335749864578247,0.431534003663976,95.0,959.0,0.0
G,D,"[7, 5]",0.0,0.0,0.2231459617614746,1.8565268516540527,0.521306572066412,95.0,960.0,0.0
,,"(6, 6)",,,,,,,,
Y,R,"[6, 7]",0.0,0.0,0.5870199203491211,3.1855368614196777,0.4235246103641978,96.0,961.0,0.0
B,L,"[6, 6]",0.0,0.0,0.553063154220581,2.129671812057495,0.4863158398790959,96.0,962.0,0.0
G,D,"[7, 6]",0.0,0.0,0.21823906898498535,1.7768709659576416,0.4630416186108537,96.0,963.0,0.0
R,U,"[6, 6]",0.0,0.0,0.6610429286956787,2.4833950996398926,0.7127867407894113,96.0,964.0,0.0
G,D,"[7, 6]",0.0,0.0,0.3386969566345215,2.175398111343384,0.7216668107280463,96.0,965.0,0.0
Y,R,"[7, 7]",0.0,0.0,0.30193305015563965,1.7763400077819824,0.3814380838020087,96.0,966.0,0.0
B,L,"[7, 6]",0.0,0.0,0.37253618240356445,1.8223440647125244,0.3371059269603768,96.0,967.0,0.0
R,U,"[6, 6]",0.0,0.0,0.37183713912963867,2.044301986694336,0.5645890407780552,96.0,968.0,0.0
G,D,"[7, 6]",0.0,0.0,0.9478950500488281,2.3183629512786865,0.26617521978620773,96.0,969.0,0.0
R,U,"[6, 6]",0.0,0.0,0.5681240558624268,2.416456937789917,0.7490247498657531,96.0,970.0,0.0
,,"(6, 6)",,,,,,,,
G,D,"[7, 6]",0.0,0.0,0.42839694023132324,4.025996923446655,0.5748881409132365,97.0,971.0,0.0
B,L,"[7, 5]",0.0,0.0,0.22576189041137695,1.78721284866333,0.46217856636468874,97.0,972.0,0.0
Y,R,"[7, 6]",0.0,0.0,0.26623106002807617,1.859787940979004,0.5049445555138239,97.0,973.0,0.0
R,U,"[6, 6]",0.0,0.0,0.24700188636779785,1.8859128952026367,0.5410157090782244,97.0,974.0,0.0
B,L,"[6, 5]",0.0,0.0,0.41330981254577637,1.8521239757537842,0.3429777611823237,97.0,975.0,0.0
G,D,"[7, 5]",0.0,0.0,0.42122387886047363,2.1161270141601562,0.6091340582200389,97.0,976.0,0.0
Y,R,"[7, 6]",0.0,0.0,0.35254383087158203,2.066805124282837,0.6258658073083654,97.0,977.0,0.0
B,L,"[7, 5]",0.0,0.0,0.20990490913391113,2.043004035949707,0.7351762245901677,97.0,978.0,0.0
R,U,"[6, 5]",0.0,0.0,0.24468612670898438,1.827439785003662,0.4795320575539561,97.0,979.0,0.0
G,D,"[7, 5]",0.0,0.0,0.3105199337005615,2.1686809062957764,0.7478898133748417,97.0,980.0,0.0
,,"(6, 6)",,,,,,,,
Y,R,"[6, 7]",0.0,0.0,0.2574288845062256,3.006173849105835,0.5041094749952804,98.0,981.0,0.0
G,D,"[7, 7]",0.0,0.0,0.18438982963562012,1.7679879665374756,0.48884519381276725,98.0,982.0,0.0
B,L,"[7, 6]",0.0,0.0,0.2320878505706787,1.6712098121643066,0.3433877167353991,98.0,983.0,0.0
R,U,"[6, 6]",0.0,0.0,0.4563131332397461,1.995192050933838,0.4385102837141147,98.0,984.0,0.0
G,D,"[7, 6]",0.0,0.0,0.2234349250793457,2.008681058883667,0.6802403969925856,98.0,985.0,0.0
Y,R,"[7, 7]",0.0,0.0,0.20582294464111328,1.7132668495178223,0.39374492053836274,98.0,986.0,0.0
B,L,"[7, 6]",0.0,0.0,0.1718900203704834,1.866184949874878,0.6096772659088328,98.0,987.0,0.0
B,L,"[7, 5]",0.0,0.0,0.1790931224822998,1.6857490539550781,0.41209790064020996,98.0,988.0,0.0
Y,R,"[7, 6]",0.0,0.0,0.30649399757385254,1.8087880611419678,0.4044398323802279,98.0,989.0,0.0
G,D,"[8, 6]",0.0,0.0,0.30568599700927734,1.938265085220337,0.5256694858046537,98.0,990.0,0.0
,,"(6, 6)",,,,,,,,
R,U,"[5, 6]",1.0,1.0,0.3314478397369385,2.9720659255981445,0.43091186209595256,99.0,991.0,0.0
R,U,"[4, 6]",0.0,1.0,0.29500293731689453,1.8306159973144531,0.42814082889549626,99.0,992.0,0.0
R,U,"[3, 6]",0.0,1.0,0.2903621196746826,1.71722412109375,0.3288075699237711,99.0,993.0,0.0
G,D,"[4, 6]",0.0,1.0,0.3480100631713867,2.0865440368652344,0.6485273015227333,99.0,994.0,0.0
Y,R,"[4, 7]",0.0,1.0,0.2436220645904541,2.0187058448791504,0.6670310063825385,99.0,995.0,0.0
B,L,"[4, 6]",0.0,1.0,0.214094877243042,2.031290054321289,0.7150746222162241,99.0,996.0,0.0
R,U,"[3, 6]",-1.0,1.0,0.05501294136047363,5.8205671310424805,0.6351666503377097,99.0,997.0,0.0
R,U,"[2, 6]",-1.0,1.0,0.041522979736328125,5.815526962280273,0.6508153344806333,99.0,998.0,0.0
R,U,"[1, 6]",0.0,1.0,0.7920441627502441,2.3398759365081787,0.44061439944852343,99.0,999.0,0.0
G,D,"[2, 6]",0.0,1.0,0.828125,2.1894690990448,0.26340447661580624,99.0,1000.0,0.0
