button_choice,action_choice,coordinate_choice,reward,cumulative_reward,rt,total_trial_time,iti,block_n,trial_n,trial_type
R,U,"[5, 6]",1.0,1.0,0.4979989528656006,1.9192068576812744,0.320141018020812,0.0,1.0,0.0
R,U,"[4, 6]",0.0,1.0,0.3241128921508789,1.9037539958953857,0.4737562835100753,0.0,2.0,0.0
Y,R,"[4, 7]",0.0,1.0,0.5685718059539795,1.9778249263763428,0.3184936388285679,0.0,3.0,0.0
G,D,"[5, 7]",1.0,2.0,0.46386003494262695,2.2403059005737305,0.6751150554736927,0.0,4.0,0.0
Y,R,"[5, 8]",1.0,3.0,0.21442794799804688,1.587501049041748,0.2797825542805453,0.0,5.0,0.0
Y,R,"[5, 9]",0.0,3.0,0.21680283546447754,1.8408751487731934,0.5203883687599046,0.0,6.0,0.0
R,U,"[4, 9]",1.0,4.0,0.2478160858154297,1.6087710857391357,0.26284048237469465,0.0,7.0,0.0
R,U,"[3, 9]",1.0,5.0,0.2688329219818115,1.7884440422058105,0.4178656066437057,0.0,8.0,0.0
B,L,"[3, 8]",0.0,5.0,0.20755410194396973,1.678290843963623,0.36299977959858326,0.0,9.0,0.0
B,L,"[3, 7]",0.0,5.0,0.8306219577789307,2.316931962966919,0.37982046001673386,0.0,10.0,0.0
,,"(6, 6)",,,,,,,,
R,U,"[5, 6]",1.0,1.0,0.8174300193786621,3.724004030227661,0.5037207087754223,1.0,11.0,0.0
R,U,"[4, 6]",0.0,1.0,0.3076629638671875,2.1066038608551025,0.6935536479152616,1.0,12.0,0.0
Y,R,"[4, 7]",0.0,1.0,0.20447611808776855,1.6626129150390625,0.3732613594323432,1.0,13.0,0.0
G,D,"[5, 7]",1.0,2.0,0.2433171272277832,1.7033309936523438,0.3599212836827694,1.0,14.0,0.0
Y,R,"[5, 8]",1.0,3.0,0.2099170684814453,1.6010611057281494,0.29440889555265354,1.0,15.0,0.0
Y,R,"[5, 9]",0.0,3.0,0.20696783065795898,1.7474000453948975,0.4415934491755545,1.0,16.0,0.0
R,U,"[4, 9]",1.0,4.0,0.223114013671875,1.87312912940979,0.5479702050673205,1.0,17.0,0.0
R,U,"[3, 9]",1.0,5.0,0.20261192321777344,1.624333143234253,0.32257871870287713,1.0,18.0,0.0
B,L,"[3, 8]",0.0,5.0,0.20143508911132812,1.7869958877563477,0.4928314838853788,1.0,19.0,0.0
R,U,"[2, 8]",0.0,5.0,0.2209630012512207,1.684277057647705,0.3606126916320605,1.0,20.0,0.0
,,"(6, 6)",,,,,,,,
R,U,"[5, 6]",1.0,1.0,0.8548178672790527,3.781977891921997,0.6257952223501082,2.0,21.0,0.0
Y,R,"[5, 7]",1.0,2.0,0.26464200019836426,1.8186290264129639,0.4612901891709826,2.0,22.0,0.0
Y,R,"[5, 8]",1.0,3.0,0.2210700511932373,1.5719609260559082,0.26681235603431347,2.0,23.0,0.0
G,D,"[6, 8]",1.0,4.0,0.222121000289917,1.6885919570922852,0.3552458003281486,2.0,24.0,0.0
Y,R,"[6, 9]",1.0,5.0,0.1864311695098877,1.7100889682769775,0.43202352213636747,2.0,25.0,0.0
Y,R,"[6, 10]",1.0,6.0,0.19754719734191895,1.9745018482208252,0.6729235654352181,2.0,26.0,0.0
R,U,"[5, 10]",1.0,7.0,0.1882009506225586,1.710787057876587,0.4339940612153085,2.0,27.0,0.0
R,U,"[4, 10]",1.0,8.0,0.19641804695129395,1.668463945388794,0.3692223358198399,2.0,28.0,0.0
B,L,"[4, 9]",1.0,9.0,0.2321319580078125,1.9849798679351807,0.6540850576405852,2.0,29.0,0.0
R,U,"[3, 9]",1.0,10.0,0.26259899139404297,1.9673550128936768,0.6047197075383379,2.0,30.0,0.0
,,"(6, 6)",,,,,,,,
R,U,"[5, 6]",1.0,1.0,0.6341218948364258,3.1171228885650635,0.5718508487721617,3.0,31.0,0.0
R,U,"[4, 6]",0.0,1.0,0.2424309253692627,1.9459049701690674,0.6011222069143716,3.0,32.0,0.0
Y,R,"[4, 7]",0.0,1.0,0.19321393966674805,1.7108790874481201,0.41220082432440924,3.0,33.0,0.0
G,D,"[5, 7]",1.0,2.0,0.1795361042022705,1.6855368614196777,0.41457399284759755,3.0,34.0,0.0
Y,R,"[5, 8]",1.0,3.0,0.1638929843902588,1.8308639526367188,0.5618840290190359,3.0,35.0,0.0
Y,R,"[5, 9]",0.0,3.0,0.18808412551879883,1.864469051361084,0.593103728013865,3.0,36.0,0.0
R,U,"[4, 9]",1.0,4.0,0.20840001106262207,1.9731769561767578,0.6662083968097792,3.0,37.0,0.0
R,U,"[3, 9]",1.0,5.0,0.20877599716186523,1.7233679294586182,0.42323749467007865,3.0,38.0,0.0
B,L,"[3, 8]",0.0,5.0,0.18087220191955566,1.8986079692840576,0.6215708973338329,3.0,39.0,0.0
R,U,"[2, 8]",0.0,5.0,0.23456501960754395,1.7651090621948242,0.43704704978448955,3.0,40.0,0.0
,,"(6, 6)",,,,,,,,
R,U,"[5, 6]",1.0,1.0,0.5896120071411133,4.173168182373047,0.4770052158858259,4.0,41.0,0.0
R,U,"[4, 6]",0.0,1.0,0.2673468589782715,2.0595510005950928,0.7028608771579831,4.0,42.0,0.0
Y,R,"[4, 7]",0.0,1.0,0.19938397407531738,1.9045181274414062,0.6075066557454496,4.0,43.0,0.0
G,D,"[5, 7]",1.0,2.0,0.19812393188476562,1.767307996749878,0.47497178128581363,4.0,44.0,0.0
Y,R,"[5, 8]",1.0,3.0,0.19449806213378906,2.040686845779419,0.7487355565206331,4.0,45.0,0.0
Y,R,"[5, 9]",0.0,3.0,0.24568510055541992,1.827260971069336,0.4763699586643836,4.0,46.0,0.0
R,U,"[4, 9]",1.0,4.0,0.3457779884338379,1.7537400722503662,0.31355759379297554,4.0,47.0,0.0
R,U,"[3, 9]",1.0,5.0,0.28823208808898926,1.6636261940002441,0.26076618310870986,4.0,48.0,0.0
B,L,"[3, 8]",0.0,5.0,0.2302539348602295,1.9716770648956299,0.6485990813750752,4.0,49.0,0.0
R,U,"[2, 8]",0.0,5.0,0.2184429168701172,1.6009690761566162,0.28332619193253505,4.0,50.0,0.0
,,"(6, 6)",,,,,,,,
R,U,"[5, 6]",1.0,1.0,0.3999600410461426,4.257122039794922,0.5901511414639637,5.0,51.0,0.0
Y,R,"[5, 7]",1.0,2.0,0.1781320571899414,1.567337989807129,0.2911567867529044,5.0,52.0,0.0
Y,R,"[5, 8]",1.0,3.0,0.24150300025939941,1.972132921218872,0.6297118285311445,5.0,53.0,0.0
G,D,"[6, 8]",1.0,4.0,0.18137693405151367,1.840507984161377,0.5534816743214551,5.0,54.0,0.0
Y,R,"[6, 9]",1.0,5.0,0.21762490272521973,1.650155782699585,0.3374160331200027,5.0,55.0,0.0
Y,R,"[6, 10]",1.0,6.0,0.24185609817504883,2.0696380138397217,0.7231979064271268,5.0,56.0,0.0
R,U,"[5, 10]",1.0,7.0,0.22354698181152344,1.640604019165039,0.3143211468614043,5.0,57.0,0.0
R,U,"[4, 10]",1.0,8.0,0.2827270030975342,1.7036490440368652,0.317984580545432,5.0,58.0,0.0
B,L,"[4, 9]",1.0,9.0,0.23835086822509766,1.651249885559082,0.3025447523907106,5.0,59.0,0.0
R,U,"[3, 9]",1.0,10.0,0.24866390228271484,1.7779018878936768,0.4305623311450618,5.0,60.0,0.0
,,"(6, 6)",,,,,,,,
R,U,"[5, 6]",1.0,1.0,0.5369360446929932,3.224215030670166,0.721109694810034,6.0,61.0,0.0
Y,R,"[5, 7]",1.0,2.0,0.2300891876220703,2.0045230388641357,0.6757827947895323,6.0,62.0,0.0
Y,R,"[5, 8]",1.0,3.0,0.2338118553161621,1.6850709915161133,0.3611665199224074,6.0,63.0,0.0
G,D,"[6, 8]",1.0,4.0,0.2935500144958496,2.1321451663970947,0.7430313566954518,6.0,64.0,0.0
Y,R,"[6, 9]",1.0,5.0,0.20850920677185059,1.9224469661712646,0.6156541231453052,6.0,65.0,0.0
Y,R,"[6, 10]",1.0,6.0,0.23697113990783691,1.9899768829345703,0.655538515616591,6.0,66.0,0.0
R,U,"[5, 10]",1.0,7.0,0.22589802742004395,1.9910619258880615,0.663217841643255,6.0,67.0,0.0
R,U,"[4, 10]",1.0,8.0,0.24677705764770508,2.0921268463134766,0.7386454642771052,6.0,68.0,0.0
B,L,"[4, 9]",1.0,9.0,0.21255207061767578,1.6655919551849365,0.3545874562474401,6.0,69.0,0.0
R,U,"[3, 9]",1.0,10.0,0.24260401725769043,2.090479850769043,0.7447037441715219,6.0,70.0,0.0
,,"(6, 6)",,,,,,,,
R,U,"[5, 6]",1.0,1.0,0.41142797470092773,3.5894930362701416,0.6511156737091175,7.0,71.0,0.0
Y,R,"[5, 7]",1.0,2.0,0.2087559700012207,1.728869915008545,0.4135749016379574,7.0,72.0,0.0
Y,R,"[5, 8]",1.0,3.0,0.33841490745544434,1.9876179695129395,0.5510690417883113,7.0,73.0,0.0
G,D,"[6, 8]",1.0,4.0,0.23618292808532715,1.8133277893066406,0.4813274084431809,7.0,74.0,0.0
Y,R,"[6, 9]",1.0,5.0,0.25176477432250977,1.9380919933319092,0.585881441695853,7.0,75.0,0.0
Y,R,"[6, 10]",1.0,6.0,0.23867297172546387,1.9256811141967773,0.5782708333656963,7.0,76.0,0.0
R,U,"[5, 10]",1.0,7.0,0.2818028926849365,1.8580470085144043,0.48644814324573227,7.0,77.0,0.0
R,U,"[4, 10]",1.0,8.0,0.2401878833770752,1.8345038890838623,0.48769182754257484,7.0,78.0,0.0
B,L,"[4, 9]",1.0,9.0,0.2538869380950928,2.0200209617614746,0.6576333527952202,7.0,79.0,0.0
R,U,"[3, 9]",1.0,10.0,0.21968698501586914,2.0321919918060303,0.7231338218069709,7.0,80.0,0.0
,,"(6, 6)",,,,,,,,
R,U,"[5, 6]",1.0,1.0,0.4751560688018799,2.981290102005005,0.3381250161075497,8.0,81.0,0.0
Y,R,"[5, 7]",1.0,2.0,0.5321400165557861,2.157227039337158,0.5284818849279054,8.0,82.0,0.0
Y,R,"[5, 8]",1.0,3.0,0.23677778244018555,1.6023759841918945,0.2811515028064846,8.0,83.0,0.0
G,D,"[6, 8]",1.0,4.0,0.26715707778930664,1.8035829067230225,0.4346208864081416,8.0,84.0,0.0
Y,R,"[6, 9]",1.0,5.0,0.22190403938293457,1.6791749000549316,0.3472429182000293,8.0,85.0,0.0
Y,R,"[6, 10]",1.0,6.0,0.20590806007385254,1.6443798542022705,0.32479833858705975,8.0,86.0,0.0
R,U,"[5, 10]",1.0,7.0,0.3287501335144043,1.8666908740997314,0.44153377105565894,8.0,87.0,0.0
R,U,"[4, 10]",1.0,8.0,0.23506999015808105,1.7867109775543213,0.4616973058881577,8.0,88.0,0.0
B,L,"[4, 9]",1.0,9.0,0.19881415367126465,1.689547061920166,0.40140861792326427,8.0,89.0,0.0
R,U,"[3, 9]",1.0,10.0,0.217818021774292,1.767064094543457,0.45172018552958243,8.0,90.0,0.0
,,"(6, 6)",,,,,,,,
R,U,"[5, 6]",1.0,1.0,0.5532090663909912,3.1028380393981934,0.2713919747962981,9.0,91.0,0.0
Y,R,"[5, 7]",1.0,2.0,0.29331517219543457,1.9232208728790283,0.5277610299253698,9.0,92.0,0.0
Y,R,"[5, 8]",1.0,3.0,0.2198200225830078,1.8282430171966553,0.5226930928551989,9.0,93.0,0.0
G,D,"[6, 8]",1.0,4.0,0.233551025390625,1.835310935974121,0.5080875636624376,9.0,94.0,0.0
Y,R,"[6, 9]",1.0,5.0,0.24827790260314941,1.891638994216919,0.5496619801689372,9.0,95.0,0.0
Y,R,"[6, 10]",1.0,6.0,0.20889997482299805,2.0368731021881104,0.7198214426254335,9.0,96.0,0.0
R,U,"[5, 10]",1.0,7.0,0.39866185188293457,1.8563570976257324,0.3598529170297594,9.0,97.0,0.0
R,U,"[4, 10]",1.0,8.0,0.2282719612121582,1.8801071643829346,0.556356905659849,9.0,98.0,0.0
B,L,"[4, 9]",1.0,9.0,0.21693801879882812,2.0537121295928955,0.7433120710496541,9.0,99.0,0.0
R,U,"[3, 9]",1.0,10.0,0.21192216873168945,2.0315539836883545,0.7248626885167386,9.0,100.0,0.0
,,"(6, 6)",,,,,,,,
R,U,"[5, 6]",1.0,1.0,0.4630410671234131,3.3396859169006348,0.731313462750591,10.0,101.0,0.0
Y,R,"[5, 7]",1.0,2.0,0.23045587539672852,2.084778070449829,0.7493991718892764,10.0,102.0,0.0
Y,R,"[5, 8]",1.0,3.0,0.32193708419799805,1.8141429424285889,0.3806259211206477,10.0,103.0,0.0
G,D,"[6, 8]",1.0,4.0,0.268002986907959,1.9737138748168945,0.6042953243591858,10.0,104.0,0.0
Y,R,"[6, 9]",1.0,5.0,0.18917107582092285,1.7977149486541748,0.5019641198257341,10.0,105.0,0.0
Y,R,"[6, 10]",1.0,6.0,0.2278439998626709,1.832590103149414,0.5013269333571038,10.0,106.0,0.0
R,U,"[5, 10]",1.0,7.0,0.31667089462280273,1.8786730766296387,0.46348637376295027,10.0,107.0,0.0
R,U,"[4, 10]",1.0,8.0,0.27869606018066406,1.773758888244629,0.3873285056940687,10.0,108.0,0.0
B,L,"[4, 9]",1.0,9.0,0.24625706672668457,1.9391419887542725,0.5930273276354016,10.0,109.0,0.0
R,U,"[3, 9]",1.0,10.0,0.25780487060546875,2.0668039321899414,0.7096284329146848,10.0,110.0,0.0
,,"(6, 6)",,,,,,,,
R,U,"[5, 6]",1.0,1.0,0.6793520450592041,5.159632921218872,0.502967890718334,11.0,111.0,0.0
Y,R,"[5, 7]",1.0,2.0,0.2371079921722412,1.868736982345581,0.5214696456212845,11.0,112.0,0.0
Y,R,"[5, 8]",1.0,3.0,0.2925131320953369,1.6877901554107666,0.29298808690854056,11.0,113.0,0.0
G,D,"[6, 8]",1.0,4.0,0.2689640522003174,1.7244160175323486,0.36732584402550866,11.0,114.0,0.0
Y,R,"[6, 9]",1.0,5.0,0.2073819637298584,1.830233097076416,0.5139819742719691,11.0,115.0,0.0
Y,R,"[6, 10]",1.0,6.0,0.27358508110046387,1.98209810256958,0.5962854781036486,11.0,116.0,0.0
R,U,"[5, 10]",1.0,7.0,0.2451169490814209,1.787018060684204,0.43330955253375075,11.0,117.0,0.0
R,U,"[4, 10]",1.0,8.0,0.2369239330291748,1.690176010131836,0.35708685803992424,11.0,118.0,0.0
B,L,"[4, 9]",1.0,9.0,0.2649669647216797,2.078158140182495,0.7182992222001949,11.0,119.0,0.0
R,U,"[3, 9]",1.0,10.0,0.21491384506225586,1.926934003829956,0.6118547019772878,11.0,120.0,0.0
,,"(6, 6)",,,,,,,,
R,U,"[5, 6]",1.0,1.0,0.8783891201019287,5.025254011154175,0.6039141038179001,12.0,121.0,0.0
Y,R,"[5, 7]",1.0,2.0,0.2166280746459961,1.6908910274505615,0.3782794622269655,12.0,122.0,0.0
Y,R,"[5, 8]",1.0,3.0,0.24027800559997559,1.7430751323699951,0.4048164844809174,12.0,123.0,0.0
G,D,"[6, 8]",1.0,4.0,0.21328997611999512,1.686979055404663,0.3751824913428406,12.0,124.0,0.0
Y,R,"[6, 9]",1.0,5.0,0.23241400718688965,1.8118109703063965,0.48690562131885073,12.0,125.0,0.0
Y,R,"[6, 10]",1.0,6.0,0.23380589485168457,1.6198129653930664,0.2902093140581932,12.0,126.0,0.0
R,U,"[5, 10]",1.0,7.0,0.3587031364440918,1.862367868423462,0.40266508652362404,12.0,127.0,0.0
R,U,"[4, 10]",1.0,8.0,0.2260291576385498,2.0543830394744873,0.7232777209689211,12.0,128.0,0.0
B,L,"[4, 9]",1.0,9.0,0.20717692375183105,1.8036940097808838,0.4938562150743674,12.0,129.0,0.0
R,U,"[3, 9]",1.0,10.0,0.21548700332641602,1.6262850761413574,0.32055372907788143,12.0,130.0,0.0
,,"(6, 6)",,,,,,,,
R,U,"[5, 6]",1.0,1.0,0.7867579460144043,5.707921028137207,0.7111416500369694,13.0,131.0,0.0
Y,R,"[5, 7]",1.0,2.0,0.24808406829833984,1.5917978286743164,0.2536560998982146,13.0,132.0,0.0
Y,R,"[5, 8]",1.0,3.0,0.26311683654785156,1.6243298053741455,0.2613333934976092,13.0,133.0,0.0
G,D,"[6, 8]",1.0,4.0,0.2675950527191162,1.9911389350891113,0.6353684142036,13.0,134.0,0.0
Y,R,"[6, 9]",1.0,5.0,0.19951796531677246,2.029136896133423,0.731027401805116,13.0,135.0,0.0
Y,R,"[6, 10]",1.0,6.0,0.21033692359924316,1.6911108493804932,0.3727024193064178,13.0,136.0,0.0
R,U,"[5, 10]",1.0,7.0,0.34320998191833496,2.0278210639953613,0.5836712371467795,13.0,137.0,0.0
R,U,"[4, 10]",1.0,8.0,0.2888309955596924,1.9026069641113281,0.503029890487138,13.0,138.0,0.0
B,L,"[4, 9]",1.0,9.0,0.22585606575012207,1.7632720470428467,0.4330473913319912,13.0,139.0,0.0
R,U,"[3, 9]",1.0,10.0,0.3113420009613037,2.026426076889038,0.6092287469451779,13.0,140.0,0.0
,,"(6, 6)",,,,,,,,
R,U,"[5, 6]",1.0,1.0,0.6076090335845947,3.464980125427246,0.2915334817823198,14.0,141.0,0.0
Y,R,"[5, 7]",1.0,2.0,0.35756897926330566,1.964250087738037,0.5053409704973948,14.0,142.0,0.0
Y,R,"[5, 8]",1.0,3.0,0.23365306854248047,2.0630149841308594,0.7349302824878607,14.0,143.0,0.0
G,D,"[6, 8]",1.0,4.0,0.23487305641174316,1.5947768688201904,0.2635634117288596,14.0,144.0,0.0
Y,R,"[6, 9]",1.0,5.0,0.20733094215393066,2.0283098220825195,0.7082433013071785,14.0,145.0,0.0
Y,R,"[6, 10]",1.0,6.0,0.21247601509094238,1.9581968784332275,0.6494847760027413,14.0,146.0,0.0
R,U,"[5, 10]",1.0,7.0,0.23607110977172852,2.0840930938720703,0.7338761006299339,14.0,147.0,0.0
R,U,"[4, 10]",1.0,8.0,0.21077799797058105,2.0183370113372803,0.7023272252379862,14.0,148.0,0.0
B,L,"[4, 9]",1.0,9.0,0.2278299331665039,1.5811188220977783,0.25053286108248474,14.0,149.0,0.0
R,U,"[3, 9]",1.0,10.0,0.2886240482330322,2.1134979724884033,0.6968367167578783,14.0,150.0,0.0
,,"(6, 6)",,,,,,,,
R,U,"[5, 6]",1.0,1.0,0.6308410167694092,3.4919538497924805,0.6222290637610635,15.0,151.0,0.0
Y,R,"[5, 7]",1.0,2.0,0.22807908058166504,1.9235029220581055,0.5958516857995313,15.0,152.0,0.0
Y,R,"[5, 8]",1.0,3.0,0.21066713333129883,1.9535911083221436,0.6326430072695508,15.0,153.0,0.0
G,D,"[6, 8]",1.0,4.0,0.21036291122436523,1.792572021484375,0.4754560105857339,15.0,154.0,0.0
Y,R,"[6, 9]",1.0,5.0,0.2214219570159912,1.7475650310516357,0.40644757073297294,15.0,155.0,0.0
Y,R,"[6, 10]",1.0,6.0,0.2349071502685547,1.665848970413208,0.3390285597684163,15.0,156.0,0.0
R,U,"[5, 10]",1.0,7.0,0.30188798904418945,1.7725801467895508,0.37826291753922053,15.0,157.0,0.0
R,U,"[4, 10]",1.0,8.0,0.24933385848999023,1.9746911525726318,0.6361215277360823,15.0,158.0,0.0
B,L,"[4, 9]",1.0,9.0,0.24133086204528809,2.079085111618042,0.7318246050477502,15.0,159.0,0.0
R,U,"[3, 9]",1.0,10.0,0.18627691268920898,2.027541160583496,0.7426241992870339,15.0,160.0,0.0
,,"(6, 6)",,,,,,,,
R,U,"[5, 6]",1.0,1.0,0.7920670509338379,3.51568603515625,0.29243919521577055,16.0,161.0,0.0
Y,R,"[5, 7]",1.0,2.0,0.3578190803527832,1.841102123260498,0.38323307054969663,16.0,162.0,0.0
Y,R,"[5, 8]",1.0,3.0,0.2622220516204834,1.921273946762085,0.5544151598709008,16.0,163.0,0.0
G,D,"[6, 8]",1.0,4.0,0.21891379356384277,1.982377052307129,0.6534505679703351,16.0,164.0,0.0
Y,R,"[6, 9]",1.0,5.0,0.2103581428527832,1.87074613571167,0.55772598109127,16.0,165.0,0.0
Y,R,"[6, 10]",1.0,6.0,0.2072138786315918,1.655574083328247,0.34672983174893784,16.0,166.0,0.0
R,U,"[5, 10]",1.0,7.0,0.3495960235595703,1.8688318729400635,0.4155595490497615,16.0,167.0,0.0
R,U,"[4, 10]",1.0,8.0,0.22581195831298828,2.0446979999542236,0.7100052696306853,16.0,168.0,0.0
B,L,"[4, 9]",1.0,9.0,0.20987796783447266,2.055166006088257,0.748576393987312,16.0,169.0,0.0
R,U,"[3, 9]",1.0,10.0,0.20673203468322754,1.785423994064331,0.4675012688827536,16.0,170.0,0.0
,,"(6, 6)",,,,,,,,
R,U,"[5, 6]",1.0,1.0,0.48345518112182617,3.0340349674224854,0.7346060588524975,17.0,171.0,0.0
Y,R,"[5, 7]",1.0,2.0,0.2233569622039795,1.9227797985076904,0.5909305191694871,17.0,172.0,0.0
Y,R,"[5, 8]",1.0,3.0,0.2480330467224121,1.6770639419555664,0.3350777589583622,17.0,173.0,0.0
G,D,"[6, 8]",1.0,4.0,0.26939892768859863,1.796656847000122,0.43144637154534626,17.0,174.0,0.0
Y,R,"[6, 9]",1.0,5.0,0.2305290699005127,1.8271520137786865,0.49199779684741346,17.0,175.0,0.0
Y,R,"[6, 10]",1.0,6.0,0.2603328227996826,2.0878660678863525,0.7296749830610363,17.0,176.0,0.0
R,U,"[5, 10]",1.0,7.0,0.23926186561584473,1.926265001296997,0.5726934688205189,17.0,177.0,0.0
R,U,"[4, 10]",1.0,8.0,0.2016451358795166,1.7886478900909424,0.4949255696870007,17.0,178.0,0.0
B,L,"[4, 9]",1.0,9.0,0.2773268222808838,1.664736032485962,0.2932677136002839,17.0,179.0,0.0
R,U,"[3, 9]",1.0,10.0,0.2717618942260742,1.8302080631256104,0.4731829848013923,17.0,180.0,0.0
,,"(6, 6)",,,,,,,,
R,U,"[5, 6]",1.0,1.0,0.603356122970581,2.4744529724121094,0.4478995788944012,18.0,181.0,0.0
Y,R,"[5, 7]",1.0,2.0,0.23545503616333008,1.9329218864440918,0.597326090916499,18.0,182.0,0.0
Y,R,"[5, 8]",1.0,3.0,0.19013595581054688,1.8821752071380615,0.5795057740683448,18.0,183.0,0.0
G,D,"[6, 8]",1.0,4.0,0.23990702629089355,1.8577539920806885,0.503933764109755,18.0,184.0,0.0
Y,R,"[6, 9]",1.0,5.0,0.22485899925231934,2.003391981124878,0.6738786098750409,18.0,185.0,0.0
Y,R,"[6, 10]",1.0,6.0,0.21681618690490723,1.8484470844268799,0.5391164990041433,18.0,186.0,0.0
R,U,"[5, 10]",1.0,7.0,0.22390103340148926,1.780738115310669,0.4533397009819537,18.0,187.0,0.0
R,U,"[4, 10]",1.0,8.0,0.2440800666809082,1.8605670928955078,0.5138826759864794,18.0,188.0,0.0
B,L,"[4, 9]",1.0,9.0,0.21998286247253418,1.6593291759490967,0.34016082076436893,18.0,189.0,0.0
R,U,"[3, 9]",1.0,10.0,0.2420518398284912,2.058738946914673,0.7151921426347306,18.0,190.0,0.0
,,"(6, 6)",,,,,,,,
R,U,"[5, 6]",1.0,1.0,0.5886759757995605,2.7728168964385986,0.4549849458166039,19.0,191.0,0.0
Y,R,"[5, 7]",1.0,2.0,0.20467090606689453,1.5952208042144775,0.28368113399665734,19.0,192.0,0.0
Y,R,"[5, 8]",1.0,3.0,0.24471497535705566,1.678360939025879,0.32867739493789366,19.0,193.0,0.0
G,D,"[6, 8]",1.0,4.0,0.22133493423461914,1.8575248718261719,0.5526716765045728,19.0,194.0,0.0
Y,R,"[6, 9]",1.0,5.0,0.22311711311340332,1.7614409923553467,0.43097503411239263,19.0,195.0,0.0
Y,R,"[6, 10]",1.0,6.0,0.23035001754760742,1.8313889503479004,0.49564115324685104,19.0,196.0,0.0
R,U,"[5, 10]",1.0,7.0,0.23540902137756348,1.8203051090240479,0.4991842820361234,19.0,197.0,0.0
R,U,"[4, 10]",1.0,8.0,0.26278018951416016,1.842668056488037,0.4752691769349027,19.0,198.0,0.0
B,L,"[4, 9]",1.0,9.0,0.2569570541381836,2.0896260738372803,0.7313785053836879,19.0,199.0,0.0
R,U,"[3, 9]",1.0,10.0,0.20296502113342285,1.6289269924163818,0.32744181231492914,19.0,200.0,0.0
,,"(6, 6)",,,,,,,,
R,U,"[5, 6]",1.0,1.0,0.40770816802978516,2.217384099960327,0.2783096505218874,20.0,201.0,0.0
Y,R,"[5, 7]",1.0,2.0,0.21581411361694336,2.013282060623169,0.7076932885404261,20.0,202.0,0.0
Y,R,"[5, 8]",1.0,3.0,0.2093820571899414,1.863774061203003,0.555036052688753,20.0,203.0,0.0
G,D,"[6, 8]",1.0,4.0,0.22084498405456543,1.7475650310516357,0.4360607822984959,20.0,204.0,0.0
Y,R,"[6, 9]",1.0,5.0,0.2458958625793457,1.9269130229949951,0.5798542140520049,20.0,205.0,0.0
Y,R,"[6, 10]",1.0,6.0,0.19138002395629883,1.9478991031646729,0.6439821180629947,20.0,206.0,0.0
R,U,"[5, 10]",1.0,7.0,0.19306206703186035,1.8184080123901367,0.5292955732249329,20.0,207.0,0.0
R,U,"[4, 10]",1.0,8.0,0.20739078521728516,2.0424439907073975,0.7382153183673934,20.0,208.0,0.0
B,L,"[4, 9]",1.0,9.0,0.27353906631469727,1.643144130706787,0.2653300732543638,20.0,209.0,0.0
R,U,"[3, 9]",1.0,10.0,0.26735496520996094,1.6974859237670898,0.3293312036743963,20.0,210.0,0.0
,,"(6, 6)",,,,,,,,
R,U,"[5, 6]",1.0,1.0,0.40163111686706543,2.4578750133514404,0.42041393096543306,21.0,211.0,0.0
Y,R,"[5, 7]",1.0,2.0,0.269989013671875,1.7220630645751953,0.3426247980264742,21.0,212.0,0.0
Y,R,"[5, 8]",1.0,3.0,0.2382490634918213,1.5928220748901367,0.2685861966333189,21.0,213.0,0.0
G,D,"[6, 8]",1.0,4.0,0.2671658992767334,2.0004770755767822,0.6357058293285366,21.0,214.0,0.0
Y,R,"[6, 9]",1.0,5.0,0.22762393951416016,1.7495291233062744,0.41858008830289783,21.0,215.0,0.0
Y,R,"[6, 10]",1.0,6.0,0.2592759132385254,1.920367956161499,0.5556787833864937,21.0,216.0,0.0
R,U,"[5, 10]",1.0,7.0,0.23195600509643555,1.609950065612793,0.2826137570412096,21.0,217.0,0.0
R,U,"[4, 10]",1.0,8.0,0.29189395904541016,1.6676390171051025,0.2670431883289082,21.0,218.0,0.0
B,L,"[4, 9]",1.0,9.0,0.2712440490722656,1.876701831817627,0.5100783358586145,21.0,219.0,0.0
R,U,"[3, 9]",1.0,10.0,0.2208411693572998,2.0098488330841064,0.6864401428915247,21.0,220.0,0.0
,,"(6, 6)",,,,,,,,
R,U,"[5, 6]",1.0,1.0,0.6135740280151367,2.774225950241089,0.3275557805404378,22.0,221.0,0.0
Y,R,"[5, 7]",1.0,2.0,0.2867310047149658,2.004115104675293,0.631541553098772,22.0,222.0,0.0
Y,R,"[5, 8]",1.0,3.0,0.24680280685424805,2.01076078414917,0.6590697747029701,22.0,223.0,0.0
G,D,"[6, 8]",1.0,4.0,0.22003912925720215,1.5599279403686523,0.25278731637507185,22.0,224.0,0.0
Y,R,"[6, 9]",1.0,5.0,0.24291396141052246,1.680846929550171,0.33331404133120324,22.0,225.0,0.0
Y,R,"[6, 10]",1.0,6.0,0.262037992477417,1.8813650608062744,0.5146961588524028,22.0,226.0,0.0
R,U,"[5, 10]",1.0,7.0,0.42073702812194824,1.8498778343200684,0.31482747324252414,22.0,227.0,0.0
R,U,"[4, 10]",1.0,8.0,0.2609100341796875,1.9490039348602295,0.5802978332461863,22.0,228.0,0.0
B,L,"[4, 9]",1.0,9.0,0.3342721462249756,1.9731731414794922,0.536879273112006,22.0,229.0,0.0
R,U,"[3, 9]",1.0,10.0,0.22699785232543945,1.9385461807250977,0.6086485929841607,22.0,230.0,0.0
,,"(6, 6)",,,,,,,,
R,U,"[5, 6]",1.0,1.0,0.6220769882202148,2.6755049228668213,0.46778951731798346,23.0,231.0,0.0
Y,R,"[5, 7]",1.0,2.0,0.23477888107299805,1.8786180019378662,0.5462567934043447,23.0,232.0,0.0
Y,R,"[5, 8]",1.0,3.0,0.22161602973937988,1.9507479667663574,0.6303130256979816,23.0,233.0,0.0
G,D,"[6, 8]",1.0,4.0,0.22072792053222656,1.8371529579162598,0.5175560100424864,23.0,234.0,0.0
Y,R,"[6, 9]",1.0,5.0,0.239793062210083,1.705538034439087,0.37338561080275834,23.0,235.0,0.0
Y,R,"[6, 10]",1.0,6.0,0.20659804344177246,1.605309009552002,0.29532966737627053,23.0,236.0,0.0
R,U,"[5, 10]",1.0,7.0,0.26652002334594727,2.0665738582611084,0.7115531924808116,23.0,237.0,0.0
R,U,"[4, 10]",1.0,8.0,0.22713112831115723,1.7312920093536377,0.40982409973430806,23.0,238.0,0.0
B,L,"[4, 9]",1.0,9.0,0.22677087783813477,1.676861047744751,0.35349297700723453,23.0,239.0,0.0
R,U,"[3, 9]",1.0,10.0,0.23230195045471191,2.051906108856201,0.721615908886566,23.0,240.0,0.0
,,"(6, 6)",,,,,,,,
R,U,"[5, 6]",1.0,1.0,0.4103050231933594,2.568207025527954,0.3238878914281352,24.0,241.0,0.0
Y,R,"[5, 7]",1.0,2.0,0.2572200298309326,1.7504148483276367,0.39071600014094904,24.0,242.0,0.0
Y,R,"[5, 8]",1.0,3.0,0.2741219997406006,1.8479299545288086,0.4718680189422707,24.0,243.0,0.0
G,D,"[6, 8]",1.0,4.0,0.21025514602661133,1.6797780990600586,0.3684907593867095,24.0,244.0,0.0
Y,R,"[6, 9]",1.0,5.0,0.23036789894104004,1.75266695022583,0.4211536066208872,24.0,245.0,0.0
Y,R,"[6, 10]",1.0,6.0,0.21117711067199707,1.5848078727722168,0.2727498493447342,24.0,246.0,0.0
R,U,"[5, 10]",1.0,7.0,0.28877711296081543,1.8265690803527832,0.4158829569103718,24.0,247.0,0.0
R,U,"[4, 10]",1.0,8.0,0.20249605178833008,2.0319080352783203,0.7308303337089997,24.0,248.0,0.0
B,L,"[4, 9]",1.0,9.0,0.22575807571411133,1.8230199813842773,0.48748692550852807,24.0,249.0,0.0
R,U,"[3, 9]",1.0,10.0,0.2278001308441162,2.033690929412842,0.7043828215179343,24.0,250.0,0.0
,,"(6, 6)",,,,,,,,
R,U,"[5, 6]",1.0,1.0,0.5015101432800293,2.8862359523773193,0.6739422473459771,25.0,251.0,0.0
Y,R,"[5, 7]",1.0,2.0,0.22583818435668945,2.009597063064575,0.6835094708537112,25.0,252.0,0.0
Y,R,"[5, 8]",1.0,3.0,0.22397613525390625,1.825103998184204,0.49220753820995583,25.0,253.0,0.0
G,D,"[6, 8]",1.0,4.0,0.27387285232543945,2.072864055633545,0.6983077351312859,25.0,254.0,0.0
Y,R,"[6, 9]",1.0,5.0,0.20730900764465332,1.58433198928833,0.26636158244212926,25.0,255.0,0.0
Y,R,"[6, 10]",1.0,6.0,0.27481698989868164,1.8203709125518799,0.4365852326178355,25.0,256.0,0.0
R,U,"[5, 10]",1.0,7.0,0.2558870315551758,1.646536111831665,0.28325497724867243,25.0,257.0,0.0
R,U,"[4, 10]",1.0,8.0,0.2449939250946045,1.9033100605010986,0.5530302996794882,25.0,258.0,0.0
B,L,"[4, 9]",1.0,9.0,0.25287604331970215,2.075237989425659,0.7280885334132672,25.0,259.0,0.0
R,U,"[3, 9]",1.0,10.0,0.2712540626525879,1.8454310894012451,0.4738315399556883,25.0,260.0,0.0
,,"(6, 6)",,,,,,,,
R,U,"[5, 6]",1.0,1.0,0.4312748908996582,3.0489349365234375,0.5393891631458327,26.0,261.0,0.0
Y,R,"[5, 7]",1.0,2.0,0.23113489151000977,1.630012035369873,0.30307546779081623,26.0,262.0,0.0
Y,R,"[5, 8]",1.0,3.0,0.2048799991607666,1.7673680782318115,0.45351312306566394,26.0,263.0,0.0
G,D,"[6, 8]",1.0,4.0,0.20659995079040527,1.9281260967254639,0.6150086288742479,26.0,264.0,0.0
Y,R,"[6, 9]",1.0,5.0,0.21073603630065918,1.6379549503326416,0.31989790013895014,26.0,265.0,0.0
Y,R,"[6, 10]",1.0,6.0,0.23303794860839844,1.7897710800170898,0.4596037385280104,26.0,266.0,0.0
R,U,"[5, 10]",1.0,7.0,0.24963617324829102,1.915661096572876,0.575126469948916,26.0,267.0,0.0
R,U,"[4, 10]",1.0,8.0,0.2178940773010254,1.9554719924926758,0.6472955413619699,26.0,268.0,0.0
B,L,"[4, 9]",1.0,9.0,0.33930206298828125,1.9135448932647705,0.46094910115518056,26.0,269.0,0.0
R,U,"[3, 9]",1.0,10.0,0.22355294227600098,1.638084888458252,0.3325158398723094,26.0,270.0,0.0
,,"(6, 6)",,,,,,,,
R,U,"[5, 6]",1.0,1.0,0.36986398696899414,2.4130771160125732,0.4453130126463491,27.0,271.0,0.0
Y,R,"[5, 7]",1.0,2.0,0.2566549777984619,1.6538000106811523,0.2995589649880451,27.0,272.0,0.0
Y,R,"[5, 8]",1.0,3.0,0.2427990436553955,1.9970648288726807,0.6461381050022365,27.0,273.0,0.0
G,D,"[6, 8]",1.0,4.0,0.26400113105773926,1.6345889568328857,0.26450198341776304,27.0,274.0,0.0
Y,R,"[6, 9]",1.0,5.0,0.20888090133666992,2.0538489818573,0.7346248905194597,27.0,275.0,0.0
Y,R,"[6, 10]",1.0,6.0,0.23263192176818848,1.7891709804534912,0.4574106374943239,27.0,276.0,0.0
R,U,"[5, 10]",1.0,7.0,0.2656269073486328,1.6869609355926514,0.32779978486041716,27.0,277.0,0.0
R,U,"[4, 10]",1.0,8.0,0.2433478832244873,1.7713351249694824,0.4324503306418927,27.0,278.0,0.0
B,L,"[4, 9]",1.0,9.0,0.2642841339111328,1.70784592628479,0.3405081574400629,27.0,279.0,0.0
R,U,"[3, 9]",1.0,10.0,0.2200930118560791,1.7268049716949463,0.4173121568847525,27.0,280.0,0.0
,,"(6, 6)",,,,,,,,
R,U,"[5, 6]",1.0,1.0,0.451092004776001,2.9337241649627686,0.5007589036218818,28.0,281.0,0.0
Y,R,"[5, 7]",1.0,2.0,0.2097930908203125,1.7393231391906738,0.423703740587267,28.0,282.0,0.0
Y,R,"[5, 8]",1.0,3.0,0.2553689479827881,1.7748870849609375,0.4152870360078671,28.0,283.0,0.0
G,D,"[6, 8]",1.0,4.0,0.23372983932495117,1.9970669746398926,0.6620569477089486,28.0,284.0,0.0
Y,R,"[6, 9]",1.0,5.0,0.20209813117980957,1.7145910263061523,0.4268887891277586,28.0,285.0,0.0
Y,R,"[6, 10]",1.0,6.0,0.3960390090942383,1.8744630813598633,0.3847370963903386,28.0,286.0,0.0
R,U,"[5, 10]",1.0,7.0,0.22267794609069824,1.9786169528961182,0.646460776032145,28.0,287.0,0.0
R,U,"[4, 10]",1.0,8.0,0.23167896270751953,2.061999797821045,0.7251682939859263,28.0,288.0,0.0
B,L,"[4, 9]",1.0,9.0,0.273561954498291,2.0088179111480713,0.6341407703104165,28.0,289.0,0.0
R,U,"[3, 9]",1.0,10.0,0.22698616981506348,2.006342887878418,0.6736940256638326,28.0,290.0,0.0
,,"(6, 6)",,,,,,,,
R,U,"[5, 6]",1.0,1.0,0.3535730838775635,2.5954878330230713,0.5026088066970852,29.0,291.0,0.0
Y,R,"[5, 7]",1.0,2.0,0.24756908416748047,1.9508600234985352,0.6034840037493632,29.0,292.0,0.0
Y,R,"[5, 8]",1.0,3.0,0.22864413261413574,1.6408169269561768,0.3113918268164184,29.0,293.0,0.0
G,D,"[6, 8]",1.0,4.0,0.2820711135864258,1.8994250297546387,0.5273061200581967,29.0,294.0,0.0
Y,R,"[6, 9]",1.0,5.0,0.20623517036437988,1.6381380558013916,0.33232626053627434,29.0,295.0,0.0
Y,R,"[6, 10]",1.0,6.0,0.23101401329040527,1.6148641109466553,0.2805330360458325,29.0,296.0,0.0
R,U,"[5, 10]",1.0,7.0,0.23564600944519043,1.9474811553955078,0.6109818915411149,29.0,297.0,0.0
R,U,"[4, 10]",1.0,8.0,0.2091209888458252,1.6572279930114746,0.3518016623531187,29.0,298.0,0.0
B,L,"[4, 9]",1.0,9.0,0.21804094314575195,1.5925371646881104,0.27774367178260334,29.0,299.0,0.0
R,U,"[3, 9]",1.0,10.0,0.2140970230102539,1.9885621070861816,0.6827083854830396,29.0,300.0,0.0
,,"(6, 6)",,,,,,,,
R,U,"[5, 6]",1.0,1.0,0.6079449653625488,3.364487886428833,0.630667149097554,30.0,301.0,0.0
Y,R,"[5, 7]",1.0,2.0,0.21896100044250488,1.6223490238189697,0.3033174109221927,30.0,302.0,0.0
Y,R,"[5, 8]",1.0,3.0,0.23325014114379883,1.7000432014465332,0.3700314779101769,30.0,303.0,0.0
G,D,"[6, 8]",1.0,4.0,0.20334506034851074,1.9177310466766357,0.6042018360318737,30.0,304.0,0.0
Y,R,"[6, 9]",1.0,5.0,0.190842866897583,1.6769280433654785,0.3813066137528877,30.0,305.0,0.0
Y,R,"[6, 10]",1.0,6.0,0.21216106414794922,1.8404929637908936,0.5216594140548094,30.0,306.0,0.0
R,U,"[5, 10]",1.0,7.0,0.2111189365386963,1.9401679039001465,0.6285417076844632,30.0,307.0,0.0
R,U,"[4, 10]",1.0,8.0,0.24976706504821777,1.6009888648986816,0.2631496187767842,30.0,308.0,0.0
B,L,"[4, 9]",1.0,9.0,0.4262528419494629,2.0298268795013428,0.4927081006193909,30.0,309.0,0.0
R,U,"[3, 9]",1.0,10.0,0.2228682041168213,1.7688729763031006,0.44506388705044847,30.0,310.0,0.0
,,"(6, 6)",,,,,,,,
R,U,"[5, 6]",1.0,1.0,0.43071913719177246,2.2817940711975098,0.3768708549783547,31.0,311.0,0.0
Y,R,"[5, 7]",1.0,2.0,0.25495290756225586,1.9255101680755615,0.5689320329080355,31.0,312.0,0.0
Y,R,"[5, 8]",1.0,3.0,0.2399148941040039,2.0145280361175537,0.666746957619258,31.0,313.0,0.0
G,D,"[6, 8]",1.0,4.0,0.2495589256286621,1.8013999462127686,0.45155139964781515,31.0,314.0,0.0
Y,R,"[6, 9]",1.0,5.0,0.2523350715637207,1.8201220035552979,0.471733010577095,31.0,315.0,0.0
Y,R,"[6, 10]",1.0,6.0,0.22456598281860352,1.59431791305542,0.26636906058827037,31.0,316.0,0.0
R,U,"[5, 10]",1.0,7.0,0.3351399898529053,1.86049485206604,0.42667397581728933,31.0,317.0,0.0
R,U,"[4, 10]",1.0,8.0,0.254382848739624,1.9822750091552734,0.6421237923103854,31.0,318.0,0.0
B,L,"[4, 9]",1.0,9.0,0.22013497352600098,1.7085139751434326,0.4009027866464399,31.0,319.0,0.0
R,U,"[3, 9]",1.0,10.0,0.21740198135375977,1.7852799892425537,0.46958498148172845,31.0,320.0,0.0
,,"(6, 6)",,,,,,,,
R,U,"[5, 6]",1.0,1.0,0.4550590515136719,2.6076500415802,0.726934895151033,32.0,321.0,0.0
Y,R,"[5, 7]",1.0,2.0,0.19864606857299805,1.8814659118652344,0.5920063999810363,32.0,322.0,0.0
Y,R,"[5, 8]",1.0,3.0,0.2321469783782959,1.9686839580535889,0.6438456000302296,32.0,323.0,0.0
G,D,"[6, 8]",1.0,4.0,0.2136518955230713,1.9488260746002197,0.6427274386231758,32.0,324.0,0.0
Y,R,"[6, 9]",1.0,5.0,0.23852300643920898,1.752695083618164,0.412392466753811,32.0,325.0,0.0
Y,R,"[6, 10]",1.0,6.0,0.3366060256958008,1.7968289852142334,0.3757485084536614,32.0,326.0,0.0
R,U,"[5, 10]",1.0,7.0,0.23580193519592285,1.71327805519104,0.38912650585524916,32.0,327.0,0.0
R,U,"[4, 10]",1.0,8.0,0.23924016952514648,1.9496560096740723,0.6052815176518695,32.0,328.0,0.0
B,L,"[4, 9]",1.0,9.0,0.24010109901428223,1.65805983543396,0.31370771151327204,32.0,329.0,0.0
R,U,"[3, 9]",1.0,10.0,0.22446703910827637,1.6173069477081299,0.28108647061835196,32.0,330.0,0.0
,,"(6, 6)",,,,,,,,
R,U,"[5, 6]",1.0,1.0,0.4019310474395752,2.257664918899536,0.47190804255852936,33.0,331.0,0.0
Y,R,"[5, 7]",1.0,2.0,0.23482584953308105,1.6054539680480957,0.277627003081843,33.0,332.0,0.0
Y,R,"[5, 8]",1.0,3.0,0.27609801292419434,2.117358922958374,0.7444495327642539,33.0,333.0,0.0
G,D,"[6, 8]",1.0,4.0,0.20551300048828125,1.5588879585266113,0.2540322028452834,33.0,334.0,0.0
Y,R,"[6, 9]",1.0,5.0,0.22564411163330078,1.6308188438415527,0.30144092975847336,33.0,335.0,0.0
Y,R,"[6, 10]",1.0,6.0,0.2452089786529541,1.8212270736694336,0.472459417394624,33.0,336.0,0.0
R,U,"[5, 10]",1.0,7.0,0.23589015007019043,1.9483249187469482,0.6207346635999841,33.0,337.0,0.0
R,U,"[4, 10]",1.0,8.0,0.2073838710784912,1.703084945678711,0.3906665391893758,33.0,338.0,0.0
B,L,"[4, 9]",1.0,9.0,0.26716017723083496,2.0761921405792236,0.716603782108968,33.0,339.0,0.0
R,U,"[3, 9]",1.0,10.0,0.19672393798828125,1.6253750324249268,0.325646777419101,33.0,340.0,0.0
,,"(6, 6)",,,,,,,,
R,U,"[5, 6]",1.0,1.0,0.37453198432922363,2.6430039405822754,0.6684463976378847,34.0,341.0,0.0
Y,R,"[5, 7]",1.0,2.0,0.22492003440856934,1.6930711269378662,0.36149736865896503,34.0,342.0,0.0
Y,R,"[5, 8]",1.0,3.0,0.25596189498901367,1.6324851512908936,0.27779459775957865,34.0,343.0,0.0
G,D,"[6, 8]",1.0,4.0,0.23871612548828125,1.7385051250457764,0.3995400111108306,34.0,344.0,0.0
Y,R,"[6, 9]",1.0,5.0,0.23365402221679688,1.588392972946167,0.2546664110397493,34.0,345.0,0.0
Y,R,"[6, 10]",1.0,6.0,0.22848916053771973,1.783574104309082,0.4547466952115574,34.0,346.0,0.0
R,U,"[5, 10]",1.0,7.0,0.21378111839294434,1.602423906326294,0.2907690101195673,34.0,347.0,0.0
R,U,"[4, 10]",1.0,8.0,0.24334716796875,2.050832986831665,0.7078034172333443,34.0,348.0,0.0
B,L,"[4, 9]",1.0,9.0,0.2172391414642334,2.0408389568328857,0.7319382188420784,34.0,349.0,0.0
R,U,"[3, 9]",1.0,10.0,0.1998271942138672,1.7087337970733643,0.4077647179263009,34.0,350.0,0.0
,,"(6, 6)",,,,,,,,
R,U,"[5, 6]",1.0,1.0,0.37346601486206055,2.156497001647949,0.3643409240142409,35.0,351.0,0.0
Y,R,"[5, 7]",1.0,2.0,0.21967387199401855,1.6497840881347656,0.33083806766365137,35.0,352.0,0.0
Y,R,"[5, 8]",1.0,3.0,0.2197279930114746,1.9536941051483154,0.6341381620300675,35.0,353.0,0.0
G,D,"[6, 8]",1.0,4.0,0.2537851333618164,1.6907620429992676,0.3253359828972145,35.0,354.0,0.0
Y,R,"[6, 9]",1.0,5.0,0.21865510940551758,1.9970040321350098,0.6885861973322654,35.0,355.0,0.0
Y,R,"[6, 10]",1.0,6.0,0.37061381340026855,1.7434430122375488,0.28263884207330203,35.0,356.0,0.0
R,U,"[5, 10]",1.0,7.0,0.4479670524597168,2.036937952041626,0.4858792646091271,35.0,357.0,0.0
R,U,"[4, 10]",1.0,8.0,0.23804211616516113,1.6072578430175781,0.25994105127232836,35.0,358.0,0.0
B,L,"[4, 9]",1.0,9.0,0.39174818992614746,2.209043025970459,0.7186614915907875,35.0,359.0,0.0
R,U,"[3, 9]",1.0,10.0,0.21978211402893066,1.6309711933135986,0.31670985252424644,35.0,360.0,0.0
,,"(6, 6)",,,,,,,,
R,U,"[5, 6]",1.0,1.0,0.345120906829834,2.367945909500122,0.36809512445541687,36.0,361.0,0.0
Y,R,"[5, 7]",1.0,2.0,0.20363903045654297,2.0476889610290527,0.7487060178390572,36.0,362.0,0.0
Y,R,"[5, 8]",1.0,3.0,0.26821398735046387,2.0534708499908447,0.6855367081103498,36.0,363.0,0.0
G,D,"[6, 8]",1.0,4.0,0.22510719299316406,1.9244887828826904,0.5935360979129773,36.0,364.0,0.0
Y,R,"[6, 9]",1.0,5.0,0.193681001663208,1.6449079513549805,0.35526333128744386,36.0,365.0,0.0
Y,R,"[6, 10]",1.0,6.0,0.26283884048461914,1.9682979583740234,0.6068248390985498,36.0,366.0,0.0
R,U,"[5, 10]",1.0,7.0,0.40807104110717773,2.021857976913452,0.5120363521824158,36.0,367.0,0.0
R,U,"[4, 10]",1.0,8.0,0.18163800239562988,1.9555819034576416,0.6841436532756286,36.0,368.0,0.0
B,L,"[4, 9]",1.0,9.0,0.2488420009613037,1.6131649017333984,0.26447688276330295,36.0,369.0,0.0
R,U,"[3, 9]",1.0,10.0,0.21514105796813965,1.8070759773254395,0.4880180154033809,36.0,370.0,0.0
,,"(6, 6)",,,,,,,,
R,U,"[5, 6]",1.0,1.0,0.34926891326904297,2.169675827026367,0.34114454493430957,37.0,371.0,0.0
Y,R,"[5, 7]",1.0,2.0,0.21106410026550293,1.7399530410766602,0.43099959232578144,37.0,372.0,0.0
Y,R,"[5, 8]",1.0,3.0,0.20163893699645996,1.9169881343841553,0.6144240266893075,37.0,373.0,0.0
G,D,"[6, 8]",1.0,4.0,0.21509099006652832,1.6043798923492432,0.28589408237042785,37.0,374.0,0.0
Y,R,"[6, 9]",1.0,5.0,0.23989105224609375,1.6928248405456543,0.3454715692737274,37.0,375.0,0.0
Y,R,"[6, 10]",1.0,6.0,0.21397113800048828,1.7049999237060547,0.40031440250615175,37.0,376.0,0.0
R,U,"[5, 10]",1.0,7.0,0.20907902717590332,1.81060791015625,0.4942679211132331,37.0,377.0,0.0
R,U,"[4, 10]",1.0,8.0,0.22304987907409668,1.8279271125793457,0.5221577381235349,37.0,378.0,0.0
B,L,"[4, 9]",1.0,9.0,0.22808194160461426,1.613664150238037,0.2860088268210716,37.0,379.0,0.0
R,U,"[3, 9]",1.0,10.0,0.2382810115814209,1.8367259502410889,0.4893571756950108,37.0,380.0,0.0
,,"(6, 6)",,,,,,,,
R,U,"[5, 6]",1.0,1.0,0.3152170181274414,2.233839988708496,0.43989325615100294,38.0,381.0,0.0
Y,R,"[5, 7]",1.0,2.0,0.21118903160095215,1.9769771099090576,0.6666940248514113,38.0,382.0,0.0
Y,R,"[5, 8]",1.0,3.0,0.18995285034179688,2.005009889602661,0.7217067895690157,38.0,383.0,0.0
G,D,"[6, 8]",1.0,4.0,0.2027430534362793,1.6419260501861572,0.3472335918726938,38.0,384.0,0.0
Y,R,"[6, 9]",1.0,5.0,0.18854403495788574,1.7420680522918701,0.43928203926523135,38.0,385.0,0.0
Y,R,"[6, 10]",1.0,6.0,0.25355005264282227,1.6746649742126465,0.330743993807849,38.0,386.0,0.0
R,U,"[5, 10]",1.0,7.0,0.21723294258117676,1.7233531475067139,0.40411220603254444,38.0,387.0,0.0
R,U,"[4, 10]",1.0,8.0,0.2257399559020996,1.7145280838012695,0.38540185373520763,38.0,388.0,0.0
B,L,"[4, 9]",1.0,9.0,0.21808409690856934,2.032805919647217,0.717795197317513,38.0,389.0,0.0
R,U,"[3, 9]",1.0,10.0,0.23240017890930176,2.043739080429077,0.7115731410629836,38.0,390.0,0.0
,,"(6, 6)",,,,,,,,
R,U,"[5, 6]",1.0,1.0,0.39858317375183105,2.9696359634399414,0.49812294330084006,39.0,391.0,0.0
Y,R,"[5, 7]",1.0,2.0,0.2249619960784912,1.8283228874206543,0.49319543791518056,39.0,392.0,0.0
Y,R,"[5, 8]",1.0,3.0,0.20665693283081055,1.6544239521026611,0.3474791462009146,39.0,393.0,0.0
G,D,"[6, 8]",1.0,4.0,0.24895596504211426,1.615936040878296,0.263729701550324,39.0,394.0,0.0
Y,R,"[6, 9]",1.0,5.0,0.2245800495147705,1.8327891826629639,0.49576919212673426,39.0,395.0,0.0
Y,R,"[6, 10]",1.0,6.0,0.1941671371459961,1.9399991035461426,0.6361722010052682,39.0,396.0,0.0
R,U,"[5, 10]",1.0,7.0,0.21610403060913086,1.6488029956817627,0.33528158907432265,39.0,397.0,0.0
R,U,"[4, 10]",1.0,8.0,0.2366471290588379,2.0282199382781982,0.6964683362156905,39.0,398.0,0.0
B,L,"[4, 9]",1.0,9.0,0.20966792106628418,1.965555191040039,0.6455525843959911,39.0,399.0,0.0
R,U,"[3, 9]",1.0,10.0,0.1957709789276123,1.9457800388336182,0.6580665665563364,39.0,400.0,0.0
,,"(6, 6)",,,,,,,,
R,U,"[5, 6]",1.0,1.0,0.46860289573669434,3.0499660968780518,0.408283024985387,40.0,401.0,0.0
Y,R,"[5, 7]",1.0,2.0,0.22400903701782227,1.6277151107788086,0.30282470052392185,40.0,402.0,0.0
Y,R,"[5, 8]",1.0,3.0,0.2063310146331787,1.7607159614562988,0.44678890386233655,40.0,403.0,0.0
G,D,"[6, 8]",1.0,4.0,0.22435688972473145,1.893347978591919,0.5565699001798325,40.0,404.0,0.0
Y,R,"[6, 9]",1.0,5.0,0.21199893951416016,1.8997128009796143,0.5897504420622692,40.0,405.0,0.0
Y,R,"[6, 10]",1.0,6.0,0.19316411018371582,1.577692985534668,0.2842731172154683,40.0,406.0,0.0
R,U,"[5, 10]",1.0,7.0,0.26239609718322754,1.9621591567993164,0.5962152776196242,40.0,407.0,0.0
R,U,"[4, 10]",1.0,8.0,0.1969280242919922,1.8212170600891113,0.5172710131046323,40.0,408.0,0.0
B,L,"[4, 9]",1.0,9.0,0.21903419494628906,1.7206900119781494,0.404978392897718,40.0,409.0,0.0
R,U,"[3, 9]",1.0,10.0,0.23360395431518555,1.9903559684753418,0.6618272402499532,40.0,410.0,0.0
,,"(6, 6)",,,,,,,,
R,U,"[5, 6]",1.0,1.0,0.3462190628051758,2.5237700939178467,0.7354407611757814,41.0,411.0,0.0
Y,R,"[5, 7]",1.0,2.0,0.1886758804321289,1.568134069442749,0.27083131511443004,41.0,412.0,0.0
Y,R,"[5, 8]",1.0,3.0,0.23589110374450684,1.7565782070159912,0.4106130596827821,41.0,413.0,0.0
G,D,"[6, 8]",1.0,4.0,0.23876404762268066,2.0164289474487305,0.6601010610080245,41.0,414.0,0.0
Y,R,"[6, 9]",1.0,5.0,0.19041705131530762,1.74037504196167,0.4505435239257026,41.0,415.0,0.0
Y,R,"[6, 10]",1.0,6.0,0.204833984375,1.581043004989624,0.2653996049414974,41.0,416.0,0.0
R,U,"[5, 10]",1.0,7.0,0.24350905418395996,1.8648121356964111,0.5132610058956859,41.0,417.0,0.0
R,U,"[4, 10]",1.0,8.0,0.2152259349822998,1.8781800270080566,0.5580290581797276,41.0,418.0,0.0
B,L,"[4, 9]",1.0,9.0,0.21265292167663574,1.5884909629821777,0.2802356180384682,41.0,419.0,0.0
R,U,"[3, 9]",1.0,10.0,0.26265501976013184,1.729952096939087,0.3600954388295793,41.0,420.0,0.0
,,"(6, 6)",,,,,,,,
R,U,"[5, 6]",1.0,1.0,0.3571770191192627,2.2868800163269043,0.5136696027565497,42.0,421.0,0.0
Y,R,"[5, 7]",1.0,2.0,0.26641201972961426,1.6654479503631592,0.29601681709271466,42.0,422.0,0.0
Y,R,"[5, 8]",1.0,3.0,0.20920395851135254,1.9223039150238037,0.6179014801521812,42.0,423.0,0.0
G,D,"[6, 8]",1.0,4.0,0.23451018333435059,1.7673161029815674,0.4354481618983162,42.0,424.0,0.0
Y,R,"[6, 9]",1.0,5.0,0.1970348358154297,1.759868860244751,0.4619974208010974,42.0,425.0,0.0
Y,R,"[6, 10]",1.0,6.0,0.22233104705810547,1.6967008113861084,0.3754970941411911,42.0,426.0,0.0
R,U,"[5, 10]",1.0,7.0,0.2157001495361328,1.7749290466308594,0.46691327700191204,42.0,427.0,0.0
R,U,"[4, 10]",1.0,8.0,0.21087908744812012,1.6346361637115479,0.31843167111068843,42.0,428.0,0.0
B,L,"[4, 9]",1.0,9.0,0.23637104034423828,1.6117291450500488,0.28024670627569426,42.0,429.0,0.0
R,U,"[3, 9]",1.0,10.0,0.2174220085144043,1.7239658832550049,0.4040584941879443,42.0,430.0,0.0
,,"(6, 6)",,,,,,,,
R,U,"[5, 6]",1.0,1.0,0.2881019115447998,2.7982349395751953,0.6684802105123223,43.0,431.0,0.0
Y,R,"[5, 7]",1.0,2.0,0.19856810569763184,1.6909198760986328,0.39335032156221555,43.0,432.0,0.0
Y,R,"[5, 8]",1.0,3.0,0.2314610481262207,1.9184768199920654,0.5948784817965439,43.0,433.0,0.0
G,D,"[6, 8]",1.0,4.0,0.21488714218139648,1.568084955215454,0.26344727110296,43.0,434.0,0.0
Y,R,"[6, 9]",1.0,5.0,0.20777606964111328,1.8671531677246094,0.5469053965417194,43.0,435.0,0.0
Y,R,"[6, 10]",1.0,6.0,0.20836091041564941,1.7217199802398682,0.40222064842637417,43.0,436.0,0.0
R,U,"[5, 10]",-1.0,6.0,0.08527207374572754,5.49561882019043,0.26461313437436285,43.0,437.0,0.0
R,U,"[4, 10]",1.0,7.0,0.4023571014404297,2.165747880935669,0.6633409520771176,43.0,438.0,0.0
B,L,"[4, 9]",1.0,8.0,0.2551701068878174,1.973280906677246,0.6034417480323588,43.0,439.0,0.0
R,U,"[3, 9]",1.0,9.0,0.29920196533203125,1.9930288791656494,0.5965027850435649,43.0,440.0,0.0
,,"(6, 6)",,,,,,,,
R,U,"[5, 6]",1.0,1.0,0.44651103019714355,2.578979015350342,0.27576722743897225,44.0,441.0,0.0
Y,R,"[5, 7]",1.0,2.0,0.32585811614990234,2.0821800231933594,0.657593085117554,44.0,442.0,0.0
Y,R,"[5, 8]",1.0,3.0,0.4165530204772949,1.8997068405151367,0.3910515730181709,44.0,443.0,0.0
G,D,"[6, 8]",1.0,4.0,0.29062700271606445,1.6921238899230957,0.2999646882970755,44.0,444.0,0.0
Y,R,"[6, 9]",1.0,5.0,0.316011905670166,1.981997013092041,0.5649548140074653,44.0,445.0,0.0
Y,R,"[6, 10]",1.0,6.0,0.24755501747131348,1.609166145324707,0.25772382225467355,44.0,446.0,0.0
R,U,"[5, 10]",1.0,7.0,0.2907450199127197,1.8794000148773193,0.48691966604167103,44.0,447.0,0.0
R,U,"[4, 10]",1.0,8.0,0.21972107887268066,1.683664083480835,0.35419753464554127,44.0,448.0,0.0
B,L,"[4, 9]",1.0,9.0,0.43727898597717285,2.054342031478882,0.508250158453297,44.0,449.0,0.0
R,U,"[3, 9]",1.0,10.0,0.2921421527862549,1.8239109516143799,0.43233276251800096,44.0,450.0,0.0
,,"(6, 6)",,,,,,,,
R,U,"[5, 6]",1.0,1.0,0.4233119487762451,2.497588872909546,0.6130031793080373,45.0,451.0,0.0
Y,R,"[5, 7]",1.0,2.0,0.3119361400604248,1.7627549171447754,0.3428090548612692,45.0,452.0,0.0
Y,R,"[5, 8]",1.0,3.0,0.2788269519805908,1.772765874862671,0.3988716049071674,45.0,453.0,0.0
G,D,"[6, 8]",1.0,4.0,0.22426819801330566,1.9198238849639893,0.5851401710563002,45.0,454.0,0.0
Y,R,"[6, 9]",1.0,5.0,0.18733787536621094,2.047055959701538,0.748713742393235,45.0,455.0,0.0
Y,R,"[6, 10]",1.0,6.0,0.23488998413085938,1.9910509586334229,0.6569946603421981,45.0,456.0,0.0
R,U,"[5, 10]",1.0,7.0,0.2837858200073242,1.676011085510254,0.299717948545524,45.0,457.0,0.0
R,U,"[4, 10]",1.0,8.0,0.45646214485168457,1.8521299362182617,0.28517344591255495,45.0,458.0,0.0
B,L,"[4, 9]",1.0,9.0,0.23344802856445312,1.6516411304473877,0.3200984072378736,45.0,459.0,0.0
R,U,"[3, 9]",1.0,10.0,0.24365592002868652,2.0758590698242188,0.729014536044825,45.0,460.0,0.0
,,"(6, 6)",,,,,,,,
R,U,"[5, 6]",1.0,1.0,0.35075998306274414,2.040722131729126,0.2866144656748775,46.0,461.0,0.0
Y,R,"[5, 7]",1.0,2.0,0.2701759338378906,1.8989298343658447,0.5186368053690905,46.0,462.0,0.0
Y,R,"[5, 8]",1.0,3.0,0.3716428279876709,2.06917405128479,0.5877906026063255,46.0,463.0,0.0
G,D,"[6, 8]",1.0,4.0,0.46276402473449707,2.0836501121520996,0.5218155041991488,46.0,464.0,0.0
Y,R,"[6, 9]",1.0,5.0,0.35625410079956055,1.8209528923034668,0.35959181023786885,46.0,465.0,0.0
Y,R,"[6, 10]",1.0,6.0,0.2875339984893799,1.7219390869140625,0.3481555977643611,46.0,466.0,0.0
R,U,"[5, 10]",1.0,7.0,0.27730298042297363,1.6779398918151855,0.29282995756724944,46.0,467.0,0.0
R,U,"[4, 10]",1.0,8.0,0.49793410301208496,2.02384090423584,0.4332568893686354,46.0,468.0,0.0
B,L,"[4, 9]",1.0,9.0,0.20581984519958496,1.7422349452972412,0.4255281768852392,46.0,469.0,0.0
R,U,"[3, 9]",1.0,10.0,0.20423102378845215,1.8562381267547607,0.5650194889703096,46.0,470.0,0.0
,,"(6, 6)",,,,,,,,
R,U,"[5, 6]",1.0,1.0,0.3601977825164795,2.162374973297119,0.39434549033135424,47.0,471.0,0.0
Y,R,"[5, 7]",1.0,2.0,0.27190303802490234,1.788666009902954,0.4161817112436149,47.0,472.0,0.0
Y,R,"[5, 8]",1.0,3.0,0.23123502731323242,1.7082710266113281,0.3745814093522893,47.0,473.0,0.0
G,D,"[6, 8]",1.0,4.0,0.21583199501037598,1.7698171138763428,0.4608842566785057,47.0,474.0,0.0
Y,R,"[6, 9]",1.0,5.0,0.21527791023254395,1.8247501850128174,0.5190244523633604,47.0,475.0,0.0
Y,R,"[6, 10]",1.0,6.0,0.22172999382019043,1.7925739288330078,0.46161596176585695,47.0,476.0,0.0
R,U,"[5, 10]",1.0,7.0,0.22985506057739258,2.0179460048675537,0.6959883378504192,47.0,477.0,0.0
R,U,"[4, 10]",1.0,8.0,0.23766279220581055,1.6786880493164062,0.341789122461787,47.0,478.0,0.0
B,L,"[4, 9]",1.0,9.0,0.24300098419189453,1.9939510822296143,0.6520426635006001,47.0,479.0,0.0
R,U,"[3, 9]",1.0,10.0,0.2656431198120117,1.699247121810913,0.3349868691236709,47.0,480.0,0.0
,,"(6, 6)",,,,,,,,
R,U,"[5, 6]",1.0,1.0,0.37267589569091797,2.464906930923462,0.3833888270200861,48.0,481.0,0.0
Y,R,"[5, 7]",1.0,2.0,0.24086380004882812,2.092625141143799,0.7422490883543609,48.0,482.0,0.0
Y,R,"[5, 8]",1.0,3.0,0.39616918563842773,2.044970989227295,0.5541849882701253,48.0,483.0,0.0
G,D,"[6, 8]",1.0,4.0,0.21918582916259766,2.0012669563293457,0.6718693159231418,48.0,484.0,0.0
Y,R,"[6, 9]",1.0,5.0,0.2403419017791748,1.8524820804595947,0.5080290986601009,48.0,485.0,0.0
Y,R,"[6, 10]",1.0,6.0,0.3404879570007324,1.7675349712371826,0.32566067134992593,48.0,486.0,0.0
R,U,"[5, 10]",1.0,7.0,0.2867739200592041,1.8866100311279297,0.512057126920272,48.0,487.0,0.0
B,L,"[5, 9]",0.0,7.0,0.851370096206665,2.6588938236236572,0.7208886788419153,48.0,488.0,0.0
B,L,"[5, 8]",0.0,7.0,0.20360207557678223,1.9342420101165771,0.6219634428594965,48.0,489.0,0.0
R,U,"[4, 8]",0.0,7.0,0.48846912384033203,1.871157169342041,0.2767706104400497,48.0,490.0,0.0
,,"(6, 6)",,,,,,,,
R,U,"[5, 6]",1.0,1.0,0.4783658981323242,3.1424310207366943,0.3687230656435784,49.0,491.0,0.0
Y,R,"[5, 7]",1.0,2.0,0.30402398109436035,2.1029441356658936,0.6884692567605859,49.0,492.0,0.0
Y,R,"[5, 8]",1.0,3.0,0.5262618064880371,2.1580560207366943,0.5300537644462746,49.0,493.0,0.0
G,D,"[6, 8]",1.0,4.0,0.2274770736694336,1.727536916732788,0.39099088114161296,49.0,494.0,0.0
Y,R,"[6, 9]",1.0,5.0,0.23599481582641602,1.9160878658294678,0.5902472787351175,49.0,495.0,0.0
Y,R,"[6, 10]",1.0,6.0,0.24925684928894043,1.8772258758544922,0.5341340493514781,49.0,496.0,0.0
R,U,"[5, 10]",1.0,7.0,0.23956012725830078,1.76643705368042,0.41752999863642587,49.0,497.0,0.0
R,U,"[4, 10]",1.0,8.0,0.2579691410064697,1.9326069355010986,0.5665849638493381,49.0,498.0,0.0
B,L,"[4, 9]",1.0,9.0,0.22330403327941895,1.8516108989715576,0.5182392448562309,49.0,499.0,0.0
R,U,"[3, 9]",1.0,10.0,0.18975090980529785,1.709190845489502,0.41086652794877687,49.0,500.0,0.0
,,"(6, 6)",,,,,,,,
R,U,"[5, 6]",1.0,1.0,0.3651700019836426,2.2233099937438965,0.38410166640160326,50.0,501.0,0.0
Y,R,"[5, 7]",1.0,2.0,0.2784850597381592,1.8045470714569092,0.4221514744690844,50.0,502.0,0.0
Y,R,"[5, 8]",1.0,3.0,0.20996809005737305,1.7235920429229736,0.4125565329943854,50.0,503.0,0.0
G,D,"[6, 8]",1.0,4.0,0.2344369888305664,1.8791961669921875,0.5582342444641475,50.0,504.0,0.0
Y,R,"[6, 9]",1.0,5.0,0.2211458683013916,1.7832181453704834,0.4749720605669752,50.0,505.0,0.0
Y,R,"[6, 10]",1.0,6.0,0.23274612426757812,1.6801810264587402,0.3551840004260519,50.0,506.0,0.0
R,U,"[5, 10]",1.0,7.0,0.23871493339538574,1.9698801040649414,0.6247871867282713,50.0,507.0,0.0
R,U,"[4, 10]",1.0,8.0,0.21791911125183105,1.8790621757507324,0.5707477428096557,50.0,508.0,0.0
B,L,"[4, 9]",1.0,9.0,0.21490693092346191,1.8224050998687744,0.5098699806142629,50.0,509.0,0.0
R,U,"[3, 9]",1.0,10.0,0.21204304695129395,1.694270133972168,0.38747343228021114,50.0,510.0,0.0
,,"(6, 6)",,,,,,,,
R,U,"[5, 6]",1.0,1.0,0.3880631923675537,2.302852153778076,0.5067530454491127,51.0,511.0,0.0
Y,R,"[5, 7]",1.0,2.0,0.22808003425598145,1.961453914642334,0.6346035137390935,51.0,512.0,0.0
Y,R,"[5, 8]",1.0,3.0,0.20354104042053223,1.5832610130310059,0.285226214903883,51.0,513.0,0.0
G,D,"[6, 8]",1.0,4.0,0.37191200256347656,1.7535622119903564,0.2722648556176235,51.0,514.0,0.0
Y,R,"[6, 9]",1.0,5.0,0.23638701438903809,1.7566699981689453,0.42872328484721905,51.0,515.0,0.0
Y,R,"[6, 10]",-1.0,5.0,0.09673500061035156,5.749734163284302,0.5283998400843866,51.0,516.0,0.0
R,U,"[5, 10]",1.0,6.0,0.25255799293518066,1.8575091361999512,0.5193586536570592,51.0,517.0,0.0
R,U,"[4, 10]",1.0,7.0,0.23271417617797852,2.077428102493286,0.7464914187368381,51.0,518.0,0.0
B,L,"[4, 9]",1.0,8.0,0.23194313049316406,1.8806829452514648,0.5440711708737814,51.0,519.0,0.0
R,U,"[3, 9]",1.0,9.0,0.2374429702758789,1.96085786819458,0.6381794752477732,51.0,520.0,0.0
,,"(6, 6)",,,,,,,,
R,U,"[5, 6]",1.0,1.0,0.4016139507293701,2.173527956008911,0.3787218390438665,52.0,521.0,0.0
Y,R,"[5, 7]",1.0,2.0,0.3743109703063965,1.731760025024414,0.26058957265758603,52.0,522.0,0.0
Y,R,"[5, 8]",1.0,3.0,0.28374409675598145,1.7283267974853516,0.35557857947686766,52.0,523.0,0.0
G,D,"[6, 8]",1.0,4.0,0.32042980194091797,1.779757022857666,0.36864493634913914,52.0,524.0,0.0
Y,R,"[6, 9]",1.0,5.0,0.24574804306030273,2.096411943435669,0.7481050829936589,52.0,525.0,0.0
Y,R,"[6, 10]",1.0,6.0,0.25192999839782715,1.7600419521331787,0.40848892762233724,52.0,526.0,0.0
R,U,"[5, 10]",1.0,7.0,0.3023049831390381,1.796433925628662,0.404900813219786,52.0,527.0,0.0
R,U,"[4, 10]",1.0,8.0,0.4435250759124756,2.106786012649536,0.5615222510177218,52.0,528.0,0.0
B,L,"[4, 9]",1.0,9.0,0.26242899894714355,1.7929940223693848,0.4380494097260078,52.0,529.0,0.0
R,U,"[3, 9]",1.0,10.0,0.23227906227111816,1.7868108749389648,0.45819745918727195,52.0,530.0,0.0
,,"(6, 6)",,,,,,,,
R,U,"[5, 6]",1.0,1.0,0.3468611240386963,2.1786348819732666,0.4035052599094447,53.0,531.0,0.0
Y,R,"[5, 7]",1.0,2.0,0.23944997787475586,1.8697261810302734,0.5231341225962123,53.0,532.0,0.0
Y,R,"[5, 8]",1.0,3.0,0.30055904388427734,1.8555591106414795,0.46212357457325154,53.0,533.0,0.0
G,D,"[6, 8]",1.0,4.0,0.2243819236755371,1.6584670543670654,0.33740390936271925,53.0,534.0,0.0
Y,R,"[6, 9]",1.0,5.0,0.2291271686553955,1.918591022491455,0.5890034344827872,53.0,535.0,0.0
Y,R,"[6, 10]",1.0,6.0,0.2643730640411377,1.734320878982544,0.37376229516969284,53.0,536.0,0.0
R,U,"[5, 10]",1.0,7.0,0.2579030990600586,1.7043378353118896,0.34476162894544254,53.0,537.0,0.0
R,U,"[4, 10]",1.0,8.0,0.25902795791625977,1.9038119316101074,0.5484167899448984,53.0,538.0,0.0
B,L,"[4, 9]",1.0,9.0,0.23923516273498535,1.9098541736602783,0.5582804874643814,53.0,539.0,0.0
R,U,"[3, 9]",1.0,10.0,0.22260403633117676,1.66202712059021,0.33712489761091563,53.0,540.0,0.0
,,"(6, 6)",,,,,,,,
R,U,"[5, 6]",1.0,1.0,0.3923959732055664,2.5691070556640625,0.7226066147941883,54.0,541.0,0.0
Y,R,"[5, 7]",1.0,2.0,0.385235071182251,1.8610129356384277,0.38399942852926683,54.0,542.0,0.0
Y,R,"[5, 8]",1.0,3.0,0.23131990432739258,1.880690097808838,0.5478722299373613,54.0,543.0,0.0
G,D,"[6, 8]",1.0,4.0,0.20199894905090332,1.7355320453643799,0.43348131710464183,54.0,544.0,0.0
Y,R,"[6, 9]",1.0,5.0,0.22179508209228516,1.6018249988555908,0.26888501112570234,54.0,545.0,0.0
Y,R,"[6, 10]",1.0,6.0,0.2756929397583008,1.7341079711914062,0.3529089532261591,54.0,546.0,0.0
R,U,"[5, 10]",1.0,7.0,0.23455810546875,1.7196009159088135,0.3892070550653117,54.0,547.0,0.0
R,U,"[4, 10]",1.0,8.0,0.22720694541931152,1.7935328483581543,0.46595156478788996,54.0,548.0,0.0
B,L,"[4, 9]",1.0,9.0,0.24917817115783691,2.0466198921203613,0.6958277746073734,54.0,549.0,0.0
R,U,"[3, 9]",1.0,10.0,0.21730804443359375,2.0529661178588867,0.7320733328575411,54.0,550.0,0.0
,,"(6, 6)",,,,,,,,
R,U,"[5, 6]",1.0,1.0,0.30530714988708496,2.4884281158447266,0.6705933491186442,55.0,551.0,0.0
Y,R,"[5, 7]",1.0,2.0,0.2030339241027832,1.8149900436401367,0.5024074653956339,55.0,552.0,0.0
Y,R,"[5, 8]",1.0,3.0,0.228485107421875,1.60353422164917,0.27293075021261665,55.0,553.0,0.0
G,D,"[6, 8]",1.0,4.0,0.2738180160522461,2.0105130672454834,0.6327925422026741,55.0,554.0,0.0
Y,R,"[6, 9]",1.0,5.0,0.19560599327087402,1.8900890350341797,0.589893214488755,55.0,555.0,0.0
Y,R,"[6, 10]",1.0,6.0,0.20074892044067383,1.6023530960083008,0.30921609324746285,55.0,556.0,0.0
R,U,"[5, 10]",1.0,7.0,0.25400304794311523,1.6532609462738037,0.3124572340791615,55.0,557.0,0.0
R,U,"[4, 10]",1.0,8.0,0.20908284187316895,1.7841200828552246,0.47958407009850723,55.0,558.0,0.0
B,L,"[4, 9]",1.0,9.0,0.21908807754516602,1.960373878479004,0.6400137610637884,55.0,559.0,0.0
R,U,"[3, 9]",1.0,10.0,0.22318696975708008,1.7284798622131348,0.4019818230121654,55.0,560.0,0.0
,,"(6, 6)",,,,,,,,
R,U,"[5, 6]",1.0,1.0,0.35215020179748535,2.4648067951202393,0.6332544347860369,56.0,561.0,0.0
Y,R,"[5, 7]",1.0,2.0,0.22602415084838867,1.6390020847320557,0.305976636126356,56.0,562.0,0.0
Y,R,"[5, 8]",1.0,3.0,0.20785093307495117,1.5879080295562744,0.2773782913246061,56.0,563.0,0.0
G,D,"[6, 8]",1.0,4.0,0.5555400848388672,2.36456298828125,0.7081011259890961,56.0,564.0,0.0
Y,R,"[6, 9]",1.0,5.0,0.19897699356079102,1.8551480770111084,0.5634144734246904,56.0,565.0,0.0
Y,R,"[6, 10]",1.0,6.0,0.1983788013458252,2.0125019550323486,0.7092638879298075,56.0,566.0,0.0
R,U,"[5, 10]",1.0,7.0,0.19454503059387207,1.5739779472351074,0.28357564358967535,56.0,567.0,0.0
R,U,"[4, 10]",1.0,8.0,0.2914700508117676,1.7544670104980469,0.35472668553248116,56.0,568.0,0.0
B,L,"[4, 9]",1.0,9.0,0.28708910942077637,1.7951900959014893,0.3998139810406827,56.0,569.0,0.0
R,U,"[3, 9]",1.0,10.0,0.23981404304504395,1.658972978591919,0.3088938155719171,56.0,570.0,0.0
,,"(6, 6)",,,,,,,,
R,U,"[5, 6]",1.0,1.0,0.3464949131011963,2.1955480575561523,0.454368216854125,57.0,571.0,0.0
Y,R,"[5, 7]",1.0,2.0,0.23771405220031738,1.7725520133972168,0.42701055128662035,57.0,572.0,0.0
Y,R,"[5, 8]",1.0,3.0,0.22096610069274902,1.6160008907318115,0.30970239434269065,57.0,573.0,0.0
G,D,"[6, 8]",1.0,4.0,0.25028181076049805,1.7484939098358154,0.4080933028071303,57.0,574.0,0.0
Y,R,"[6, 9]",1.0,5.0,0.22133994102478027,1.8631339073181152,0.5377235641221706,57.0,575.0,0.0
Y,R,"[6, 10]",1.0,6.0,0.2105100154876709,1.6605579853057861,0.34868353897070115,57.0,576.0,0.0
R,U,"[5, 10]",1.0,7.0,0.22866392135620117,1.8410670757293701,0.5061730837106291,57.0,577.0,0.0
R,U,"[4, 10]",1.0,8.0,0.2156820297241211,1.929720163345337,0.6192172854810858,57.0,578.0,0.0
B,L,"[4, 9]",1.0,9.0,0.2162032127380371,2.0032989978790283,0.6891889292906694,57.0,579.0,0.0
R,U,"[3, 9]",1.0,10.0,0.21151208877563477,1.8261239528656006,0.5154858750153744,57.0,580.0,0.0
,,"(6, 6)",,,,,,,,
R,U,"[5, 6]",1.0,1.0,0.30045509338378906,2.0717949867248535,0.3209405360190582,58.0,581.0,0.0
Y,R,"[5, 7]",1.0,2.0,0.22096586227416992,1.8475010395050049,0.518092546950477,58.0,582.0,0.0
Y,R,"[5, 8]",1.0,3.0,0.21975493431091309,1.8022620677947998,0.4869478996180806,58.0,583.0,0.0
G,D,"[6, 8]",1.0,4.0,0.22246885299682617,1.7816669940948486,0.4521434213751986,58.0,584.0,0.0
Y,R,"[6, 9]",1.0,5.0,0.2143111228942871,1.9540278911590576,0.6393170288551624,58.0,585.0,0.0
Y,R,"[6, 10]",1.0,6.0,0.19358396530151367,1.5825908184051514,0.2889699264795598,58.0,586.0,0.0
R,U,"[5, 10]",1.0,7.0,0.21243786811828613,1.8710319995880127,0.5597773437312925,58.0,587.0,0.0
R,U,"[4, 10]",1.0,8.0,0.21565794944763184,1.6276881694793701,0.3210474398889529,58.0,588.0,0.0
B,L,"[4, 9]",1.0,9.0,0.24177289009094238,2.0582590103149414,0.7123399150108367,58.0,589.0,0.0
R,U,"[3, 9]",1.0,10.0,0.21801519393920898,1.8906269073486328,0.5696432965375937,58.0,590.0,0.0
,,"(6, 6)",,,,,,,,
R,U,"[5, 6]",1.0,1.0,0.3190779685974121,2.533677816390991,0.45369331717821315,59.0,591.0,0.0
Y,R,"[5, 7]",1.0,2.0,0.21498394012451172,1.7191929817199707,0.40612547705841257,59.0,592.0,0.0
Y,R,"[5, 8]",1.0,3.0,0.2266559600830078,1.785240888595581,0.4578274509591242,59.0,593.0,0.0
G,D,"[6, 8]",1.0,4.0,0.20439791679382324,1.9153740406036377,0.6231723525138323,59.0,594.0,0.0
Y,R,"[6, 9]",1.0,5.0,0.1977999210357666,1.8928699493408203,0.5995555530847441,59.0,595.0,0.0
Y,R,"[6, 10]",1.0,6.0,0.20234084129333496,1.8930869102478027,0.5925990537310599,59.0,596.0,0.0
R,U,"[5, 10]",1.0,7.0,0.22157502174377441,1.7343130111694336,0.4270515163171416,59.0,597.0,0.0
R,U,"[4, 10]",1.0,8.0,0.2805309295654297,2.051254987716675,0.6780567874876097,59.0,598.0,0.0
B,L,"[4, 9]",1.0,9.0,0.335399866104126,2.0908730030059814,0.6689743047231482,59.0,599.0,0.0
R,U,"[3, 9]",1.0,10.0,0.20688104629516602,1.8336570262908936,0.519481621226102,59.0,600.0,0.0
,,"(6, 6)",,,,,,,,
R,U,"[5, 6]",1.0,1.0,0.3070499897003174,2.300814151763916,0.320318001999031,60.0,601.0,0.0
Y,R,"[5, 7]",1.0,2.0,0.250324010848999,1.6083099842071533,0.2622373575903561,60.0,602.0,0.0
Y,R,"[5, 8]",1.0,3.0,0.22151517868041992,2.0365679264068604,0.7151395803161643,60.0,603.0,0.0
G,D,"[6, 8]",1.0,4.0,0.20305299758911133,1.7938368320465088,0.4924908581207849,60.0,604.0,0.0
Y,R,"[6, 9]",1.0,5.0,0.24326086044311523,1.8133080005645752,0.4725417950989215,60.0,605.0,0.0
Y,R,"[6, 10]",1.0,6.0,0.21648192405700684,1.8456411361694336,0.5348775196233974,60.0,606.0,0.0
R,U,"[5, 10]",1.0,7.0,0.24520015716552734,2.030250072479248,0.681654832703797,60.0,607.0,0.0
R,U,"[4, 10]",1.0,8.0,0.20096111297607422,1.6883330345153809,0.38693073248091925,60.0,608.0,0.0
B,L,"[4, 9]",1.0,9.0,0.22233986854553223,1.7304010391235352,0.4005677510104952,60.0,609.0,0.0
R,U,"[3, 9]",1.0,10.0,0.18557000160217285,1.9616849422454834,0.6787149342411717,60.0,610.0,0.0
,,"(6, 6)",,,,,,,,
R,U,"[5, 6]",1.0,1.0,0.31540417671203613,2.5055959224700928,0.5343516355373918,61.0,611.0,0.0
Y,R,"[5, 7]",1.0,2.0,0.2062380313873291,1.9881069660186768,0.67239007647155,61.0,612.0,0.0
Y,R,"[5, 8]",1.0,3.0,0.19690704345703125,1.7929060459136963,0.49884975374172436,61.0,613.0,0.0
G,D,"[6, 8]",1.0,4.0,0.25197505950927734,2.0993380546569824,0.748025197381929,61.0,614.0,0.0
Y,R,"[6, 9]",1.0,5.0,0.1990218162536621,1.9273381233215332,0.6255020239477622,61.0,615.0,0.0
Y,R,"[6, 10]",1.0,6.0,0.22455501556396484,1.8226780891418457,0.4983982674946723,61.0,616.0,0.0
R,U,"[5, 10]",1.0,7.0,0.24401617050170898,1.6475369930267334,0.2960929182341515,61.0,617.0,0.0
R,U,"[4, 10]",1.0,8.0,0.22041916847229004,1.6510732173919678,0.3305852181579888,61.0,618.0,0.0
B,L,"[4, 9]",1.0,9.0,0.22730588912963867,2.021113872528076,0.684680427329822,61.0,619.0,0.0
R,U,"[3, 9]",1.0,10.0,0.195220947265625,2.027229070663452,0.7282830915696994,61.0,620.0,0.0
,,"(6, 6)",,,,,,,,
R,U,"[5, 6]",1.0,1.0,0.31213808059692383,2.7177979946136475,0.6797410213305883,62.0,621.0,0.0
Y,R,"[5, 7]",1.0,2.0,0.19588494300842285,1.785628080368042,0.48232868285621444,62.0,622.0,0.0
Y,R,"[5, 8]",1.0,3.0,0.20301198959350586,1.7619709968566895,0.46088560560674663,62.0,623.0,0.0
G,D,"[6, 8]",1.0,4.0,0.2836170196533203,1.672199010848999,0.29978931546259957,62.0,624.0,0.0
Y,R,"[6, 9]",1.0,5.0,0.31093502044677734,1.8214960098266602,0.40468678128426294,62.0,625.0,0.0
Y,R,"[6, 10]",1.0,6.0,0.2045891284942627,1.8558571338653564,0.5437250355931963,62.0,626.0,0.0
R,U,"[5, 10]",1.0,7.0,0.20595407485961914,1.667428970336914,0.36147173851397824,62.0,627.0,0.0
R,U,"[4, 10]",1.0,8.0,0.21428704261779785,1.7720890045166016,0.4664977105991323,62.0,628.0,0.0
B,L,"[4, 9]",1.0,9.0,0.21829605102539062,1.8817400932312012,0.5651069750840708,62.0,629.0,0.0
R,U,"[3, 9]",1.0,10.0,0.19962787628173828,1.9987030029296875,0.6968857415358367,62.0,630.0,0.0
,,"(6, 6)",,,,,,,,
R,U,"[5, 6]",1.0,1.0,0.39698004722595215,2.3753809928894043,0.5892877760174439,63.0,631.0,0.0
Y,R,"[5, 7]",1.0,2.0,0.19541096687316895,1.5894031524658203,0.29553972512963606,63.0,632.0,0.0
Y,R,"[5, 8]",1.0,3.0,0.22371697425842285,1.6544239521026611,0.3333900582380454,63.0,633.0,0.0
G,D,"[6, 8]",1.0,4.0,0.21936893463134766,1.883598804473877,0.5666639878540005,63.0,634.0,0.0
Y,R,"[6, 9]",1.0,5.0,0.20662307739257812,1.965113878250122,0.6484694512553776,63.0,635.0,0.0
Y,R,"[6, 10]",1.0,6.0,0.21405720710754395,1.5839149951934814,0.26615364620011916,63.0,636.0,0.0
R,U,"[5, 10]",1.0,7.0,0.28395509719848633,1.637347936630249,0.25342032384863356,63.0,637.0,0.0
R,U,"[4, 10]",1.0,8.0,0.2692887783050537,1.941701889038086,0.5781429781708982,63.0,638.0,0.0
B,L,"[4, 9]",1.0,9.0,0.19572806358337402,1.649803876876831,0.3615135063397532,63.0,639.0,0.0
R,U,"[3, 9]",1.0,10.0,0.23059701919555664,1.6908819675445557,0.3691708242493641,63.0,640.0,0.0
,,"(6, 6)",,,,,,,,
R,U,"[5, 6]",1.0,1.0,0.34746479988098145,2.6717000007629395,0.34099148742755975,64.0,641.0,0.0
Y,R,"[5, 7]",1.0,2.0,0.19593119621276855,2.0089290142059326,0.7161598279554441,64.0,642.0,0.0
Y,R,"[5, 8]",1.0,3.0,0.198930025100708,1.6709721088409424,0.37068341428898216,64.0,643.0,0.0
G,D,"[6, 8]",1.0,4.0,0.20001792907714844,1.6416401863098145,0.34574902457614504,64.0,644.0,0.0
Y,R,"[6, 9]",1.0,5.0,0.19853687286376953,1.6870710849761963,0.399508126423387,64.0,645.0,0.0
Y,R,"[6, 10]",1.0,6.0,0.2033848762512207,1.7466731071472168,0.4461667364714791,64.0,646.0,0.0
R,U,"[5, 10]",1.0,7.0,0.210906982421875,1.7526540756225586,0.43217372554452127,64.0,647.0,0.0
R,U,"[4, 10]",1.0,8.0,0.21332907676696777,1.817667007446289,0.4998017456946107,64.0,648.0,0.0
B,L,"[4, 9]",1.0,9.0,0.24550700187683105,1.6290040016174316,0.2790490882243342,64.0,649.0,0.0
R,U,"[3, 9]",1.0,10.0,0.2626938819885254,1.950369119644165,0.5957819623300037,64.0,650.0,0.0
,,"(6, 6)",,,,,,,,
R,U,"[5, 6]",1.0,1.0,0.3671438694000244,2.617690086364746,0.5468446924183472,65.0,651.0,0.0
Y,R,"[5, 7]",1.0,2.0,0.21429800987243652,1.6078522205352783,0.2883124358392955,65.0,652.0,0.0
Y,R,"[5, 8]",1.0,3.0,0.23952889442443848,1.659332036972046,0.31440803999785255,65.0,653.0,0.0
G,D,"[6, 8]",1.0,4.0,0.19768404960632324,1.6660690307617188,0.3636509887165812,65.0,654.0,0.0
Y,R,"[6, 9]",1.0,5.0,0.18918299674987793,1.5553879737854004,0.2526236885459842,65.0,655.0,0.0
Y,R,"[6, 10]",1.0,6.0,0.2221369743347168,1.796525001525879,0.46555037626327084,65.0,656.0,0.0
R,U,"[5, 10]",1.0,7.0,0.19742798805236816,1.9462239742279053,0.6450576004087021,65.0,657.0,0.0
R,U,"[4, 10]",1.0,8.0,0.20597195625305176,1.831151008605957,0.5263185133560314,65.0,658.0,0.0
B,L,"[4, 9]",1.0,9.0,0.22369694709777832,1.651397943496704,0.32795473019811167,65.0,659.0,0.0
R,U,"[3, 9]",1.0,10.0,0.2357180118560791,1.9734971523284912,0.6511547014153114,65.0,660.0,0.0
,,"(6, 6)",,,,,,,,
R,U,"[5, 6]",1.0,1.0,0.40163207054138184,2.7422969341278076,0.46042221884424717,66.0,661.0,0.0
Y,R,"[5, 7]",1.0,2.0,0.1862790584564209,1.6615748405456543,0.3887723057802049,66.0,662.0,0.0
Y,R,"[5, 8]",1.0,3.0,0.20057106018066406,1.7556440830230713,0.461213743646278,66.0,663.0,0.0
G,D,"[6, 8]",1.0,4.0,0.19793391227722168,1.7747130393981934,0.4857752098341119,66.0,664.0,0.0
Y,R,"[6, 9]",1.0,5.0,0.18951201438903809,1.5785839557647705,0.28139936821871897,66.0,665.0,0.0
Y,R,"[6, 10]",1.0,6.0,0.2000868320465088,2.00656795501709,0.7043233077929627,66.0,666.0,0.0
R,U,"[5, 10]",1.0,7.0,0.20310282707214355,2.04150390625,0.7291347702641235,66.0,667.0,0.0
R,U,"[4, 10]",1.0,8.0,0.23644614219665527,1.7845778465270996,0.4474152163321481,66.0,668.0,0.0
B,L,"[4, 9]",1.0,9.0,0.22017717361450195,2.0131428241729736,0.693711491675876,66.0,669.0,0.0
R,U,"[3, 9]",1.0,10.0,0.21509504318237305,1.895401954650879,0.5892081071645989,66.0,670.0,0.0
,,"(6, 6)",,,,,,,,
R,U,"[5, 6]",1.0,1.0,0.3468320369720459,2.3944180011749268,0.5170310782568597,67.0,671.0,0.0
Y,R,"[5, 7]",1.0,2.0,0.22801780700683594,1.6949210166931152,0.36219699190450194,67.0,672.0,0.0
Y,R,"[5, 8]",1.0,3.0,0.21089792251586914,1.7133259773254395,0.4088725003823221,67.0,673.0,0.0
G,D,"[6, 8]",1.0,4.0,0.23521995544433594,1.7226171493530273,0.3978986215724379,67.0,674.0,0.0
Y,R,"[6, 9]",1.0,5.0,0.19774699211120605,1.680516004562378,0.3787844836643666,67.0,675.0,0.0
Y,R,"[6, 10]",1.0,6.0,0.21432995796203613,1.7584619522094727,0.4538638303195667,67.0,676.0,0.0
R,U,"[5, 10]",1.0,7.0,0.22383594512939453,1.8322410583496094,0.5027901720166361,67.0,677.0,0.0
R,U,"[4, 10]",1.0,8.0,0.2096719741821289,1.8104150295257568,0.4966186798564171,67.0,678.0,0.0
B,L,"[4, 9]",1.0,9.0,0.21386384963989258,1.729261875152588,0.4090407364181204,67.0,679.0,0.0
R,U,"[3, 9]",1.0,10.0,0.23551487922668457,1.670177936553955,0.3463157547475931,67.0,680.0,0.0
,,"(6, 6)",,,,,,,,
R,U,"[5, 6]",1.0,1.0,0.29501795768737793,2.028458833694458,0.2584721543243931,68.0,681.0,0.0
Y,R,"[5, 7]",1.0,2.0,0.22462892532348633,1.9362540245056152,0.6109803481281388,68.0,682.0,0.0
Y,R,"[5, 8]",1.0,3.0,0.13123488426208496,1.496541976928711,0.2743118176580306,68.0,683.0,0.0
G,D,"[6, 8]",1.0,4.0,0.4071810245513916,2.101850986480713,0.6094151171235701,68.0,684.0,0.0
Y,R,"[6, 9]",1.0,5.0,0.28154516220092773,1.7207539081573486,0.3472352807137435,68.0,685.0,0.0
Y,R,"[6, 10]",1.0,6.0,0.357086181640625,1.760098934173584,0.2907147987358842,68.0,686.0,0.0
R,U,"[5, 10]",1.0,7.0,0.29765796661376953,2.035680055618286,0.6426702962537524,68.0,687.0,0.0
R,U,"[4, 10]",1.0,8.0,0.244948148727417,1.7936561107635498,0.4533339091865863,68.0,688.0,0.0
B,L,"[4, 9]",1.0,9.0,0.25673985481262207,1.9581971168518066,0.5947200053858797,68.0,689.0,0.0
R,U,"[3, 9]",1.0,10.0,0.23199892044067383,2.007430076599121,0.6854570183272292,68.0,690.0,0.0
,,"(6, 6)",,,,,,,,
R,U,"[5, 6]",1.0,1.0,0.30473804473876953,2.3749611377716064,0.577259084878355,69.0,691.0,0.0
Y,R,"[5, 7]",1.0,2.0,0.2017209529876709,2.0331270694732666,0.7437001620013785,69.0,692.0,0.0
Y,R,"[5, 8]",1.0,3.0,0.25402402877807617,1.8620250225067139,0.522557664331243,69.0,693.0,0.0
G,D,"[6, 8]",1.0,4.0,0.23293495178222656,1.9842040538787842,0.6568005543622424,69.0,694.0,0.0
Y,R,"[6, 9]",1.0,5.0,0.22866487503051758,1.9102180004119873,0.5837014660935111,69.0,695.0,0.0
Y,R,"[6, 10]",1.0,6.0,0.21971893310546875,1.6059470176696777,0.29015869567982044,69.0,696.0,0.0
R,U,"[5, 10]",1.0,7.0,0.31107115745544434,2.1110548973083496,0.7005982849791565,69.0,697.0,0.0
R,U,"[4, 10]",1.0,8.0,0.26824307441711426,1.841284990310669,0.475642151720956,69.0,698.0,0.0
B,L,"[4, 9]",1.0,9.0,0.26120805740356445,1.626957893371582,0.2694551586624198,69.0,699.0,0.0
R,U,"[3, 9]",1.0,10.0,0.27547287940979004,1.6406140327453613,0.26011172697366963,69.0,700.0,0.0
,,"(6, 6)",,,,,,,,
R,U,"[5, 6]",1.0,1.0,0.3701150417327881,2.8460681438446045,0.4728119404490729,70.0,701.0,0.0
Y,R,"[5, 7]",1.0,2.0,0.2638709545135498,1.8988070487976074,0.5383802875466823,70.0,702.0,0.0
Y,R,"[5, 8]",1.0,3.0,0.3318469524383545,1.7880377769470215,0.359911090159638,70.0,703.0,0.0
G,D,"[6, 8]",1.0,4.0,0.2567160129547119,2.095679998397827,0.7386581978108555,70.0,704.0,0.0
Y,R,"[6, 9]",1.0,5.0,0.23364591598510742,2.054413080215454,0.72637790815746,70.0,705.0,0.0
Y,R,"[6, 10]",1.0,6.0,0.38675403594970703,1.9217698574066162,0.4484988832767895,70.0,706.0,0.0
R,U,"[5, 10]",1.0,7.0,0.27422595024108887,1.983098030090332,0.5981054373136064,70.0,707.0,0.0
R,U,"[4, 10]",1.0,8.0,0.2158191204071045,1.9817910194396973,0.6632637806772752,70.0,708.0,0.0
B,L,"[4, 9]",1.0,9.0,0.2398979663848877,2.0865771770477295,0.7332342417025599,70.0,709.0,0.0
R,U,"[3, 9]",1.0,10.0,0.2144620418548584,1.9197371006011963,0.6030140509378463,70.0,710.0,0.0
,,"(6, 6)",,,,,,,,
R,U,"[5, 6]",1.0,1.0,0.3626368045806885,2.5718960762023926,0.724910628395619,71.0,711.0,0.0
Y,R,"[5, 7]",1.0,2.0,0.24738121032714844,1.616882085800171,0.2757266376668662,71.0,712.0,0.0
Y,R,"[5, 8]",1.0,3.0,0.2751810550689697,1.633862018585205,0.25956967444327,71.0,713.0,0.0
G,D,"[6, 8]",1.0,4.0,0.24663281440734863,1.9666118621826172,0.62583349591565,71.0,714.0,0.0
Y,R,"[6, 9]",1.0,5.0,0.202894926071167,1.9161550998687744,0.6253824880723208,71.0,715.0,0.0
Y,R,"[6, 10]",1.0,6.0,0.22974705696105957,2.0028300285339355,0.678184260682142,71.0,716.0,0.0
R,U,"[5, 10]",1.0,7.0,0.20038795471191406,1.9100701808929443,0.621792193838079,71.0,717.0,0.0
R,U,"[4, 10]",1.0,8.0,0.22507882118225098,1.7981641292572021,0.47013475812442396,71.0,718.0,0.0
B,L,"[4, 9]",1.0,9.0,0.23262500762939453,2.058148145675659,0.7281113840158344,71.0,719.0,0.0
R,U,"[3, 9]",1.0,10.0,0.22887206077575684,1.9660930633544922,0.6442299914362319,71.0,720.0,0.0
,,"(6, 6)",,,,,,,,
R,U,"[5, 6]",1.0,1.0,0.27376699447631836,2.286903142929077,0.34827059967579166,72.0,721.0,0.0
Y,R,"[5, 7]",1.0,2.0,0.25606608390808105,1.7616899013519287,0.39339846493275027,72.0,722.0,0.0
Y,R,"[5, 8]",1.0,3.0,0.2924160957336426,2.0202629566192627,0.629910357089919,72.0,723.0,0.0
G,D,"[6, 8]",1.0,4.0,0.21519899368286133,1.860198974609375,0.5399491414884898,72.0,724.0,0.0
Y,R,"[6, 9]",1.0,5.0,0.2551901340484619,2.0131731033325195,0.6535336228416807,72.0,725.0,0.0
Y,R,"[6, 10]",1.0,6.0,0.23609495162963867,2.093914031982422,0.7474587046225221,72.0,726.0,0.0
R,U,"[5, 10]",1.0,7.0,0.20970797538757324,1.68967604637146,0.3708212484825441,72.0,727.0,0.0
R,U,"[4, 10]",1.0,8.0,0.49178099632263184,2.3189139366149902,0.7227446377684272,72.0,728.0,0.0
B,L,"[4, 9]",1.0,9.0,0.2568020820617676,1.8022961616516113,0.4418074225878457,72.0,729.0,0.0
R,U,"[3, 9]",1.0,10.0,0.24296903610229492,1.633833885192871,0.29275190967248027,72.0,730.0,0.0
,,"(6, 6)",,,,,,,,
R,U,"[5, 6]",1.0,1.0,0.3800508975982666,2.192948818206787,0.40231089105161955,73.0,731.0,0.0
Y,R,"[5, 7]",1.0,2.0,0.26398515701293945,1.9909899234771729,0.6264514457110555,73.0,732.0,0.0
Y,R,"[5, 8]",1.0,3.0,0.18637609481811523,2.0207619667053223,0.7469769782420663,73.0,733.0,0.0
G,D,"[6, 8]",1.0,4.0,0.2133009433746338,1.8007760047912598,0.4816542617704748,73.0,734.0,0.0
Y,R,"[6, 9]",1.0,5.0,0.25209999084472656,1.9528999328613281,0.6010652493607898,73.0,735.0,0.0
Y,R,"[6, 10]",1.0,6.0,0.26095104217529297,1.8556709289550781,0.49016491410740426,73.0,736.0,0.0
R,U,"[5, 10]",1.0,7.0,0.21328091621398926,1.756653070449829,0.4469794745693918,73.0,737.0,0.0
R,U,"[4, 10]",1.0,8.0,0.22972488403320312,1.835594892501831,0.4990799243780907,73.0,738.0,0.0
B,L,"[4, 9]",1.0,9.0,0.23439311981201172,1.684960126876831,0.3510300497980494,73.0,739.0,0.0
R,U,"[3, 9]",1.0,10.0,0.2542741298675537,2.0849850177764893,0.7357744078265036,73.0,740.0,0.0
,,"(6, 6)",,,,,,,,
R,U,"[5, 6]",1.0,1.0,0.2856771945953369,2.008957862854004,0.32859622006273376,74.0,741.0,0.0
Y,R,"[5, 7]",1.0,2.0,0.2599020004272461,1.6882898807525635,0.3334806855453885,74.0,742.0,0.0
Y,R,"[5, 8]",1.0,3.0,0.2282710075378418,1.6455919742584229,0.3125445060434619,74.0,743.0,0.0
G,D,"[6, 8]",1.0,4.0,0.2947659492492676,1.876230001449585,0.48850323572915944,74.0,744.0,0.0
Y,R,"[6, 9]",1.0,5.0,0.21651101112365723,1.60152006149292,0.2903233253605496,74.0,745.0,0.0
Y,R,"[6, 10]",1.0,6.0,0.27700209617614746,2.001210927963257,0.6246157300116455,74.0,746.0,0.0
R,U,"[5, 10]",1.0,7.0,0.2127668857574463,2.0157999992370605,0.7070354380687143,74.0,747.0,0.0
R,U,"[4, 10]",1.0,8.0,0.19496607780456543,1.91898512840271,0.6261601489286277,74.0,748.0,0.0
B,L,"[4, 9]",1.0,9.0,0.2345418930053711,1.792328119277954,0.4686866991410764,74.0,749.0,0.0
R,U,"[3, 9]",1.0,10.0,0.22615599632263184,1.9686558246612549,0.637301109125491,74.0,750.0,0.0
,,"(6, 6)",,,,,,,,
R,U,"[5, 6]",1.0,1.0,0.3374290466308594,2.0947279930114746,0.2658733239591802,75.0,751.0,0.0
Y,R,"[5, 7]",1.0,2.0,0.3207051753997803,2.0622189044952393,0.6441846543078487,75.0,752.0,0.0
Y,R,"[5, 8]",1.0,3.0,0.19413208961486816,1.911172866821289,0.6221424064718779,75.0,753.0,0.0
G,D,"[6, 8]",1.0,4.0,0.21658587455749512,1.98236083984375,0.6711708158932246,75.0,754.0,0.0
Y,R,"[6, 9]",1.0,5.0,0.20608806610107422,1.6847610473632812,0.37302907519016243,75.0,755.0,0.0
Y,R,"[6, 10]",1.0,6.0,0.25781989097595215,1.9543509483337402,0.5937836838267745,75.0,756.0,0.0
R,U,"[5, 10]",1.0,7.0,0.205888032913208,1.8399598598480225,0.5504874919108791,75.0,757.0,0.0
R,U,"[4, 10]",1.0,8.0,0.2208249568939209,1.9237349033355713,0.6075752770405232,75.0,758.0,0.0
B,L,"[4, 9]",1.0,9.0,0.23463702201843262,1.7917811870574951,0.4661860986901414,75.0,759.0,0.0
R,U,"[3, 9]",1.0,10.0,0.22688913345336914,1.8578741550445557,0.5240469110478572,75.0,760.0,0.0
,,"(6, 6)",,,,,,,,
R,U,"[5, 6]",1.0,1.0,0.34816908836364746,2.5137898921966553,0.7376659686658595,76.0,761.0,0.0
Y,R,"[5, 7]",1.0,2.0,0.19804906845092773,1.9389150142669678,0.6434544504448334,76.0,762.0,0.0
Y,R,"[5, 8]",1.0,3.0,0.28487396240234375,1.6639890670776367,0.2912151243181773,76.0,763.0,0.0
G,D,"[6, 8]",1.0,4.0,0.26590514183044434,1.6235980987548828,0.2648992996230404,76.0,764.0,0.0
Y,R,"[6, 9]",1.0,5.0,0.3174140453338623,2.0819342136383057,0.6630732927174487,76.0,765.0,0.0
Y,R,"[6, 10]",1.0,6.0,0.2518310546875,1.7198290824890137,0.36630548599332863,76.0,766.0,0.0
R,U,"[5, 10]",1.0,7.0,0.4031858444213867,1.8529040813446045,0.3363649337960221,76.0,767.0,0.0
R,U,"[4, 10]",1.0,8.0,0.24727201461791992,2.0922088623046875,0.7448281539980599,76.0,768.0,0.0
B,L,"[4, 9]",1.0,9.0,0.21264004707336426,1.6911938190460205,0.3864727811669985,76.0,769.0,0.0
R,U,"[3, 9]",1.0,10.0,0.2488861083984375,2.084852933883667,0.7376905075533995,76.0,770.0,0.0
,,"(6, 6)",,,,,,,,
R,U,"[5, 6]",1.0,1.0,0.3486440181732178,2.3575448989868164,0.6285819832070474,77.0,771.0,0.0
Y,R,"[5, 7]",1.0,2.0,0.2424910068511963,1.6755340099334717,0.3376976681096472,77.0,772.0,0.0
Y,R,"[5, 8]",1.0,3.0,0.2591860294342041,1.8967468738555908,0.5344483738604193,77.0,773.0,0.0
G,D,"[6, 8]",1.0,4.0,0.2581288814544678,1.919795036315918,0.5543148763807593,77.0,774.0,0.0
Y,R,"[6, 9]",1.0,5.0,0.19157791137695312,1.8768410682678223,0.5810664619463215,77.0,775.0,0.0
Y,R,"[6, 10]",1.0,6.0,0.24730181694030762,1.6771080493927002,0.325272183062269,77.0,776.0,0.0
R,U,"[5, 10]",1.0,7.0,0.2217872142791748,2.0670199394226074,0.7418282537928654,77.0,777.0,0.0
R,U,"[4, 10]",1.0,8.0,0.2254958152770996,1.62888503074646,0.30453303518443336,77.0,778.0,0.0
B,L,"[4, 9]",1.0,9.0,0.24987411499023438,1.7813901901245117,0.43592638633193725,77.0,779.0,0.0
R,U,"[3, 9]",1.0,10.0,0.26023197174072266,1.6451890468597412,0.28130849028976745,77.0,780.0,0.0
,,"(6, 6)",,,,,,,,
R,U,"[5, 6]",1.0,1.0,0.3816080093383789,2.8783321380615234,0.3928639994101941,78.0,781.0,0.0
Y,R,"[5, 7]",1.0,2.0,0.19414997100830078,1.9184401035308838,0.6277657745305975,78.0,782.0,0.0
Y,R,"[5, 8]",1.0,3.0,0.2146320343017578,1.790682077407837,0.4853574600557429,78.0,783.0,0.0
G,D,"[6, 8]",1.0,4.0,0.22308993339538574,1.8172760009765625,0.48599697080860854,78.0,784.0,0.0
Y,R,"[6, 9]",1.0,5.0,0.2244420051574707,2.0564379692077637,0.725594663358025,78.0,785.0,0.0
Y,R,"[6, 10]",1.0,6.0,0.22130203247070312,1.9247291088104248,0.5838976110137284,78.0,786.0,0.0
R,U,"[5, 10]",1.0,7.0,0.22449612617492676,1.784891128540039,0.4521599990000512,78.0,787.0,0.0
R,U,"[4, 10]",1.0,8.0,0.24141979217529297,1.8281528949737549,0.4803718529285138,78.0,788.0,0.0
B,L,"[4, 9]",1.0,9.0,0.21720290184020996,1.8950810432434082,0.5755213684744098,78.0,789.0,0.0
R,U,"[3, 9]",1.0,10.0,0.23599004745483398,1.6954841613769531,0.37114340924587386,78.0,790.0,0.0
,,"(6, 6)",,,,,,,,
R,U,"[5, 6]",1.0,1.0,0.30234622955322266,2.36188006401062,0.5662104956410048,79.0,791.0,0.0
Y,R,"[5, 7]",1.0,2.0,0.2067861557006836,2.049180030822754,0.731943997356246,79.0,792.0,0.0
Y,R,"[5, 8]",1.0,3.0,0.21997880935668945,2.06428599357605,0.7463316164781268,79.0,793.0,0.0
G,D,"[6, 8]",1.0,4.0,0.23293805122375488,1.7820329666137695,0.4451798907766519,79.0,794.0,0.0
Y,R,"[6, 9]",1.0,5.0,0.22022604942321777,2.0234081745147705,0.718483166540365,79.0,795.0,0.0
Y,R,"[6, 10]",1.0,6.0,0.23450684547424316,1.6483311653137207,0.3173463390491132,79.0,796.0,0.0
R,U,"[5, 10]",1.0,7.0,0.2637948989868164,1.7658028602600098,0.39967529148488573,79.0,797.0,0.0
R,U,"[4, 10]",1.0,8.0,0.2558431625366211,1.710744857788086,0.3436426710828473,79.0,798.0,0.0
B,L,"[4, 9]",1.0,9.0,0.2618880271911621,1.622426986694336,0.26632967035154115,79.0,799.0,0.0
R,U,"[3, 9]",1.0,10.0,0.23495697975158691,1.7614741325378418,0.4277581400234738,79.0,800.0,0.0
,,"(6, 6)",,,,,,,,
R,U,"[5, 6]",1.0,1.0,0.32131218910217285,1.976619005203247,0.25473343787032754,80.0,801.0,0.0
Y,R,"[5, 7]",1.0,2.0,0.24121785163879395,1.8917171955108643,0.5460381678098796,80.0,802.0,0.0
Y,R,"[5, 8]",1.0,3.0,0.21204400062561035,1.7997019290924072,0.47923272409664075,80.0,803.0,0.0
G,D,"[6, 8]",1.0,4.0,0.2263338565826416,1.5945990085601807,0.2574742656604773,80.0,804.0,0.0
Y,R,"[6, 9]",1.0,5.0,0.22104692459106445,1.6078739166259766,0.29871031228409267,80.0,805.0,0.0
Y,R,"[6, 10]",1.0,6.0,0.24816203117370605,2.0869009494781494,0.7352387206170499,80.0,806.0,0.0
R,U,"[5, 10]",1.0,7.0,0.20083904266357422,1.8184559345245361,0.5204976858732898,80.0,807.0,0.0
R,U,"[4, 10]",1.0,8.0,0.21871709823608398,1.8259751796722412,0.49661984527530045,80.0,808.0,0.0
B,L,"[4, 9]",1.0,9.0,0.5180940628051758,2.1176390647888184,0.49760108751207716,80.0,809.0,0.0
R,U,"[3, 9]",1.0,10.0,0.24239301681518555,1.9808971881866455,0.6283780781525983,80.0,810.0,0.0
,,"(6, 6)",,,,,,,,
R,U,"[5, 6]",1.0,1.0,0.36052584648132324,2.5419769287109375,0.7371123721917976,81.0,811.0,0.0
Y,R,"[5, 7]",1.0,2.0,0.21226978302001953,1.5912230014801025,0.27870777142774567,81.0,812.0,0.0
Y,R,"[5, 8]",1.0,3.0,0.32079315185546875,1.6737651824951172,0.2525398302278414,81.0,813.0,0.0
G,D,"[6, 8]",1.0,4.0,0.3082149028778076,1.9036719799041748,0.48935863197210505,81.0,814.0,0.0
Y,R,"[6, 9]",1.0,5.0,0.21678996086120605,1.8591551780700684,0.5485555756279312,81.0,815.0,0.0
Y,R,"[6, 10]",1.0,6.0,0.21260809898376465,1.6923129558563232,0.37434880094577677,81.0,816.0,0.0
R,U,"[5, 10]",1.0,7.0,0.2107868194580078,1.6144349575042725,0.30557285056262457,81.0,817.0,0.0
R,U,"[4, 10]",1.0,8.0,0.2320249080657959,1.799966812133789,0.47205359140810743,81.0,818.0,0.0
B,L,"[4, 9]",1.0,9.0,0.2240610122680664,1.6277618408203125,0.3001751710762453,81.0,819.0,0.0
R,U,"[3, 9]",1.0,10.0,0.2189490795135498,2.0332560539245605,0.7162818197527383,81.0,820.0,0.0
,,"(6, 6)",,,,,,,,
R,U,"[5, 6]",1.0,1.0,0.3801429271697998,2.5898609161376953,0.5397204070368669,82.0,821.0,0.0
Y,R,"[5, 7]",1.0,2.0,0.19324898719787598,2.036318063735962,0.7426100761445538,82.0,822.0,0.0
Y,R,"[5, 8]",1.0,3.0,0.20998501777648926,1.6529569625854492,0.3460124434444409,82.0,823.0,0.0
G,D,"[6, 8]",1.0,4.0,0.24153399467468262,1.6076419353485107,0.25380906486252247,82.0,824.0,0.0
Y,R,"[6, 9]",1.0,5.0,0.23005199432373047,1.974203109741211,0.6442448049283453,82.0,825.0,0.0
Y,R,"[6, 10]",1.0,6.0,0.20700287818908691,1.690809965133667,0.3852697247121861,82.0,826.0,0.0
R,U,"[5, 10]",1.0,7.0,0.25745606422424316,1.6595048904418945,0.2950003149078791,82.0,827.0,0.0
R,U,"[4, 10]",1.0,8.0,0.2259690761566162,1.7275168895721436,0.40582548597225326,82.0,828.0,0.0
B,L,"[4, 9]",1.0,9.0,0.22133994102478027,2.071249008178711,0.7433797906259161,82.0,829.0,0.0
R,U,"[3, 9]",1.0,10.0,0.20922017097473145,1.6908729076385498,0.38474937227429545,82.0,830.0,0.0
,,"(6, 6)",,,,,,,,
R,U,"[5, 6]",1.0,1.0,0.35198307037353516,2.40020489692688,0.5514848127748946,83.0,831.0,0.0
Y,R,"[5, 7]",1.0,2.0,0.21285581588745117,1.968508005142212,0.6531678974728834,83.0,832.0,0.0
Y,R,"[5, 8]",1.0,3.0,0.23910284042358398,2.027254104614258,0.6805513565098815,83.0,833.0,0.0
G,D,"[6, 8]",1.0,4.0,0.22330403327941895,2.064640998840332,0.7284129864814033,83.0,834.0,0.0
Y,R,"[6, 9]",1.0,5.0,0.2293858528137207,1.7345819473266602,0.4133432521831424,83.0,835.0,0.0
Y,R,"[6, 10]",1.0,6.0,0.245621919631958,2.0757689476013184,0.7222864000304035,83.0,836.0,0.0
R,U,"[5, 10]",1.0,7.0,0.2039780616760254,1.6087040901184082,0.2814518998036371,83.0,837.0,0.0
R,U,"[4, 10]",1.0,8.0,0.23399710655212402,1.9652659893035889,0.6297915460160178,83.0,838.0,0.0
B,L,"[4, 9]",1.0,9.0,0.2705998420715332,1.8254649639129639,0.4553284783806174,83.0,839.0,0.0
R,U,"[3, 9]",1.0,10.0,0.23501014709472656,1.948185920715332,0.6199885745590543,83.0,840.0,0.0
,,"(6, 6)",,,,,,,,
R,U,"[5, 6]",1.0,1.0,0.3996438980102539,2.490906000137329,0.6445125059592285,84.0,841.0,0.0
Y,R,"[5, 7]",1.0,2.0,0.2070319652557373,1.9072301387786865,0.601379035101417,84.0,842.0,0.0
Y,R,"[5, 8]",1.0,3.0,0.4188718795776367,1.9830231666564941,0.4682998747145729,84.0,843.0,0.0
G,D,"[6, 8]",1.0,4.0,0.2995729446411133,2.0033791065216064,0.6048187426310799,84.0,844.0,0.0
Y,R,"[6, 9]",1.0,5.0,0.4170711040496826,1.8353979587554932,0.3238920895381321,84.0,845.0,0.0
Y,R,"[6, 10]",1.0,6.0,0.5760440826416016,2.3366851806640625,0.6603036013426027,84.0,846.0,0.0
R,U,"[5, 10]",1.0,7.0,0.21769404411315918,1.9724490642547607,0.6661041877820589,84.0,847.0,0.0
R,U,"[4, 10]",1.0,8.0,0.2415931224822998,2.029564142227173,0.6791711942637872,84.0,848.0,0.0
B,L,"[4, 9]",1.0,9.0,0.4489121437072754,2.150470018386841,0.5964256904353765,84.0,849.0,0.0
R,U,"[3, 9]",1.0,10.0,0.2522311210632324,2.063912868499756,0.7102699450033667,84.0,850.0,0.0
,,"(6, 6)",,,,,,,,
R,U,"[5, 6]",1.0,1.0,0.35730791091918945,2.485835075378418,0.696030652302454,85.0,851.0,0.0
Y,R,"[5, 7]",1.0,2.0,0.46268391609191895,1.8740899562835693,0.3038879295334832,85.0,852.0,0.0
Y,R,"[5, 8]",1.0,3.0,0.5041720867156982,2.0524418354034424,0.4396891935677358,85.0,853.0,0.0
G,D,"[6, 8]",1.0,4.0,0.2916078567504883,1.723538875579834,0.3299427906324139,85.0,854.0,0.0
Y,R,"[6, 9]",1.0,5.0,0.24793601036071777,1.619818925857544,0.2665474685059301,85.0,855.0,0.0
Y,R,"[6, 10]",1.0,6.0,0.4273359775543213,1.9334540367126465,0.400017095699809,85.0,856.0,0.0
R,U,"[5, 10]",1.0,7.0,0.23301291465759277,1.7192089557647705,0.38583780567016723,85.0,857.0,0.0
R,U,"[4, 10]",1.0,8.0,0.2805609703063965,2.0148849487304688,0.6339280005278365,85.0,858.0,0.0
B,L,"[4, 9]",1.0,9.0,0.25301599502563477,1.9258508682250977,0.576569477277283,85.0,859.0,0.0
R,U,"[3, 9]",1.0,10.0,0.47051000595092773,1.961972951889038,0.4053456934771737,85.0,860.0,0.0
,,"(6, 6)",,,,,,,,
R,U,"[5, 6]",1.0,1.0,0.3781578540802002,2.4827518463134766,0.5713906330876009,86.0,861.0,0.0
Y,R,"[5, 7]",1.0,2.0,0.41983604431152344,2.1021199226379395,0.5902360659606553,86.0,862.0,0.0
Y,R,"[5, 8]",1.0,3.0,0.36983418464660645,2.003040075302124,0.5432840562634077,86.0,863.0,0.0
G,D,"[6, 8]",1.0,4.0,0.23782801628112793,1.742750883102417,0.41959333649648634,86.0,864.0,0.0
Y,R,"[6, 9]",1.0,5.0,0.43144702911376953,1.8507840633392334,0.32055531810380594,86.0,865.0,0.0
Y,R,"[6, 10]",1.0,6.0,0.3265221118927002,1.9552860260009766,0.5254829487431807,86.0,866.0,0.0
R,U,"[5, 10]",1.0,7.0,0.2099909782409668,1.627213954925537,0.3196859156208754,86.0,867.0,0.0
R,U,"[4, 10]",1.0,8.0,0.26886606216430664,1.8443598747253418,0.4805525424473793,86.0,868.0,0.0
B,L,"[4, 9]",1.0,9.0,0.24202990531921387,2.038360834121704,0.6853880369165315,86.0,869.0,0.0
R,U,"[3, 9]",1.0,10.0,0.2335188388824463,1.796576976776123,0.4656356971115787,86.0,870.0,0.0
,,"(6, 6)",,,,,,,,
R,U,"[5, 6]",1.0,1.0,0.28563690185546875,2.4720242023468018,0.737320972049615,87.0,871.0,0.0
Y,R,"[5, 7]",1.0,2.0,0.2460339069366455,1.8398430347442627,0.4940967172474103,87.0,872.0,0.0
Y,R,"[5, 8]",1.0,3.0,0.22683501243591309,1.78314208984375,0.46073574672796125,87.0,873.0,0.0
G,D,"[6, 8]",1.0,4.0,0.24954009056091309,1.6287081241607666,0.28944525518698144,87.0,874.0,0.0
Y,R,"[6, 9]",1.0,5.0,0.25327587127685547,1.6996591091156006,0.3558683462043501,87.0,875.0,0.0
Y,R,"[6, 10]",1.0,6.0,0.22431111335754395,1.9801809787750244,0.6526302440060504,87.0,876.0,0.0
R,U,"[5, 10]",1.0,7.0,0.2189159393310547,1.776216983795166,0.462255731927914,87.0,877.0,0.0
R,U,"[4, 10]",1.0,8.0,0.23462891578674316,1.673198938369751,0.35218854819604134,87.0,878.0,0.0
B,L,"[4, 9]",1.0,9.0,0.3530099391937256,2.11419415473938,0.6662471832992547,87.0,879.0,0.0
R,U,"[3, 9]",1.0,10.0,0.21801185607910156,1.6453630924224854,0.3286430819628788,87.0,880.0,0.0
,,"(6, 6)",,,,,,,,
R,U,"[5, 6]",1.0,1.0,0.30281805992126465,2.3948020935058594,0.6733163836519298,88.0,881.0,0.0
Y,R,"[5, 7]",1.0,2.0,0.22565507888793945,1.7130510807037354,0.3865811918276989,88.0,882.0,0.0
Y,R,"[5, 8]",1.0,3.0,0.27899789810180664,2.1112802028656006,0.7309563509976347,88.0,883.0,0.0
G,D,"[6, 8]",1.0,4.0,0.2320728302001953,1.9726910591125488,0.6371174200331291,88.0,884.0,0.0
Y,R,"[6, 9]",1.0,5.0,0.21388983726501465,1.9883999824523926,0.6752045954064845,88.0,885.0,0.0
Y,R,"[6, 10]",1.0,6.0,0.3231940269470215,1.684513807296753,0.2604370731560584,88.0,886.0,0.0
R,U,"[5, 10]",1.0,7.0,0.29590606689453125,2.0711159706115723,0.6811229572532689,88.0,887.0,0.0
R,U,"[4, 10]",1.0,8.0,0.21068978309631348,1.9937751293182373,0.6749228907455707,88.0,888.0,0.0
B,L,"[4, 9]",1.0,9.0,0.23235487937927246,1.88596510887146,0.5610659739579331,88.0,889.0,0.0
R,U,"[3, 9]",1.0,10.0,0.24412894248962402,1.897400140762329,0.5585131695470937,88.0,890.0,0.0
,,"(6, 6)",,,,,,,,
R,U,"[5, 6]",1.0,1.0,0.3414340019226074,2.5634069442749023,0.40525677765207385,89.0,891.0,0.0
Y,R,"[5, 7]",1.0,2.0,0.2317049503326416,1.7735121250152588,0.4455909467105996,89.0,892.0,0.0
Y,R,"[5, 8]",1.0,3.0,0.23728108406066895,1.6472101211547852,0.32630775414461194,89.0,893.0,0.0
G,D,"[6, 8]",1.0,4.0,0.2701377868652344,1.8755850791931152,0.5184965696004835,89.0,894.0,0.0
Y,R,"[6, 9]",1.0,5.0,0.2525768280029297,1.7444648742675781,0.39635052535629633,89.0,895.0,0.0
Y,R,"[6, 10]",1.0,6.0,0.27814292907714844,1.7061998844146729,0.3193465806726019,89.0,896.0,0.0
R,U,"[5, 10]",1.0,7.0,0.22543096542358398,1.7396268844604492,0.4089124402361889,89.0,897.0,0.0
R,U,"[4, 10]",1.0,8.0,0.23101186752319336,1.7286758422851562,0.4044063293521369,89.0,898.0,0.0
B,L,"[4, 9]",1.0,9.0,0.22648096084594727,1.9068188667297363,0.5778005610856662,89.0,899.0,0.0
R,U,"[3, 9]",1.0,10.0,0.21953797340393066,1.9252128601074219,0.6195610955473804,89.0,900.0,0.0
,,"(6, 6)",,,,,,,,
R,U,"[5, 6]",1.0,1.0,0.3661978244781494,2.154428005218506,0.40773810651939135,90.0,901.0,0.0
Y,R,"[5, 7]",1.0,2.0,0.20745205879211426,1.8065199851989746,0.4974751171891953,90.0,902.0,0.0
Y,R,"[5, 8]",1.0,3.0,0.20266413688659668,1.8841989040374756,0.5816297299952256,90.0,903.0,0.0
G,D,"[6, 8]",1.0,4.0,0.2380979061126709,1.8486318588256836,0.49696400396302753,90.0,904.0,0.0
Y,R,"[6, 9]",1.0,5.0,0.2319478988647461,1.5896708965301514,0.25359321873305785,90.0,905.0,0.0
Y,R,"[6, 10]",1.0,6.0,0.261354923248291,1.8591749668121338,0.4960242805746752,90.0,906.0,0.0
R,U,"[5, 10]",1.0,7.0,0.20170307159423828,1.7396750450134277,0.4356371125411206,90.0,907.0,0.0
R,U,"[4, 10]",1.0,8.0,0.2169780731201172,2.0100910663604736,0.6954860802024759,90.0,908.0,0.0
B,L,"[4, 9]",1.0,9.0,0.23166394233703613,1.7373030185699463,0.41657114872027173,90.0,909.0,0.0
R,U,"[3, 9]",1.0,10.0,0.2288980484008789,1.9441070556640625,0.6105194842752626,90.0,910.0,0.0
,,"(6, 6)",,,,,,,,
R,U,"[5, 6]",1.0,1.0,0.2648799419403076,2.233699083328247,0.5609379725098198,91.0,911.0,0.0
Y,R,"[5, 7]",1.0,2.0,0.21893310546875,1.9512689113616943,0.6454425785242098,91.0,912.0,0.0
Y,R,"[5, 8]",1.0,3.0,0.2510042190551758,1.6399040222167969,0.30229846138655037,91.0,913.0,0.0
G,D,"[6, 8]",1.0,4.0,0.2846488952636719,2.011016845703125,0.6298311262065276,91.0,914.0,0.0
Y,R,"[6, 9]",1.0,5.0,0.2855660915374756,1.6535649299621582,0.26719887745147264,91.0,915.0,0.0
Y,R,"[6, 10]",1.0,6.0,0.25754785537719727,1.7743158340454102,0.40790731655478246,91.0,916.0,0.0
R,U,"[5, 10]",1.0,7.0,0.23889994621276855,2.0864548683166504,0.7440980259701926,91.0,917.0,0.0
R,U,"[4, 10]",1.0,8.0,0.2175898551940918,1.9783298969268799,0.6726640617808356,91.0,918.0,0.0
B,L,"[4, 9]",1.0,9.0,0.2653508186340332,1.619020938873291,0.25868572253345046,91.0,919.0,0.0
R,U,"[3, 9]",1.0,10.0,0.30081892013549805,1.8054490089416504,0.41413476468324023,91.0,920.0,0.0
,,"(6, 6)",,,,,,,,
R,U,"[5, 6]",1.0,1.0,0.3074839115142822,2.5427680015563965,0.6729596163826994,92.0,921.0,0.0
Y,R,"[5, 7]",1.0,2.0,0.2311851978302002,1.6335620880126953,0.30732752844178174,92.0,922.0,0.0
Y,R,"[5, 8]",1.0,3.0,0.25773191452026367,1.7079601287841797,0.34845603508697226,92.0,923.0,0.0
G,D,"[6, 8]",1.0,4.0,0.23188304901123047,1.9937231540679932,0.658618611722487,92.0,924.0,0.0
Y,R,"[6, 9]",1.0,5.0,0.20885705947875977,1.5689139366149902,0.2613372841131059,92.0,925.0,0.0
Y,R,"[6, 10]",1.0,6.0,0.2671499252319336,1.8736670017242432,0.5181090588138053,92.0,926.0,0.0
R,U,"[5, 10]",1.0,7.0,0.25983715057373047,1.820249080657959,0.45509454657180903,92.0,927.0,0.0
R,U,"[4, 10]",1.0,8.0,0.25438618659973145,2.053805112838745,0.7085092625432682,92.0,928.0,0.0
B,L,"[4, 9]",1.0,9.0,0.22130608558654785,1.6859707832336426,0.37828709112119324,92.0,929.0,0.0
R,U,"[3, 9]",1.0,10.0,0.26317691802978516,1.9522731304168701,0.5971348641139966,92.0,930.0,0.0
,,"(6, 6)",,,,,,,,
R,U,"[5, 6]",1.0,1.0,0.31337594985961914,2.3899800777435303,0.6204994641686288,93.0,931.0,0.0
Y,R,"[5, 7]",1.0,2.0,0.2800447940826416,1.777519941329956,0.3982555647398287,93.0,932.0,0.0
Y,R,"[5, 8]",1.0,3.0,0.2777431011199951,1.9310119152069092,0.5458744847766094,93.0,933.0,0.0
G,D,"[6, 8]",1.0,4.0,0.23168206214904785,1.9877569675445557,0.6501955587611106,93.0,934.0,0.0
Y,R,"[6, 9]",1.0,5.0,0.3972649574279785,1.7779581546783447,0.2784496181258594,93.0,935.0,0.0
Y,R,"[6, 10]",1.0,6.0,0.38384199142456055,2.0466151237487793,0.574953817049572,93.0,936.0,0.0
R,U,"[5, 10]",1.0,7.0,0.21198010444641113,1.9730839729309082,0.6645583976324176,93.0,937.0,0.0
R,U,"[4, 10]",1.0,8.0,0.22523808479309082,1.7828178405761719,0.44763344365657975,93.0,938.0,0.0
B,L,"[4, 9]",1.0,9.0,0.25217103958129883,1.9749128818511963,0.6223382253636861,93.0,939.0,0.0
R,U,"[3, 9]",1.0,10.0,0.19266510009765625,1.8684539794921875,0.574288642727424,93.0,940.0,0.0
,,"(6, 6)",,,,,,,,
R,U,"[5, 6]",1.0,1.0,0.2943611145019531,2.303631067276001,0.56143363780476,94.0,941.0,0.0
Y,R,"[5, 7]",1.0,2.0,0.2155160903930664,1.806028127670288,0.5008921928017278,94.0,942.0,0.0
Y,R,"[5, 8]",1.0,3.0,0.23126816749572754,1.9666149616241455,0.6334601828152491,94.0,943.0,0.0
G,D,"[6, 8]",1.0,4.0,0.22575902938842773,1.9622061252593994,0.6295260847096641,94.0,944.0,0.0
Y,R,"[6, 9]",1.0,5.0,0.21435999870300293,1.6344709396362305,0.3144691601727427,94.0,945.0,0.0
Y,R,"[6, 10]",1.0,6.0,0.2532927989959717,1.9716010093688965,0.6191280088311459,94.0,946.0,0.0
R,U,"[5, 10]",1.0,7.0,0.32410097122192383,1.8423709869384766,0.41170317407601903,94.0,947.0,0.0
R,U,"[4, 10]",1.0,8.0,0.24324893951416016,1.8951938152313232,0.5566950068253016,94.0,948.0,0.0
B,L,"[4, 9]",1.0,9.0,0.2482280731201172,1.9518320560455322,0.6090197009593914,94.0,949.0,0.0
R,U,"[3, 9]",1.0,10.0,0.19630694389343262,2.0000579357147217,0.7086649132107077,94.0,950.0,0.0
,,"(6, 6)",,,,,,,,
R,U,"[5, 6]",1.0,1.0,0.2227621078491211,2.014616012573242,0.3570043706440569,95.0,951.0,0.0
Y,R,"[5, 7]",1.0,2.0,0.19228196144104004,1.577599048614502,0.2845807452426956,95.0,952.0,0.0
Y,R,"[5, 8]",1.0,3.0,0.2293100357055664,1.948594093322754,0.6161959620315972,95.0,953.0,0.0
G,D,"[6, 8]",1.0,4.0,0.2410569190979004,2.030952215194702,0.6804352475788511,95.0,954.0,0.0
Y,R,"[6, 9]",1.0,5.0,0.2503230571746826,1.6901249885559082,0.33754279146836075,95.0,955.0,0.0
Y,R,"[6, 10]",1.0,6.0,0.4441671371459961,2.183119058609009,0.6372405019187275,95.0,956.0,0.0
R,U,"[5, 10]",1.0,7.0,0.2289290428161621,1.6210739612579346,0.2918482116392195,95.0,957.0,0.0
R,U,"[4, 10]",1.0,8.0,0.2891201972961426,1.8144619464874268,0.42298255349522135,95.0,958.0,0.0
B,L,"[4, 9]",1.0,9.0,0.2615668773651123,2.0892560482025146,0.7286196358533323,95.0,959.0,0.0
R,U,"[3, 9]",1.0,10.0,0.225294828414917,1.829345941543579,0.5082198698592839,95.0,960.0,0.0
,,"(6, 6)",,,,,,,,
R,U,"[5, 6]",1.0,1.0,0.45070600509643555,2.283146858215332,0.44157158021329995,96.0,961.0,0.0
Y,R,"[5, 7]",1.0,2.0,0.30672192573547363,1.930359125137329,0.5219281232868662,96.0,962.0,0.0
Y,R,"[5, 8]",1.0,3.0,0.3184778690338135,1.818023920059204,0.4066657245041054,96.0,963.0,0.0
G,D,"[6, 8]",1.0,4.0,0.2780029773712158,1.8475468158721924,0.47085776740149554,96.0,964.0,0.0
Y,R,"[6, 9]",1.0,5.0,0.30388903617858887,1.787627935409546,0.37527030807746975,96.0,965.0,0.0
Y,R,"[6, 10]",1.0,6.0,0.4574611186981201,2.0208921432495117,0.46292832555020735,96.0,966.0,0.0
R,U,"[5, 10]",1.0,7.0,0.2452099323272705,2.0468411445617676,0.6927001719759374,96.0,967.0,0.0
R,U,"[4, 10]",1.0,8.0,0.31194210052490234,1.8243060111999512,0.41750688411831777,96.0,968.0,0.0
B,L,"[4, 9]",1.0,9.0,0.34350013732910156,2.0409059524536133,0.5915851150454299,96.0,969.0,0.0
R,U,"[3, 9]",1.0,10.0,0.32351207733154297,1.7112441062927246,0.2864146414693225,96.0,970.0,0.0
,,"(6, 6)",,,,,,,,
R,U,"[5, 6]",1.0,1.0,0.2709510326385498,2.193211078643799,0.4959526485499953,97.0,971.0,0.0
Y,R,"[5, 7]",1.0,2.0,0.2522461414337158,1.7453670501708984,0.3917102810557332,97.0,972.0,0.0
Y,R,"[5, 8]",1.0,3.0,0.31063294410705566,1.9351868629455566,0.5267144539403688,97.0,973.0,0.0
G,D,"[6, 8]",1.0,4.0,0.26534199714660645,1.984933853149414,0.6282024024913729,97.0,974.0,0.0
Y,R,"[6, 9]",1.0,5.0,0.2581808567047119,1.8400609493255615,0.48507544852093903,97.0,975.0,0.0
Y,R,"[6, 10]",1.0,6.0,0.273792028427124,1.9068889617919922,0.5253764236609947,97.0,976.0,0.0
R,U,"[5, 10]",1.0,7.0,0.23145508766174316,1.70843505859375,0.3839714657497256,97.0,977.0,0.0
R,U,"[4, 10]",1.0,8.0,0.30730605125427246,1.7643699645996094,0.34840270328188516,97.0,978.0,0.0
B,L,"[4, 9]",1.0,9.0,0.2526998519897461,1.9273769855499268,0.5755181685478321,97.0,979.0,0.0
R,U,"[3, 9]",1.0,10.0,0.23785710334777832,1.9101340770721436,0.5856794460781685,97.0,980.0,0.0
,,"(6, 6)",,,,,,,,
R,U,"[5, 6]",1.0,1.0,0.2958669662475586,2.1406099796295166,0.4099423332369058,98.0,981.0,0.0
Y,R,"[5, 7]",1.0,2.0,0.24159598350524902,2.020509958267212,0.6802962674694437,98.0,982.0,0.0
Y,R,"[5, 8]",1.0,3.0,0.25623083114624023,1.7764310836791992,0.40694343851488646,98.0,983.0,0.0
G,D,"[6, 8]",1.0,4.0,0.27091193199157715,1.7758431434631348,0.4160094860260338,98.0,984.0,0.0
Y,R,"[6, 9]",1.0,5.0,0.2325730323791504,1.7912321090698242,0.45740992599534797,98.0,985.0,0.0
Y,R,"[6, 10]",1.0,6.0,0.2401418685913086,1.8299589157104492,0.48741244215952223,98.0,986.0,0.0
R,U,"[5, 10]",1.0,7.0,0.2082078456878662,1.7605280876159668,0.4478731722738274,98.0,987.0,0.0
R,U,"[4, 10]",1.0,8.0,0.23705601692199707,1.825011968612671,0.47293408778365853,98.0,988.0,0.0
B,L,"[4, 9]",1.0,9.0,0.13368487358093262,1.7628791332244873,0.5358271451244179,98.0,989.0,0.0
R,U,"[3, 9]",1.0,10.0,0.28272008895874023,1.7151169776916504,0.3345288791900544,98.0,990.0,0.0
,,"(6, 6)",,,,,,,,
R,U,"[5, 6]",1.0,1.0,0.269881010055542,2.453078031539917,0.7367769812366991,99.0,991.0,0.0
Y,R,"[5, 7]",1.0,2.0,0.1973741054534912,1.7548398971557617,0.4590404665755795,99.0,992.0,0.0
Y,R,"[5, 8]",1.0,3.0,0.25176501274108887,1.9868860244750977,0.6457184381981163,99.0,993.0,0.0
G,D,"[6, 8]",1.0,4.0,0.2246840000152588,1.891057014465332,0.5537449923742043,99.0,994.0,0.0
Y,R,"[6, 9]",1.0,5.0,0.20394110679626465,1.9654598236083984,0.6523055351522822,99.0,995.0,0.0
Y,R,"[6, 10]",1.0,6.0,0.2590792179107666,1.9546539783477783,0.5902621700992308,99.0,996.0,0.0
R,U,"[5, 10]",1.0,7.0,0.25218892097473145,1.6201040744781494,0.27752942307432465,99.0,997.0,0.0
R,U,"[4, 10]",1.0,8.0,0.2694430351257324,1.8550729751586914,0.4992098272426583,99.0,998.0,0.0
B,L,"[4, 9]",1.0,9.0,0.3168489933013916,1.7717700004577637,0.35446901308661105,99.0,999.0,0.0
R,U,"[3, 9]",1.0,10.0,0.2508060932159424,1.6648361682891846,0.3192815899263203,99.0,1000.0,0.0
