button_choice,action_choice,coordinate_choice,reward,cumulative_reward,rt,total_trial_time,iti,block_n,trial_n,trial_type
Y,R,"[6, 7]",-2.0,0.0,1.1207518577575684,2.783133029937744,0.6837930856948793,0.0,1.0,0.0
B,L,"[6, 6]",-2.0,0.0,1.6324031352996826,3.0951199531555176,0.49595973543010874,0.0,2.0,0.0
G,D,"[7, 6]",-2.0,0.0,3.693516969680786,5.291362047195435,0.6203143766666142,0.0,3.0,0.0
R,U,"[6, 6]",-2.0,0.0,7.255068778991699,8.466783046722412,0.2529920473504819,0.0,4.0,0.0
R,U,"[5, 6]",-2.0,0.0,13.318696975708008,14.823123216629028,0.5407722890292295,0.0,5.0,0.0
Y,R,"[5, 7]",-2.0,0.0,4.79806113243103,6.067248106002808,0.30756296109895237,0.0,6.0,0.0
B,L,"[5, 6]",0.0,0.0,0.6627860069274902,2.390247106552124,0.7304365733324343,0.0,7.0,0.0
G,D,"[6, 6]",0.0,0.0,0.558927059173584,1.9998459815979004,0.4303238692362975,0.0,8.0,0.0
R,U,"[5, 6]",0.0,0.0,0.2622358798980713,1.6959519386291504,0.42614119182871657,0.0,9.0,0.0
G,D,"[6, 6]",0.0,0.0,0.43137097358703613,1.8114678859710693,0.387391769849574,0.0,10.0,0.0
,,"(6, 6)",,,,,,,,
B,L,"[6, 5]",0.0,0.0,0.828416109085083,5.864284992218018,0.40105325314421986,1.0,11.0,0.0
G,D,"[7, 5]",0.0,0.0,0.19289708137512207,1.6255769729614258,0.42644662415034723,1.0,12.0,0.0
R,U,"[6, 5]",0.0,0.0,0.15118193626403809,1.5924739837646484,0.45206029689817195,1.0,13.0,0.0
Y,R,"[6, 6]",0.0,0.0,0.16321611404418945,1.5154659748077393,0.350788830653718,1.0,14.0,0.0
B,L,"[6, 5]",0.0,0.0,0.2071058750152588,1.5174438953399658,0.30141284496261994,1.0,15.0,0.0
G,D,"[7, 5]",-1.0,0.0,0.06328320503234863,5.4224841594696045,0.2900387960905619,1.0,16.0,0.0
G,D,"[8, 5]",0.0,0.0,0.3344759941101074,1.9529850482940674,0.6258940936223767,1.0,17.0,0.0
R,U,"[7, 5]",0.0,0.0,0.403148889541626,2.0881459712982178,0.6969879871708171,1.0,18.0,0.0
R,U,"[6, 5]",0.0,0.0,0.38421177864074707,2.061516046524048,0.6754635198267027,1.0,19.0,0.0
Y,R,"[6, 6]",0.0,0.0,0.25022101402282715,1.6600699424743652,0.41842830737697584,1.0,20.0,0.0
,,"(6, 6)",,,,,,,,
G,D,"[7, 6]",-2.0,0.0,1.1126289367675781,10.985785961151123,0.2700099298675348,2.0,21.0,0.0
G,D,"[8, 6]",0.0,0.0,0.4950370788574219,1.8589081764221191,0.36200726776109415,2.0,22.0,0.0
G,D,"[9, 6]",0.0,0.0,0.26319313049316406,1.8604910373687744,0.6054512191335129,2.0,23.0,0.0
G,D,"[10, 6]",0.0,0.0,0.141920804977417,1.8128490447998047,0.6680651255365179,2.0,24.0,0.0
B,L,"[10, 5]",0.0,0.0,0.16170692443847656,1.487746000289917,0.32266311690728405,2.0,25.0,0.0
R,U,"[9, 5]",0.0,0.0,0.30237603187561035,1.96366286277771,0.6691547642996705,2.0,26.0,0.0
Y,R,"[9, 6]",0.0,0.0,0.16261696815490723,1.4429519176483154,0.27898215053884096,2.0,27.0,0.0
B,L,"[9, 5]",0.0,0.0,0.2256770133972168,1.9596128463745117,0.7212655874875966,2.0,28.0,0.0
G,D,"[10, 5]",0.0,0.0,0.1341838836669922,1.6703829765319824,0.5417726105133264,2.0,29.0,0.0
R,U,"[9, 5]",-1.0,0.0,0.0022199153900146484,5.767462968826294,0.7084735964777109,2.0,30.0,0.0
,,"(6, 6)",,,,,,,,
R,U,"[5, 6]",-2.0,0.0,1.029109001159668,4.59824800491333,0.356639245830956,3.0,31.0,0.0
G,D,"[6, 6]",0.0,0.0,0.20419812202453613,1.511795997619629,0.318452813509546,3.0,32.0,0.0
B,L,"[6, 5]",0.0,0.0,0.13347482681274414,1.7208130359649658,0.5887444801204015,3.0,33.0,0.0
Y,R,"[6, 6]",0.0,0.0,0.145859956741333,1.801367998123169,0.6566405143255991,3.0,34.0,0.0
Y,R,"[6, 7]",0.0,0.0,0.41539812088012695,1.9566800594329834,0.5466552251323058,3.0,35.0,0.0
Y,R,"[6, 8]",1.0,1.0,0.179426908493042,1.8778479099273682,0.6908334798701125,3.0,36.0,0.0
B,L,"[6, 7]",0.0,1.0,0.1974778175354004,1.5303568840026855,0.3380546325799386,3.0,37.0,0.0
Y,R,"[6, 8]",0.0,1.0,0.3181600570678711,1.5713779926300049,0.2593645221856435,3.0,38.0,0.0
G,D,"[7, 8]",0.0,1.0,0.3334941864013672,1.6274240016937256,0.30327306257435976,3.0,39.0,0.0
R,U,"[6, 8]",0.0,1.0,0.256134033203125,1.6280460357666016,0.36444447458211887,3.0,40.0,0.0
,,"(6, 6)",,,,,,,,
R,U,"[5, 6]",-2.0,0.0,1.5139060020446777,5.166455030441284,0.5136619023967423,4.0,41.0,0.0
G,D,"[6, 6]",0.0,0.0,0.2590758800506592,1.9499359130859375,0.6799765455818506,4.0,42.0,0.0
B,L,"[6, 5]",0.0,0.0,0.18701601028442383,1.8112609386444092,0.6245207669824735,4.0,43.0,0.0
G,D,"[7, 5]",0.0,0.0,0.1799910068511963,1.8898768424987793,0.7141387717403775,4.0,44.0,0.0
R,U,"[6, 5]",0.0,0.0,0.16599583625793457,1.846235990524292,0.6769297714619497,4.0,45.0,0.0
Y,R,"[6, 6]",-1.0,0.0,0.061309099197387695,5.79113507270813,0.6675842107570583,4.0,46.0,0.0
Y,R,"[6, 7]",0.0,0.0,0.2805979251861572,1.8755061626434326,0.5930396914156657,4.0,47.0,0.0
B,L,"[6, 6]",0.0,0.0,0.255979061126709,1.848741054534912,0.5920655374976486,4.0,48.0,0.0
G,D,"[7, 6]",0.0,0.0,0.1401500701904297,1.8495469093322754,0.7077077115730935,4.0,49.0,0.0
R,U,"[6, 6]",0.0,0.0,0.17993998527526855,1.4494988918304443,0.27402831726333315,4.0,50.0,0.0
,,"(6, 6)",,,,,,,,
G,D,"[7, 6]",0.0,0.0,0.5335359573364258,3.9420359134674072,0.4656442397344015,5.0,51.0,0.0
R,U,"[6, 6]",0.0,0.0,0.30251193046569824,1.7221829891204834,0.42106824675937743,5.0,52.0,0.0
B,L,"[6, 5]",0.0,0.0,0.3752439022064209,1.9554569721221924,0.5761422518141628,5.0,53.0,0.0
Y,R,"[6, 6]",0.0,0.0,0.23024487495422363,1.8537960052490234,0.6302365804271901,5.0,54.0,0.0
G,D,"[7, 6]",0.0,0.0,0.22148489952087402,1.7015340328216553,0.481412510003367,5.0,55.0,0.0
R,U,"[6, 6]",0.0,0.0,0.23749709129333496,1.9942359924316406,0.741923822607651,5.0,56.0,0.0
R,U,"[5, 6]",1.0,1.0,0.13713598251342773,1.8232719898223877,0.6984418993142613,5.0,57.0,0.0
G,D,"[6, 6]",0.0,1.0,0.1528301239013672,1.5523040294647217,0.4009202922044769,5.0,58.0,0.0
R,U,"[5, 6]",0.0,1.0,0.2407848834991455,1.5018150806427002,0.2527842692096511,5.0,59.0,0.0
B,L,"[5, 5]",0.0,1.0,0.33780908584594727,1.939605951309204,0.6085816310843877,5.0,60.0,0.0
,,"(6, 6)",,,,,,,,
G,D,"[7, 6]",0.0,0.0,0.7850000858306885,3.2939698696136475,0.5356866579859179,6.0,61.0,0.0
B,L,"[7, 5]",0.0,0.0,0.36650896072387695,2.0766868591308594,0.712086330755817,6.0,62.0,0.0
Y,R,"[7, 6]",0.0,0.0,0.19412612915039062,1.5029399394989014,0.2985687020386565,6.0,63.0,0.0
Y,R,"[7, 7]",0.0,0.0,0.24429607391357422,1.9030849933624268,0.6513136109792177,6.0,64.0,0.0
Y,R,"[7, 8]",0.0,0.0,0.14308500289916992,1.682007074356079,0.5336662293742576,6.0,65.0,0.0
B,L,"[7, 7]",0.0,0.0,0.23474907875061035,1.7263820171356201,0.4928322435793886,6.0,66.0,0.0
B,L,"[7, 6]",0.0,0.0,0.17402100563049316,1.6750619411468506,0.5012416111646205,6.0,67.0,0.0
B,L,"[7, 5]",0.0,0.0,0.21585988998413086,1.9490277767181396,0.7332373041693039,6.0,68.0,0.0
G,D,"[8, 5]",0.0,0.0,0.14266705513000488,1.8374099731445312,0.6871981563794489,6.0,69.0,0.0
G,D,"[9, 5]",0.0,0.0,0.17785286903381348,1.5144929885864258,0.33532863720498185,6.0,70.0,0.0
,,"(6, 6)",,,,,,,,
R,U,"[5, 6]",1.0,1.0,0.9768450260162354,4.366424083709717,0.7176963562108474,7.0,71.0,0.0
G,D,"[6, 6]",0.0,1.0,0.19899320602416992,1.895496129989624,0.6964704894738774,7.0,72.0,0.0
B,L,"[6, 5]",0.0,1.0,0.20496487617492676,1.8848130702972412,0.6645374873773902,7.0,73.0,0.0
Y,R,"[6, 6]",0.0,1.0,0.1616220474243164,1.4268980026245117,0.2582447679736862,7.0,74.0,0.0
R,U,"[5, 6]",0.0,1.0,0.34892702102661133,1.9605400562286377,0.6184177790808376,7.0,75.0,0.0
G,D,"[6, 6]",0.0,1.0,0.2248368263244629,1.7371761798858643,0.5057120214783328,7.0,76.0,0.0
B,L,"[6, 5]",-1.0,1.0,0.047456979751586914,5.703953981399536,0.5925349031350098,7.0,77.0,0.0
B,L,"[6, 4]",0.0,1.0,0.41089797019958496,1.8267030715942383,0.41924551673826754,7.0,78.0,0.0
Y,R,"[6, 5]",0.0,1.0,0.3958418369293213,1.9336049556732178,0.5359682063524098,7.0,79.0,0.0
B,L,"[6, 4]",0.0,1.0,0.4022250175476074,2.0370421409606934,0.6393851821325013,7.0,80.0,0.0
,,"(6, 6)",,,,,,,,
G,D,"[7, 6]",0.0,0.0,0.7012979984283447,3.7401580810546875,0.34635799660507055,8.0,81.0,0.0
R,U,"[6, 6]",0.0,0.0,0.3619880676269531,1.771500825881958,0.4010451527714337,8.0,82.0,0.0
R,U,"[5, 6]",1.0,1.0,0.28511500358581543,1.8356990814208984,0.553053831150766,8.0,83.0,0.0
R,U,"[4, 6]",0.0,1.0,0.22081398963928223,1.956482172012329,0.7429935900062024,8.0,84.0,0.0
G,D,"[5, 6]",0.0,1.0,0.2244570255279541,1.6081159114837646,0.3842933569655355,8.0,85.0,0.0
B,L,"[5, 5]",0.0,1.0,0.3135559558868408,2.031013011932373,0.7149788227983696,8.0,86.0,0.0
G,D,"[6, 5]",0.0,1.0,0.201768159866333,1.6479859352111816,0.4464668098581028,8.0,87.0,0.0
R,U,"[5, 5]",0.0,1.0,0.9137120246887207,2.2006759643554688,0.2805135811963878,8.0,88.0,0.0
Y,R,"[5, 6]",0.0,1.0,0.7177519798278809,2.049875020980835,0.33020230902815084,8.0,89.0,0.0
G,D,"[6, 6]",0.0,1.0,0.3780632019042969,1.9092600345611572,0.5225390933967484,8.0,90.0,0.0
,,"(6, 6)",,,,,,,,
G,D,"[7, 6]",0.0,0.0,0.9012231826782227,4.686073064804077,0.34185131333911506,9.0,91.0,0.0
B,L,"[7, 5]",0.0,0.0,0.36737513542175293,1.6207480430603027,0.2626023655914754,9.0,92.0,0.0
R,U,"[6, 5]",0.0,0.0,0.3879868984222412,2.0192909240722656,0.6315610520180118,9.0,93.0,0.0
Y,R,"[6, 6]",-1.0,0.0,0.05524897575378418,5.692590951919556,0.5737706573401395,9.0,94.0,0.0
Y,R,"[6, 7]",0.0,0.0,0.25540804862976074,1.9110820293426514,0.6512869890213899,9.0,95.0,0.0
B,L,"[6, 6]",0.0,0.0,0.2652411460876465,1.572448968887329,0.307409900483525,9.0,96.0,0.0
G,D,"[7, 6]",0.0,0.0,0.36058807373046875,1.6733050346374512,0.31381499750722,9.0,97.0,0.0
B,L,"[7, 5]",0.0,0.0,0.3436470031738281,1.6770918369293213,0.32427233499993907,9.0,98.0,0.0
R,U,"[6, 5]",0.0,0.0,0.3124709129333496,1.7453629970550537,0.43608031899998595,9.0,99.0,0.0
Y,R,"[6, 6]",0.0,0.0,0.23355817794799805,1.536194086074829,0.30566708631791495,9.0,100.0,0.0
,,"(6, 6)",,,,,,,,
B,L,"[6, 5]",0.0,0.0,0.6137650012969971,3.1390950679779053,0.27799658908000136,10.0,101.0,0.0
G,D,"[7, 5]",0.0,0.0,0.28688597679138184,1.6738929748535156,0.40165940654624327,10.0,102.0,0.0
R,U,"[6, 5]",0.0,0.0,0.2525780200958252,1.8639590740203857,0.615281281191561,10.0,103.0,0.0
Y,R,"[6, 6]",-1.0,0.0,0.08382511138916016,5.637501001358032,0.4859272435767165,10.0,104.0,0.0
Y,R,"[6, 7]",0.0,0.0,0.49744701385498047,2.0324838161468506,0.5349314395281031,10.0,105.0,0.0
G,D,"[7, 7]",0.0,0.0,0.3231630325317383,2.080328941345215,0.7483959377359779,10.0,106.0,0.0
R,U,"[6, 7]",0.0,0.0,0.22279000282287598,1.8031811714172363,0.5849917320153067,10.0,107.0,0.0
R,U,"[5, 7]",1.0,1.0,0.20675015449523926,1.7294399738311768,0.5144091148416994,10.0,108.0,0.0
B,L,"[5, 6]",1.0,2.0,0.2764129638671875,1.791123867034912,0.5053440731889842,10.0,109.0,0.0
Y,R,"[5, 7]",0.0,2.0,0.24939298629760742,1.6392889022827148,0.39485480992018746,10.0,110.0,0.0
,,"(6, 6)",,,,,,,,
G,D,"[7, 6]",0.0,0.0,0.7090737819671631,3.709697961807251,0.6874667717207266,11.0,111.0,0.0
R,U,"[6, 6]",0.0,0.0,0.17096495628356934,1.7145068645477295,0.5352084549723286,11.0,112.0,0.0
R,U,"[5, 6]",1.0,1.0,0.16338801383972168,1.877708911895752,0.7131309971688897,11.0,113.0,0.0
R,U,"[4, 6]",0.0,1.0,0.1825120449066162,1.5255348682403564,0.33860721884527006,11.0,114.0,0.0
R,U,"[3, 6]",0.0,1.0,0.16234707832336426,1.9098930358886719,0.7479955447370684,11.0,115.0,0.0
R,U,"[2, 6]",0.0,1.0,0.21314501762390137,1.5653049945831299,0.3469316767400184,11.0,116.0,0.0
R,U,"[1, 6]",-1.0,1.0,0.05986595153808594,5.544738054275513,0.40807450017810326,11.0,117.0,0.0
R,U,"[2, 6]",-3.0,1.0,0.32872605323791504,1.8232741355895996,0.49783519217437566,11.0,118.0,0.0
R,U,"[1, 6]",-2.0,1.0,1.1133239269256592,2.371000051498413,0.28565334939970044,11.0,119.0,0.0
R,U,"[2, 6]",-3.0,1.0,0.3646278381347656,1.7369389533996582,0.37241575686970657,11.0,120.0,0.0
,,"(6, 6)",,,,,,,,
R,U,"[5, 6]",-2.0,0.0,1.5032670497894287,4.330956935882568,0.403150836000915,12.0,121.0,0.0
R,U,"[4, 6]",0.0,0.0,0.2768731117248535,1.8391098976135254,0.558721935627776,12.0,122.0,0.0
Y,R,"[4, 7]",0.0,0.0,0.2904629707336426,1.9314649105072021,0.6399335635489712,12.0,123.0,0.0
B,L,"[4, 6]",0.0,0.0,0.2371361255645752,1.9188950061798096,0.692070474072944,12.0,124.0,0.0
G,D,"[5, 6]",0.0,0.0,0.21846485137939453,1.9302761554718018,0.7222581109243227,12.0,125.0,0.0
R,U,"[4, 6]",0.0,0.0,0.18106913566589355,1.6986620426177979,0.5209861863683589,12.0,126.0,0.0
G,D,"[5, 6]",0.0,0.0,0.21399497985839844,1.520878791809082,0.308736014349381,12.0,127.0,0.0
B,L,"[5, 5]",0.0,0.0,0.3134491443634033,1.7325029373168945,0.42442959057100726,12.0,128.0,0.0
B,L,"[5, 4]",0.0,0.0,0.2820770740509033,1.8922009468078613,0.6165324417169342,12.0,129.0,0.0
G,D,"[6, 4]",0.0,0.0,0.17638087272644043,1.8671588897705078,0.6834115914214798,12.0,130.0,0.0
,,"(6, 6)",,,,,,,,
Y,R,"[6, 7]",0.0,0.0,0.4466969966888428,3.0601820945739746,0.44365859574956584,13.0,131.0,0.0
Y,R,"[6, 8]",1.0,1.0,0.26430797576904297,1.730539083480835,0.47411400775269646,13.0,132.0,0.0
G,D,"[7, 8]",0.0,1.0,0.21625518798828125,1.5809440612792969,0.3716629151558173,13.0,133.0,0.0
R,U,"[6, 8]",0.0,1.0,0.2326810359954834,1.5851449966430664,0.35706689164170724,13.0,134.0,0.0
G,D,"[7, 8]",0.0,1.0,0.25327086448669434,1.870603084564209,0.6271685772697162,13.0,135.0,0.0
B,L,"[7, 7]",-1.0,1.0,0.021272897720336914,5.323318004608154,0.25050340780063973,13.0,136.0,0.0
G,D,"[8, 7]",0.0,1.0,0.3903958797454834,1.9536240100860596,0.5537944904395712,13.0,137.0,0.0
B,L,"[8, 6]",0.0,1.0,0.2453608512878418,1.6602370738983154,0.4142473295611133,13.0,138.0,0.0
R,U,"[7, 6]",0.0,1.0,0.2396688461303711,1.6230828762054443,0.3704929675916835,13.0,139.0,0.0
Y,R,"[7, 7]",0.0,1.0,0.3129448890686035,1.6638000011444092,0.3509714810463281,13.0,140.0,0.0
,,"(6, 6)",,,,,,,,
B,L,"[6, 5]",0.0,0.0,0.639794111251831,4.428589105606079,0.4460660969158594,14.0,141.0,0.0
G,D,"[7, 5]",0.0,0.0,0.18689703941345215,1.6441380977630615,0.4567784230111154,14.0,142.0,0.0
R,U,"[6, 5]",0.0,0.0,0.2765638828277588,1.7744810581207275,0.49779065548648066,14.0,143.0,0.0
Y,R,"[6, 6]",0.0,0.0,0.2561800479888916,1.8330719470977783,0.5639994163752664,14.0,144.0,0.0
B,L,"[6, 5]",0.0,0.0,0.2858710289001465,1.7530038356781006,0.4626668207564908,14.0,145.0,0.0
R,U,"[5, 5]",0.0,0.0,0.34985995292663574,1.7105069160461426,0.3609548699938709,14.0,146.0,0.0
Y,R,"[5, 6]",1.0,1.0,0.35254478454589844,1.8980138301849365,0.5587802197123279,14.0,147.0,0.0
G,D,"[6, 6]",0.0,1.0,0.2998838424682617,1.6655080318450928,0.3745178576410054,14.0,148.0,0.0
R,U,"[5, 6]",0.0,1.0,0.38420915603637695,1.907508134841919,0.531731855351238,14.0,149.0,0.0
R,U,"[4, 6]",0.0,1.0,0.16081881523132324,1.9083020687103271,0.7398949199540138,14.0,150.0,0.0
,,"(6, 6)",,,,,,,,
Y,R,"[6, 7]",0.0,0.0,0.4780609607696533,3.256880044937134,0.5133958976803079,15.0,151.0,0.0
B,L,"[6, 6]",0.0,0.0,0.20276188850402832,1.4580268859863281,0.2549185701516617,15.0,152.0,0.0
G,D,"[7, 6]",0.0,0.0,0.366851806640625,1.7705929279327393,0.4086984352590929,15.0,153.0,0.0
R,U,"[6, 6]",0.0,0.0,0.27209997177124023,1.9558050632476807,0.6808525899229527,15.0,154.0,0.0
R,U,"[5, 6]",1.0,1.0,0.1858980655670166,1.714536190032959,0.5286923000726994,15.0,155.0,0.0
Y,R,"[5, 7]",-1.0,1.0,0.06381011009216309,5.845731019973755,0.7074295220988117,15.0,156.0,0.0
Y,R,"[5, 8]",1.0,2.0,0.28137803077697754,1.7629601955413818,0.4872865593862936,15.0,157.0,0.0
G,D,"[6, 8]",1.0,3.0,0.26669788360595703,1.9831910133361816,0.720214427315227,15.0,158.0,0.0
B,L,"[6, 7]",0.0,3.0,0.39232492446899414,2.145359992980957,0.7486878829443355,15.0,159.0,0.0
R,U,"[5, 7]",-1.0,3.0,0.06843900680541992,5.634112119674683,0.4996364477422051,15.0,160.0,0.0
,,"(6, 6)",,,,,,,,
R,U,"[5, 6]",1.0,1.0,0.5796310901641846,4.364541053771973,0.4474525546467253,16.0,161.0,0.0
B,L,"[5, 5]",0.0,1.0,0.2573661804199219,1.8069171905517578,0.5375535958832784,16.0,162.0,0.0
Y,R,"[5, 6]",0.0,1.0,0.28336215019226074,1.8455970287322998,0.5663292884399929,16.0,163.0,0.0
G,D,"[6, 6]",0.0,1.0,0.21721291542053223,1.612224817276001,0.3953953207582174,16.0,164.0,0.0
R,U,"[5, 6]",0.0,1.0,0.30371809005737305,1.8941080570220947,0.605948829327305,16.0,165.0,0.0
Y,R,"[5, 7]",1.0,2.0,0.1596829891204834,1.5854759216308594,0.42487714081257016,16.0,166.0,0.0
B,L,"[5, 6]",0.0,2.0,0.22643113136291504,1.920677900314331,0.695160130538347,16.0,167.0,0.0
G,D,"[6, 6]",0.0,2.0,0.20855021476745605,1.8923008441925049,0.6708452545699977,16.0,168.0,0.0
R,U,"[5, 6]",0.0,2.0,0.3643620014190674,1.6351850032806396,0.2730008564909887,16.0,169.0,0.0
B,L,"[5, 5]",0.0,2.0,0.4598579406738281,1.9763550758361816,0.515695790457283,16.0,170.0,0.0
,,"(6, 6)",,,,,,,,
R,U,"[5, 6]",1.0,1.0,0.9204549789428711,5.449120998382568,0.6146521640235338,17.0,171.0,0.0
G,D,"[6, 6]",0.0,1.0,0.18442797660827637,1.5782039165496826,0.3930895885860743,17.0,172.0,0.0
B,L,"[6, 5]",0.0,1.0,0.32878708839416504,2.007767915725708,0.6838377504183387,17.0,173.0,0.0
Y,R,"[6, 6]",0.0,1.0,0.21304798126220703,1.9341249465942383,0.7178798085474507,17.0,174.0,0.0
G,D,"[7, 6]",0.0,1.0,0.2216629981994629,1.951368808746338,0.7356976474989549,17.0,175.0,0.0
R,U,"[6, 6]",0.0,1.0,0.14667606353759766,1.4859979152679443,0.33885089858702466,17.0,176.0,0.0
Y,R,"[6, 7]",0.0,1.0,0.29740309715270996,1.6525709629058838,0.35794808409021833,17.0,177.0,0.0
B,L,"[6, 6]",0.0,1.0,0.32356691360473633,1.7608931064605713,0.4354252323319652,17.0,178.0,0.0
B,L,"[6, 5]",0.0,1.0,0.1336519718170166,1.6714789867401123,0.5401139599274367,17.0,179.0,0.0
B,L,"[6, 4]",0.0,1.0,0.2299060821533203,1.7166540622711182,0.49000193346073206,17.0,180.0,0.0
,,"(6, 6)",,,,,,,,
B,L,"[6, 5]",0.0,0.0,0.41439294815063477,3.078968048095703,0.3523387324865738,18.0,181.0,0.0
B,L,"[6, 4]",0.0,0.0,0.27793407440185547,2.004503011703491,0.7232495708749305,18.0,182.0,0.0
B,L,"[6, 3]",0.0,0.0,0.22345805168151855,1.8063039779663086,0.5796281564904284,18.0,183.0,0.0
B,L,"[6, 2]",0.0,0.0,0.16524100303649902,1.6466560363769531,0.47628085688516136,18.0,184.0,0.0
B,L,"[6, 1]",0.0,0.0,0.2288970947265625,1.5123529434204102,0.2888311055841511,18.0,185.0,0.0
B,L,"[6, 2]",-3.0,0.0,0.2131960391998291,1.5497539043426514,0.3385015100340541,18.0,186.0,0.0
B,L,"[6, 1]",0.0,0.0,0.2874481678009033,1.5444910526275635,0.2662339838465754,18.0,187.0,0.0
B,L,"[6, 2]",-3.0,0.0,0.3084251880645752,1.8570199012756348,0.5396321201672668,18.0,188.0,0.0
G,D,"[7, 2]",0.0,0.0,0.1567080020904541,1.7400219440460205,0.579676769070959,18.0,189.0,0.0
R,U,"[6, 2]",0.0,0.0,0.21442484855651855,1.9168939590454102,0.6963878091920166,18.0,190.0,0.0
,,"(6, 6)",,,,,,,,
Y,R,"[6, 7]",0.0,0.0,0.3715550899505615,3.320216178894043,0.3502550474912307,19.0,191.0,0.0
Y,R,"[6, 8]",1.0,1.0,0.3768470287322998,1.7679519653320312,0.3847992216915476,19.0,192.0,0.0
Y,R,"[6, 9]",1.0,2.0,0.24656391143798828,1.7620248794555664,0.5133069725466761,19.0,193.0,0.0
Y,R,"[6, 10]",1.0,3.0,0.20563101768493652,1.5754330158233643,0.3555268636892693,19.0,194.0,0.0
Y,R,"[6, 11]",0.0,3.0,0.2918241024017334,1.7044689655303955,0.4099462576684215,19.0,195.0,0.0
R,U,"[5, 11]",0.0,3.0,0.22113513946533203,1.8204319477081299,0.6133233917893774,19.0,196.0,0.0
R,U,"[4, 11]",0.0,3.0,0.21305394172668457,1.538330078125,0.31868138165268267,19.0,197.0,0.0
B,L,"[4, 10]",1.0,4.0,0.1100921630859375,1.7860610485076904,0.6710253133624905,19.0,198.0,0.0
B,L,"[4, 9]",-1.0,4.0,0.06302213668823242,5.732235908508301,0.6031466545748956,19.0,199.0,0.0
B,L,"[4, 8]",0.0,4.0,0.3413867950439453,2.023669958114624,0.6766880570142171,19.0,200.0,0.0
,,"(6, 6)",,,,,,,,
G,D,"[7, 6]",0.0,0.0,0.5526919364929199,3.3369600772857666,0.5471180582064047,20.0,201.0,0.0
G,D,"[8, 6]",0.0,0.0,0.30069494247436523,1.7183351516723633,0.41549367322373565,20.0,202.0,0.0
Y,R,"[8, 7]",0.0,0.0,0.24700498580932617,1.8438711166381836,0.5925572746068068,20.0,203.0,0.0
B,L,"[8, 6]",0.0,0.0,0.20464301109313965,1.7011489868164062,0.5103833984745549,20.0,204.0,0.0
R,U,"[7, 6]",0.0,0.0,0.2696518898010254,1.8011438846588135,0.5447695326820183,20.0,205.0,0.0
Y,R,"[7, 7]",0.0,0.0,0.1695849895477295,1.8373408317565918,0.6818728699525546,20.0,206.0,0.0
G,D,"[8, 7]",-1.0,0.0,0.08753299713134766,5.541144847869873,0.389799182172054,20.0,207.0,0.0
G,D,"[9, 7]",0.0,0.0,0.2712118625640869,1.9174730777740479,0.6570853211724648,20.0,208.0,0.0
B,L,"[9, 6]",0.0,0.0,0.23772501945495605,1.7375080585479736,0.5112982908359085,20.0,209.0,0.0
R,U,"[8, 6]",0.0,0.0,0.2982161045074463,1.9382741451263428,0.6494665126683762,20.0,210.0,0.0
,,"(6, 6)",,,,,,,,
Y,R,"[6, 7]",0.0,0.0,0.36667609214782715,3.4304580688476562,0.7298248833088143,21.0,211.0,0.0
B,L,"[6, 6]",0.0,0.0,0.200117826461792,1.6249358654022217,0.4215618793420851,21.0,212.0,0.0
G,D,"[7, 6]",0.0,0.0,0.28717708587646484,1.9437949657440186,0.6650733584011632,21.0,213.0,0.0
R,U,"[6, 6]",0.0,0.0,0.210068941116333,1.7700741291046143,0.5520154401609492,21.0,214.0,0.0
G,D,"[7, 6]",0.0,0.0,0.23350000381469727,1.4863250255584717,0.2552558093262887,21.0,215.0,0.0
B,L,"[7, 5]",0.0,0.0,0.5271430015563965,2.261240005493164,0.7326502039479987,21.0,216.0,0.0
Y,R,"[7, 6]",0.0,0.0,0.19244599342346191,1.6406569480895996,0.4402078691107299,21.0,217.0,0.0
R,U,"[6, 6]",0.0,0.0,0.21712493896484375,1.5997560024261475,0.3899462907706373,21.0,218.0,0.0
B,L,"[6, 5]",0.0,0.0,0.176239013671875,1.7402091026306152,0.5633203875651989,21.0,219.0,0.0
G,D,"[7, 5]",-1.0,0.0,0.045790910720825195,5.458054065704346,0.3381564171773036,21.0,220.0,0.0
,,"(6, 6)",,,,,,,,
G,D,"[7, 6]",0.0,0.0,0.6206347942352295,3.313241958618164,0.4512311303553735,22.0,221.0,0.0
B,L,"[7, 5]",0.0,0.0,0.39656496047973633,1.6627910137176514,0.264176988674295,22.0,222.0,0.0
Y,R,"[7, 6]",0.0,0.0,0.3397228717803955,2.0193848609924316,0.6664376046582074,22.0,223.0,0.0
R,U,"[6, 6]",0.0,0.0,0.22994303703308105,1.498445987701416,0.26531255106818424,22.0,224.0,0.0
G,D,"[7, 6]",0.0,0.0,0.3670201301574707,2.0686190128326416,0.7000315747632343,22.0,225.0,0.0
R,U,"[6, 6]",0.0,0.0,0.20829176902770996,1.5498380661010742,0.33361278264015376,22.0,226.0,0.0
B,L,"[6, 5]",0.0,0.0,0.4952559471130371,1.8985188007354736,0.39869125901962943,22.0,227.0,0.0
G,D,"[7, 5]",0.0,0.0,0.3323359489440918,1.620074987411499,0.2854448442478243,22.0,228.0,0.0
Y,R,"[7, 6]",0.0,0.0,0.38362979888916016,1.6628820896148682,0.28161340577039046,22.0,229.0,0.0
G,D,"[8, 6]",0.0,0.0,0.40195703506469727,1.8913240432739258,0.4897082216724368,22.0,230.0,0.0
,,"(6, 6)",,,,,,,,
R,U,"[5, 6]",1.0,1.0,0.7643110752105713,3.800299882888794,0.4563033801166098,23.0,231.0,0.0
R,U,"[4, 6]",0.0,1.0,0.28959012031555176,1.626471996307373,0.3328997785851514,23.0,232.0,0.0
G,D,"[5, 6]",0.0,1.0,0.31923699378967285,1.9872651100158691,0.6697665058480684,23.0,233.0,0.0
B,L,"[5, 5]",0.0,1.0,0.23084092140197754,1.7415730953216553,0.5117099155962053,23.0,234.0,0.0
Y,R,"[5, 6]",0.0,1.0,0.2255539894104004,1.743117094039917,0.5212034697628256,23.0,235.0,0.0
G,D,"[6, 6]",0.0,1.0,0.20226120948791504,1.5808210372924805,0.38543118267920756,23.0,236.0,0.0
B,L,"[6, 5]",0.0,1.0,0.19820809364318848,1.463827133178711,0.2661495283404799,23.0,237.0,0.0
G,D,"[7, 5]",0.0,1.0,0.27250003814697266,1.9312701225280762,0.6473999428109141,23.0,238.0,0.0
B,L,"[7, 4]",0.0,1.0,0.2624800205230713,1.619508981704712,0.35013187854774613,23.0,239.0,0.0
G,D,"[8, 4]",0.0,1.0,0.2818470001220703,1.8271548748016357,0.5440143995699416,23.0,240.0,0.0
,,"(6, 6)",,,,,,,,
R,U,"[5, 6]",-2.0,0.0,1.2699809074401855,4.14910101890564,0.5260507551559551,24.0,241.0,0.0
R,U,"[4, 6]",0.0,0.0,0.4837920665740967,1.7645189762115479,0.290853958513557,24.0,242.0,0.0
G,D,"[5, 6]",0.0,0.0,0.3351249694824219,1.594357967376709,0.26857609447230796,24.0,243.0,0.0
B,L,"[5, 5]",0.0,0.0,0.6760919094085693,1.9729700088500977,0.2913293834967175,24.0,244.0,0.0
G,D,"[6, 5]",0.0,0.0,0.5227689743041992,2.0454158782958984,0.5199429027455114,24.0,245.0,0.0
G,D,"[7, 5]",0.0,0.0,0.3463878631591797,1.894385814666748,0.547643912322953,24.0,246.0,0.0
Y,R,"[7, 6]",0.0,0.0,0.2384188175201416,1.7943940162658691,0.558616699591338,24.0,247.0,0.0
B,L,"[7, 5]",0.0,0.0,0.25800585746765137,1.7295329570770264,0.47154031906322214,24.0,248.0,0.0
R,U,"[6, 5]",0.0,0.0,0.2926909923553467,2.037468910217285,0.7420934483339879,24.0,249.0,0.0
G,D,"[7, 5]",0.0,0.0,0.2713940143585205,1.7977280616760254,0.5399645210497934,24.0,250.0,0.0
,,"(6, 6)",,,,,,,,
Y,R,"[6, 7]",0.0,0.0,0.5663578510284424,3.305476188659668,0.29552112235122685,25.0,251.0,0.0
B,L,"[6, 6]",0.0,0.0,0.3706989288330078,2.004729986190796,0.6167300078461626,25.0,252.0,0.0
G,D,"[7, 6]",0.0,0.0,0.2772679328918457,1.9826409816741943,0.6991250424018204,25.0,253.0,0.0
R,U,"[6, 6]",0.0,0.0,0.27533793449401855,1.8838670253753662,0.5998405166548724,25.0,254.0,0.0
Y,R,"[6, 7]",0.0,0.0,0.3279409408569336,1.6506178379058838,0.31733251399019957,25.0,255.0,0.0
G,D,"[7, 7]",0.0,0.0,0.44190287590026855,1.9110748767852783,0.46160605979127134,25.0,256.0,0.0
B,L,"[7, 6]",0.0,0.0,0.2628779411315918,1.8938319683074951,0.6385968372795352,25.0,257.0,0.0
R,U,"[6, 6]",0.0,0.0,0.2792398929595947,1.8278939723968506,0.5498636850299343,25.0,258.0,0.0
G,D,"[7, 6]",0.0,0.0,0.2055521011352539,1.6571879386901855,0.45704488414353484,25.0,259.0,0.0
R,U,"[6, 6]",0.0,0.0,0.3218960762023926,1.6165499687194824,0.29052850992485574,25.0,260.0,0.0
,,"(6, 6)",,,,,,,,
Y,R,"[6, 7]",0.0,0.0,0.6115350723266602,3.240540027618408,0.380884200108897,26.0,261.0,0.0
B,L,"[6, 6]",0.0,0.0,0.4257950782775879,1.9818379878997803,0.5458771641194043,26.0,262.0,0.0
G,D,"[7, 6]",0.0,0.0,0.19451403617858887,1.667754888534546,0.46366772820930036,26.0,263.0,0.0
R,U,"[6, 6]",0.0,0.0,0.18480587005615234,1.7413749694824219,0.5549370263391786,26.0,264.0,0.0
G,D,"[7, 6]",0.0,0.0,0.17152190208435059,1.5507090091705322,0.38913365266495686,26.0,265.0,0.0
R,U,"[6, 6]",0.0,0.0,0.14441490173339844,1.8378889560699463,0.6932742583684299,26.0,266.0,0.0
B,L,"[6, 5]",0.0,0.0,0.2291851043701172,1.511207103729248,0.288169644712183,26.0,267.0,0.0
G,D,"[7, 5]",0.0,0.0,0.29436302185058594,1.5816338062286377,0.28656715894955564,26.0,268.0,0.0
Y,R,"[7, 6]",0.0,0.0,0.28908610343933105,1.9145588874816895,0.6341868598796676,26.0,269.0,0.0
B,L,"[7, 5]",0.0,0.0,0.21141695976257324,1.9586410522460938,0.7426134290146673,26.0,270.0,0.0
,,"(6, 6)",,,,,,,,
G,D,"[7, 6]",0.0,0.0,0.2920498847961426,2.6869611740112305,0.4964551485829852,27.0,271.0,0.0
R,U,"[6, 6]",0.0,0.0,0.23036909103393555,1.5742900371551514,0.3375089512887793,27.0,272.0,0.0
B,L,"[6, 5]",0.0,0.0,0.3027310371398926,1.9477550983428955,0.651530998120639,27.0,273.0,0.0
G,D,"[7, 5]",0.0,0.0,0.2947049140930176,2.0003671646118164,0.7017820655500467,27.0,274.0,0.0
Y,R,"[7, 6]",0.0,0.0,0.181671142578125,1.462209939956665,0.2810928626438855,27.0,275.0,0.0
B,L,"[7, 5]",0.0,0.0,0.36203789710998535,2.1102888584136963,0.740990757597264,27.0,276.0,0.0
G,D,"[8, 5]",0.0,0.0,0.20922183990478516,1.6596508026123047,0.45084883020547384,27.0,277.0,0.0
R,U,"[7, 5]",0.0,0.0,0.2743360996246338,1.8272788524627686,0.544734697566426,27.0,278.0,0.0
R,U,"[6, 5]",0.0,0.0,0.16854000091552734,1.738081932067871,0.5827453372350347,27.0,279.0,0.0
R,U,"[5, 5]",0.0,0.0,0.25963616371154785,1.7333288192749023,0.4661557294121539,27.0,280.0,0.0
,,"(6, 6)",,,,,,,,
G,D,"[7, 6]",0.0,0.0,0.4701840877532959,2.786818027496338,0.4030455452244531,28.0,281.0,0.0
B,L,"[7, 5]",0.0,0.0,0.35596585273742676,1.9840459823608398,0.6368254071462375,28.0,282.0,0.0
Y,R,"[7, 6]",0.0,0.0,0.1756281852722168,1.7800440788269043,0.6002207135702115,28.0,283.0,0.0
G,D,"[8, 6]",0.0,0.0,0.21740293502807617,1.8733410835266113,0.6567813480348955,28.0,284.0,0.0
B,L,"[8, 5]",0.0,0.0,0.2506239414215088,1.97487211227417,0.7315507280924816,28.0,285.0,0.0
B,L,"[8, 4]",0.0,0.0,0.24721288681030273,1.7486581802368164,0.49698198635872476,28.0,286.0,0.0
Y,R,"[8, 5]",0.0,0.0,0.3192098140716553,1.8618381023406982,0.5422515732974811,28.0,287.0,0.0
G,D,"[9, 5]",0.0,0.0,0.31626296043395996,1.950348138809204,0.6424685870223301,28.0,288.0,0.0
R,U,"[8, 5]",0.0,0.0,0.26628899574279785,1.6995790004730225,0.44212396319966835,28.0,289.0,0.0
B,L,"[8, 4]",0.0,0.0,0.5598771572113037,1.9263050556182861,0.3685372620062695,28.0,290.0,0.0
,,"(6, 6)",,,,,,,,
G,D,"[7, 6]",0.0,0.0,0.28377223014831543,2.7012739181518555,0.5529844851711501,29.0,291.0,0.0
Y,R,"[7, 7]",0.0,0.0,0.28995299339294434,1.582097053527832,0.2852678079063134,29.0,292.0,0.0
G,D,"[8, 7]",0.0,0.0,0.4475390911102295,1.9785850048065186,0.530210055283393,29.0,293.0,0.0
G,D,"[9, 7]",0.0,0.0,0.20009613037109375,1.7240610122680664,0.5209762183440623,29.0,294.0,0.0
G,D,"[10, 7]",0.0,0.0,0.2514181137084961,1.5464198589324951,0.3009839201748652,29.0,295.0,0.0
R,U,"[9, 7]",0.0,0.0,0.35849785804748535,2.067713975906372,0.7015827254963964,29.0,296.0,0.0
B,L,"[9, 6]",0.0,0.0,0.19673681259155273,1.5359888076782227,0.3379068340176546,29.0,297.0,0.0
G,D,"[10, 6]",0.0,0.0,0.3113861083984375,2.012586832046509,0.7001467429290246,29.0,298.0,0.0
Y,R,"[10, 7]",0.0,0.0,0.2289280891418457,1.660304069519043,0.42737217160718527,29.0,299.0,0.0
Y,R,"[10, 8]",0.0,0.0,0.23386001586914062,1.6224620342254639,0.39986506014020184,29.0,300.0,0.0
,,"(6, 6)",,,,,,,,
B,L,"[6, 5]",0.0,0.0,0.45735597610473633,2.5346999168395996,0.26795867002508605,30.0,301.0,0.0
B,L,"[6, 4]",0.0,0.0,0.23504114151000977,1.6946828365325928,0.4624062845888838,30.0,302.0,0.0
G,D,"[7, 4]",0.0,0.0,0.2719869613647461,1.9485390186309814,0.6773981462692686,30.0,303.0,0.0
R,U,"[6, 4]",0.0,0.0,0.2621939182281494,1.6604368686676025,0.404726001596875,30.0,304.0,0.0
R,U,"[5, 4]",0.0,0.0,0.24364900588989258,1.8391408920288086,0.5936757660635568,30.0,305.0,0.0
R,U,"[4, 4]",0.0,0.0,0.24866104125976562,1.6106398105621338,0.3712274054584655,30.0,306.0,0.0
R,U,"[3, 4]",0.0,0.0,0.26777195930480957,1.8972020149230957,0.6348171877802935,30.0,307.0,0.0
R,U,"[2, 4]",0.0,0.0,0.21692395210266113,1.617887020111084,0.402868264847685,30.0,308.0,0.0
R,U,"[1, 4]",0.0,0.0,0.24121999740600586,1.7735660076141357,0.5263377066073143,30.0,309.0,0.0
R,U,"[2, 4]",-3.0,0.0,0.16231107711791992,1.8037781715393066,0.6466126920998821,30.0,310.0,0.0
,,"(6, 6)",,,,,,,,
R,U,"[5, 6]",1.0,1.0,0.5424938201904297,3.0160880088806152,0.6293827070939952,31.0,311.0,0.0
R,U,"[4, 6]",0.0,1.0,0.21121501922607422,1.8090269565582275,0.5883202682345459,31.0,312.0,0.0
B,L,"[4, 5]",0.0,1.0,0.31075096130371094,1.9181890487670898,0.6066805762678718,31.0,313.0,0.0
G,D,"[5, 5]",0.0,1.0,0.35944104194641113,1.9093191623687744,0.5492820567712484,31.0,314.0,0.0
Y,R,"[5, 6]",0.0,1.0,0.18085598945617676,1.9154319763183594,0.7313652565595866,31.0,315.0,0.0
Y,R,"[5, 7]",1.0,2.0,0.12711095809936523,1.3927109241485596,0.2576393140037725,31.0,316.0,0.0
Y,R,"[5, 8]",1.0,3.0,0.2417769432067871,1.7124731540679932,0.46989852805227805,31.0,317.0,0.0
Y,R,"[5, 9]",0.0,3.0,0.31014394760131836,1.8297269344329834,0.5161144659464721,31.0,318.0,0.0
B,L,"[5, 8]",0.0,3.0,0.21179890632629395,1.876965045928955,0.6597155594232644,31.0,319.0,0.0
G,D,"[6, 8]",-1.0,3.0,0.06853413581848145,5.607341051101685,0.48373034400883524,31.0,320.0,0.0
,,"(6, 6)",,,,,,,,
G,D,"[7, 6]",0.0,0.0,0.8557829856872559,5.096950054168701,0.7138600358898787,32.0,321.0,0.0
R,U,"[6, 6]",-1.0,0.0,0.07499003410339355,5.4808549880981445,0.32832699899325835,32.0,322.0,0.0
R,U,"[5, 6]",-2.0,0.0,1.0226850509643555,2.504578113555908,0.516058015205168,32.0,323.0,0.0
R,U,"[4, 6]",0.0,0.0,0.2479720115661621,1.9056651592254639,0.655023945581436,32.0,324.0,0.0
G,D,"[5, 6]",0.0,0.0,0.18099212646484375,1.8964290618896484,0.7179314174267021,32.0,325.0,0.0
B,L,"[5, 5]",0.0,0.0,0.1969771385192871,1.737457036972046,0.5387619196423039,32.0,326.0,0.0
Y,R,"[5, 6]",0.0,0.0,0.22363901138305664,1.7574918270111084,0.5296049169188652,32.0,327.0,0.0
G,D,"[6, 6]",0.0,0.0,0.24891281127929688,1.9254820346832275,0.6717016048274631,32.0,328.0,0.0
B,L,"[6, 5]",0.0,0.0,0.18143606185913086,1.5695860385894775,0.3914464450322344,32.0,329.0,0.0
R,U,"[5, 5]",0.0,0.0,0.2615981101989746,1.6589751243591309,0.4004871225260873,32.0,330.0,0.0
,,"(6, 6)",,,,,,,,
G,D,"[7, 6]",0.0,0.0,0.6010470390319824,3.5098559856414795,0.6767164587402361,33.0,331.0,0.0
B,L,"[7, 5]",-1.0,0.0,0.05830097198486328,5.563842058181763,0.4573055012851733,33.0,332.0,0.0
B,L,"[7, 4]",0.0,0.0,0.44617390632629395,1.8815481662750244,0.43888038466004153,33.0,333.0,0.0
G,D,"[8, 4]",0.0,0.0,0.7888400554656982,2.397109031677246,0.6191690537266925,33.0,334.0,0.0
Y,R,"[8, 5]",0.0,0.0,0.4418661594390869,1.7855799198150635,0.338514674904821,33.0,335.0,0.0
G,D,"[9, 5]",0.0,0.0,0.29948878288269043,1.591637134552002,0.2966268290147343,33.0,336.0,0.0
R,U,"[8, 5]",0.0,0.0,0.32247400283813477,1.6752660274505615,0.3385817835207969,33.0,337.0,0.0
G,D,"[9, 5]",0.0,0.0,0.31177496910095215,1.7296099662780762,0.41805756925782095,33.0,338.0,0.0
Y,R,"[9, 6]",0.0,0.0,0.22048091888427734,1.8097209930419922,0.5942418516112244,33.0,339.0,0.0
G,D,"[10, 6]",0.0,0.0,0.1614210605621338,1.6551659107208252,0.4995260165242407,33.0,340.0,0.0
,,"(6, 6)",,,,,,,,
B,L,"[6, 5]",0.0,0.0,0.4144439697265625,3.157486915588379,0.5235659623478002,34.0,341.0,0.0
G,D,"[7, 5]",0.0,0.0,0.1787278652191162,1.8953590393066406,0.7188210289585211,34.0,342.0,0.0
B,L,"[7, 4]",0.0,0.0,0.3192579746246338,1.9457170963287354,0.6312271554937381,34.0,343.0,0.0
G,D,"[8, 4]",0.0,0.0,0.19300293922424316,1.661099910736084,0.45914121542337033,34.0,344.0,0.0
R,U,"[7, 4]",0.0,0.0,0.28569483757019043,1.597339153289795,0.3232926825868397,34.0,345.0,0.0
Y,R,"[7, 5]",0.0,0.0,0.38771891593933105,1.6326920986175537,0.25596165283502237,34.0,346.0,0.0
B,L,"[7, 4]",0.0,0.0,0.4516441822052002,1.967181921005249,0.5229281232287939,34.0,347.0,0.0
G,D,"[8, 4]",0.0,0.0,0.22339797019958496,1.7679119110107422,0.5573751481134466,34.0,348.0,0.0
R,U,"[7, 4]",0.0,0.0,0.2404789924621582,1.9207110404968262,0.69468049779507,34.0,349.0,0.0
G,D,"[8, 4]",0.0,0.0,0.4563331604003906,2.0530519485473633,0.6143764336583346,34.0,350.0,0.0
,,"(6, 6)",,,,,,,,
B,L,"[6, 5]",0.0,0.0,0.6249349117279053,3.4303348064422607,0.6114592317369083,35.0,351.0,0.0
G,D,"[7, 5]",0.0,0.0,0.26793503761291504,1.8018379211425781,0.5465762753868926,35.0,352.0,0.0
R,U,"[6, 5]",0.0,0.0,0.2902820110321045,1.6822919845581055,0.3790853002325023,35.0,353.0,0.0
Y,R,"[6, 6]",0.0,0.0,0.2769150733947754,2.0073440074920654,0.7195215319652133,35.0,354.0,0.0
G,D,"[7, 6]",0.0,0.0,0.20988917350769043,1.5712840557098389,0.35773160546463945,35.0,355.0,0.0
B,L,"[7, 5]",0.0,0.0,0.24018216133117676,1.7926499843597412,0.5668680379491746,35.0,356.0,0.0
Y,R,"[7, 6]",0.0,0.0,0.6682338714599609,2.189893960952759,0.5234494342641381,35.0,357.0,0.0
B,L,"[7, 5]",0.0,0.0,0.3598780632019043,1.8801460266113281,0.5202010449689447,35.0,358.0,0.0
G,D,"[8, 5]",0.0,0.0,0.3814239501953125,2.067883014678955,0.6879462164925982,35.0,359.0,0.0
R,U,"[7, 5]",0.0,0.0,0.36246204376220703,1.792335033416748,0.430440919891712,35.0,360.0,0.0
,,"(6, 6)",,,,,,,,
G,D,"[7, 6]",0.0,0.0,0.3987538814544678,3.666948080062866,0.44728758079740116,36.0,361.0,0.0
B,L,"[7, 5]",0.0,0.0,0.22807908058166504,1.664198875427246,0.4282680089915951,36.0,362.0,0.0
R,U,"[6, 5]",0.0,0.0,0.3764619827270508,2.0818428993225098,0.7098640653664346,36.0,363.0,0.0
Y,R,"[6, 6]",0.0,0.0,0.25475597381591797,1.8476858139038086,0.607625080025224,36.0,364.0,0.0
G,D,"[7, 6]",0.0,0.0,0.18778491020202637,1.541132926940918,0.3656777381984172,36.0,365.0,0.0
B,L,"[7, 5]",0.0,0.0,0.2517271041870117,1.719069004058838,0.46797044907813784,36.0,366.0,0.0
Y,R,"[7, 6]",0.0,0.0,0.22809600830078125,1.542358160018921,0.31044676855163017,36.0,367.0,0.0
G,D,"[8, 6]",0.0,0.0,0.309755802154541,1.8092310428619385,0.5027747307392751,36.0,368.0,0.0
B,L,"[8, 5]",0.0,0.0,0.24609994888305664,1.7568018436431885,0.5095830299258451,36.0,369.0,0.0
R,U,"[7, 5]",0.0,0.0,0.25401782989501953,1.7694728374481201,0.5289248811683671,36.0,370.0,0.0
,,"(6, 6)",,,,,,,,
G,D,"[7, 6]",0.0,0.0,0.6320040225982666,4.602432012557983,0.5980105276117772,37.0,371.0,0.0
Y,R,"[7, 7]",0.0,0.0,0.2366487979888916,1.5569360256195068,0.32189478766067503,37.0,372.0,0.0
B,L,"[7, 6]",0.0,0.0,0.5285849571228027,1.7838189601898193,0.2557127922590768,37.0,373.0,0.0
R,U,"[6, 6]",0.0,0.0,0.5272819995880127,1.8184781074523926,0.2908763844078995,37.0,374.0,0.0
G,D,"[7, 6]",0.0,0.0,0.5026040077209473,1.7508480548858643,0.2582855171451158,37.0,375.0,0.0
B,L,"[7, 5]",0.0,0.0,0.49559807777404785,1.8215489387512207,0.32975853998271043,37.0,376.0,0.0
Y,R,"[7, 6]",0.0,0.0,0.43227481842041016,1.8135662078857422,0.37658276012640085,37.0,377.0,0.0
B,L,"[7, 5]",0.0,0.0,0.4082670211791992,1.9491190910339355,0.542350511215116,37.0,378.0,0.0
Y,R,"[7, 6]",0.0,0.0,0.22937703132629395,1.7057960033416748,0.4817741198582234,37.0,379.0,0.0
G,D,"[8, 6]",0.0,0.0,0.4506411552429199,1.7763938903808594,0.3246752983246841,37.0,380.0,0.0
,,"(6, 6)",,,,,,,,
G,D,"[7, 6]",0.0,0.0,0.6787989139556885,7.354770183563232,0.6457681932549549,38.0,381.0,0.0
B,L,"[7, 5]",0.0,0.0,0.33716607093811035,1.71710205078125,0.3798046605435221,38.0,382.0,0.0
Y,R,"[7, 6]",0.0,0.0,0.3805539608001709,1.821329116821289,0.4343152195323907,38.0,383.0,0.0
B,L,"[7, 5]",0.0,0.0,0.46914100646972656,2.1868960857391357,0.7209491527579117,38.0,384.0,0.0
Y,R,"[7, 6]",0.0,0.0,0.24332213401794434,1.8574011325836182,0.6117827578386199,38.0,385.0,0.0
G,D,"[8, 6]",0.0,0.0,0.2024369239807129,1.46995210647583,0.28209811453073996,38.0,386.0,0.0
R,U,"[7, 6]",0.0,0.0,0.2991020679473877,1.8366270065307617,0.5350854269213352,38.0,387.0,0.0
G,D,"[8, 6]",-1.0,0.0,0.04529094696044922,5.770716905593872,0.6556375378756493,38.0,388.0,0.0
G,D,"[9, 6]",0.0,0.0,0.34006190299987793,2.0193300247192383,0.6748754863995903,38.0,389.0,0.0
B,L,"[9, 5]",0.0,0.0,0.26235079765319824,1.6989448070526123,0.44070329542935416,38.0,390.0,0.0
,,"(6, 6)",,,,,,,,
R,U,"[5, 6]",1.0,1.0,0.5858030319213867,5.340817928314209,0.6479609025604254,39.0,391.0,0.0
Y,R,"[5, 7]",1.0,2.0,0.1733410358428955,1.5001499652862549,0.31508991967234895,39.0,392.0,0.0
B,L,"[5, 6]",0.0,2.0,0.4253389835357666,2.071413040161133,0.6361860164397153,39.0,393.0,0.0
G,D,"[6, 6]",0.0,2.0,0.20766401290893555,1.862022876739502,0.6482494954035096,39.0,394.0,0.0
B,L,"[6, 5]",0.0,2.0,0.31550002098083496,1.9164648056030273,0.5981171933777775,39.0,395.0,0.0
Y,R,"[6, 6]",0.0,2.0,0.3023979663848877,1.737926959991455,0.4362242545785647,39.0,396.0,0.0
G,D,"[7, 6]",0.0,2.0,0.4359719753265381,1.8009679317474365,0.3705139685822669,39.0,397.0,0.0
R,U,"[6, 6]",0.0,2.0,0.4939858913421631,1.781649112701416,0.2856077569208028,39.0,398.0,0.0
Y,R,"[6, 7]",0.0,2.0,0.5626258850097656,1.9618752002716064,0.3972327463305845,39.0,399.0,0.0
B,L,"[6, 6]",0.0,2.0,0.524954080581665,2.1576740741729736,0.6214376342329649,39.0,400.0,0.0
,,"(6, 6)",,,,,,,,
G,D,"[7, 6]",0.0,0.0,0.5347549915313721,3.5985310077667236,0.3700925526174349,40.0,401.0,0.0
R,U,"[6, 6]",0.0,0.0,0.3098618984222412,1.5818638801574707,0.2688614347286397,40.0,402.0,0.0
B,L,"[6, 5]",0.0,0.0,0.49977898597717285,1.9582128524780273,0.4601889925909187,40.0,403.0,0.0
Y,R,"[6, 6]",0.0,0.0,0.5095350742340088,2.095216989517212,0.5886374233722338,40.0,404.0,0.0
G,D,"[7, 6]",0.0,0.0,0.3696138858795166,1.9172508716583252,0.5558710863563563,40.0,405.0,0.0
B,L,"[7, 5]",0.0,0.0,0.3698079586029053,1.852766990661621,0.49205917456792514,40.0,406.0,0.0
R,U,"[6, 5]",0.0,0.0,0.42990803718566895,1.9554100036621094,0.5307182651384641,40.0,407.0,0.0
Y,R,"[6, 6]",0.0,0.0,0.2683899402618408,1.5499768257141113,0.2809214923355413,40.0,408.0,0.0
B,L,"[6, 5]",0.0,0.0,0.6261649131774902,2.360257863998413,0.7241184999331758,40.0,409.0,0.0
G,D,"[7, 5]",0.0,0.0,0.25017285346984863,1.6034209728240967,0.36116285858550057,40.0,410.0,0.0
,,"(6, 6)",,,,,,,,
G,D,"[7, 6]",0.0,0.0,0.8200018405914307,3.5423171520233154,0.5201749056820003,41.0,411.0,0.0
B,L,"[7, 5]",0.0,0.0,0.25423288345336914,1.9955940246582031,0.7320272570294915,41.0,412.0,0.0
B,L,"[7, 4]",0.0,0.0,0.16684818267822266,1.8003242015838623,0.6324501701045528,41.0,413.0,0.0
B,L,"[7, 3]",0.0,0.0,0.2416248321533203,1.8801679611206055,0.6459421560048504,41.0,414.0,0.0
B,L,"[7, 2]",0.0,0.0,0.3076138496398926,1.944153070449829,0.6237284346768269,41.0,415.0,0.0
B,L,"[7, 1]",0.0,0.0,0.3262970447540283,2.043294906616211,0.7166616844607219,41.0,416.0,0.0
B,L,"[7, 2]",-1.0,0.0,0.08652091026306152,5.422673940658569,0.2730021280337649,41.0,417.0,0.0
B,L,"[7, 1]",0.0,0.0,0.5965821743011475,1.9311940670013428,0.3373822179724514,41.0,418.0,0.0
B,L,"[7, 2]",-3.0,0.0,0.7602570056915283,2.5053670406341553,0.7423416864236296,41.0,419.0,0.0
G,D,"[8, 2]",0.0,0.0,0.29155707359313965,2.0150389671325684,0.7241385070037369,41.0,420.0,0.0
,,"(6, 6)",,,,,,,,
G,D,"[7, 6]",0.0,0.0,0.45666003227233887,3.279841899871826,0.43752570449684197,42.0,421.0,0.0
Y,R,"[7, 7]",0.0,0.0,0.36418986320495605,2.012099027633667,0.6493694323302106,42.0,422.0,0.0
B,L,"[7, 6]",0.0,0.0,0.20565509796142578,1.733828067779541,0.5167643595438447,42.0,423.0,0.0
R,U,"[6, 6]",0.0,0.0,0.2685849666595459,2.015058994293213,0.7481527686018394,42.0,424.0,0.0
G,D,"[7, 6]",0.0,0.0,0.20178914070129395,1.7109501361846924,0.5093362451787083,42.0,425.0,0.0
B,L,"[7, 5]",0.0,0.0,0.3505280017852783,2.046628952026367,0.7058325688443957,42.0,426.0,0.0
Y,R,"[7, 6]",0.0,0.0,0.14748191833496094,1.737126111984253,0.5930840164651654,42.0,427.0,0.0
B,L,"[7, 5]",0.0,0.0,0.7482061386108398,2.218000888824463,0.47778571498304895,42.0,428.0,0.0
R,U,"[6, 5]",0.0,0.0,0.27350807189941406,1.5946369171142578,0.3226341170581894,42.0,429.0,0.0
G,D,"[7, 5]",0.0,0.0,0.45343685150146484,2.139331817626953,0.6949606698462633,42.0,430.0,0.0
,,"(6, 6)",,,,,,,,
G,D,"[7, 6]",0.0,0.0,0.4752011299133301,4.311040878295898,0.6726577824482344,43.0,431.0,0.0
B,L,"[7, 5]",0.0,0.0,0.2753560543060303,1.8681869506835938,0.5908855149890458,43.0,432.0,0.0
Y,R,"[7, 6]",0.0,0.0,0.3027489185333252,1.780876874923706,0.48851359992010973,43.0,433.0,0.0
R,U,"[6, 6]",0.0,0.0,0.29135990142822266,1.8496291637420654,0.5546493634144329,43.0,434.0,0.0
B,L,"[6, 5]",0.0,0.0,0.24331212043762207,1.8448619842529297,0.5995635433344289,43.0,435.0,0.0
Y,R,"[6, 6]",0.0,0.0,0.22541093826293945,1.843379020690918,0.6094651246393809,43.0,436.0,0.0
G,D,"[7, 6]",0.0,0.0,0.18803811073303223,1.6257050037384033,0.43544652248094434,43.0,437.0,0.0
B,L,"[7, 5]",0.0,0.0,0.317641019821167,1.7573518753051758,0.44275085417716303,43.0,438.0,0.0
R,U,"[6, 5]",0.0,0.0,0.32465600967407227,1.6378788948059082,0.31417829057638746,43.0,439.0,0.0
Y,R,"[6, 6]",0.0,0.0,0.24492192268371582,1.963865041732788,0.710902075412656,43.0,440.0,0.0
,,"(6, 6)",,,,,,,,
G,D,"[7, 6]",0.0,0.0,0.6565108299255371,4.013343095779419,0.7242343976680379,44.0,441.0,0.0
B,L,"[7, 5]",0.0,0.0,0.2669491767883301,1.856384038925171,0.597383547259201,44.0,442.0,0.0
R,U,"[6, 5]",0.0,0.0,0.30327606201171875,1.5582129955291748,0.2559777392289162,44.0,443.0,0.0
Y,R,"[6, 6]",0.0,0.0,0.6752588748931885,1.93837308883667,0.2609725078734482,44.0,444.0,0.0
B,L,"[6, 5]",0.0,0.0,0.5459280014038086,2.008042097091675,0.46872515098248935,44.0,445.0,0.0
G,D,"[7, 5]",0.0,0.0,0.3112349510192871,1.9738390445709229,0.659106802739732,44.0,446.0,0.0
B,L,"[7, 4]",0.0,0.0,0.13060998916625977,1.5894420146942139,0.46564646520339537,44.0,447.0,0.0
R,U,"[6, 4]",0.0,0.0,0.2909700870513916,1.9796500205993652,0.694868056502675,44.0,448.0,0.0
Y,R,"[6, 5]",0.0,0.0,0.19510293006896973,1.6455819606781006,0.4572743546690047,44.0,449.0,0.0
B,L,"[6, 4]",0.0,0.0,0.3541688919067383,1.6497318744659424,0.30716273902795815,44.0,450.0,0.0
,,"(6, 6)",,,,,,,,
G,D,"[7, 6]",0.0,0.0,0.5656981468200684,3.302953004837036,0.4932998827853326,45.0,451.0,0.0
B,L,"[7, 5]",0.0,0.0,0.3227729797363281,1.8525159358978271,0.5456932253899649,45.0,452.0,0.0
R,U,"[6, 5]",0.0,0.0,0.23035001754760742,1.5642788410186768,0.32690266832194576,45.0,453.0,0.0
G,D,"[7, 5]",0.0,0.0,0.7701690196990967,2.0471460819244385,0.29075043699761766,45.0,454.0,0.0
Y,R,"[7, 6]",0.0,0.0,0.3761579990386963,2.0526790618896484,0.6765471259687341,45.0,455.0,0.0
B,L,"[7, 5]",0.0,0.0,0.2550981044769287,1.8941121101379395,0.6537998943383682,45.0,456.0,0.0
G,D,"[8, 5]",0.0,0.0,0.17909789085388184,1.5601749420166016,0.3809285728795901,45.0,457.0,0.0
Y,R,"[8, 6]",0.0,0.0,0.4783790111541748,2.003856897354126,0.517971752456319,45.0,458.0,0.0
R,U,"[7, 6]",0.0,0.0,0.6604418754577637,2.0052928924560547,0.3400713918385276,45.0,459.0,0.0
G,D,"[8, 6]",0.0,0.0,0.4594290256500244,2.154996871948242,0.6946168952925775,45.0,460.0,0.0
,,"(6, 6)",,,,,,,,
B,L,"[6, 5]",0.0,0.0,0.3850541114807129,2.9148709774017334,0.6761540932334336,46.0,461.0,0.0
Y,R,"[6, 6]",0.0,0.0,0.26483607292175293,1.9761440753936768,0.7190729745326534,46.0,462.0,0.0
G,D,"[7, 6]",0.0,0.0,0.24942302703857422,1.6135380268096924,0.36624020206348457,46.0,463.0,0.0
B,L,"[7, 5]",0.0,0.0,0.4447169303894043,2.1775941848754883,0.7265437368827103,46.0,464.0,0.0
G,D,"[8, 5]",0.0,0.0,0.16295695304870605,1.4523000717163086,0.2958500864059723,46.0,465.0,0.0
R,U,"[7, 5]",0.0,0.0,0.5543608665466309,2.1744110584259033,0.603262306812945,46.0,466.0,0.0
G,D,"[8, 5]",0.0,0.0,0.2748439311981201,1.8443629741668701,0.564268730339355,46.0,467.0,0.0
Y,R,"[8, 6]",0.0,0.0,0.2526540756225586,1.5667741298675537,0.31445680228767214,46.0,468.0,0.0
B,L,"[8, 5]",0.0,0.0,0.38797783851623535,1.8880860805511475,0.48560238364077946,46.0,469.0,0.0
Y,R,"[8, 6]",0.0,0.0,0.27753591537475586,1.8685901165008545,0.5873786407593062,46.0,470.0,0.0
,,"(6, 6)",,,,,,,,
B,L,"[6, 5]",0.0,0.0,0.2983250617980957,2.7277989387512207,0.6151044986086827,47.0,471.0,0.0
Y,R,"[6, 6]",0.0,0.0,0.3575730323791504,1.8549880981445312,0.4867653705410577,47.0,472.0,0.0
R,U,"[5, 6]",1.0,1.0,0.23054099082946777,1.8783280849456787,0.648283560773864,47.0,473.0,0.0
R,U,"[4, 6]",0.0,1.0,0.14921879768371582,1.6125071048736572,0.46074540890502114,47.0,474.0,0.0
Y,R,"[4, 7]",0.0,1.0,0.13818907737731934,1.736684799194336,0.6139027886720327,47.0,475.0,0.0
B,L,"[4, 6]",-1.0,1.0,0.08818697929382324,5.727389097213745,0.5744370345285765,47.0,476.0,0.0
B,L,"[4, 5]",0.0,1.0,0.5124931335449219,1.8485300540924072,0.33976300223510714,47.0,477.0,0.0
G,D,"[5, 5]",0.0,1.0,0.2214360237121582,1.8700878620147705,0.6595008238895366,47.0,478.0,0.0
G,D,"[6, 5]",0.0,1.0,0.20282602310180664,1.8880188465118408,0.6973745718361501,47.0,479.0,0.0
B,L,"[6, 4]",0.0,1.0,0.12531495094299316,1.5042600631713867,0.368525154218646,47.0,480.0,0.0
,,"(6, 6)",,,,,,,,
R,U,"[5, 6]",1.0,1.0,0.3062570095062256,3.229700803756714,0.44803468901918225,48.0,481.0,0.0
R,U,"[4, 6]",0.0,1.0,0.2015089988708496,1.4752309322357178,0.27340499706655574,48.0,482.0,0.0
Y,R,"[4, 7]",0.0,1.0,0.21625876426696777,1.4881970882415771,0.27815055826812934,48.0,483.0,0.0
B,L,"[4, 6]",0.0,1.0,0.5046370029449463,1.914034128189087,0.4253170101862161,48.0,484.0,0.0
G,D,"[5, 6]",0.0,1.0,0.24167490005493164,1.8341741561889648,0.5925730908356592,48.0,485.0,0.0
Y,R,"[5, 7]",1.0,2.0,0.17737412452697754,1.770719051361084,0.5964763175620991,48.0,486.0,0.0
Y,R,"[5, 8]",1.0,3.0,0.21623802185058594,1.497352123260498,0.27735268892816745,48.0,487.0,0.0
Y,R,"[5, 9]",0.0,3.0,0.2867109775543213,1.7683320045471191,0.4956899145618053,48.0,488.0,0.0
B,L,"[5, 8]",0.0,3.0,0.14535307884216309,1.4967930316925049,0.3423370460552463,48.0,489.0,0.0
R,U,"[4, 8]",0.0,3.0,0.20499396324157715,1.5305371284484863,0.32287994367978445,48.0,490.0,0.0
,,"(6, 6)",,,,,,,,
G,D,"[7, 6]",0.0,0.0,0.6063978672027588,3.3763880729675293,0.5321683548342002,49.0,491.0,0.0
B,L,"[7, 5]",0.0,0.0,0.1915721893310547,1.5297620296478271,0.3287409258033255,49.0,492.0,0.0
Y,R,"[7, 6]",0.0,0.0,0.2522139549255371,1.4938440322875977,0.25590900865681665,49.0,493.0,0.0
R,U,"[6, 6]",-1.0,0.0,0.07064318656921387,5.434364080429077,0.30673626144782523,49.0,494.0,0.0
R,U,"[5, 6]",1.0,1.0,0.2832660675048828,1.7646150588989258,0.4878107588388569,49.0,495.0,0.0
R,U,"[4, 6]",0.0,1.0,0.31449294090270996,1.6380181312561035,0.32590954991617166,49.0,496.0,0.0
G,D,"[5, 6]",0.0,1.0,0.29125404357910156,1.9254560470581055,0.6342154763572596,49.0,497.0,0.0
B,L,"[5, 5]",0.0,1.0,0.22086119651794434,1.649087905883789,0.4334646566924053,49.0,498.0,0.0
Y,R,"[5, 6]",0.0,1.0,0.20082998275756836,1.4963221549987793,0.2965618259793083,49.0,499.0,0.0
B,L,"[5, 5]",0.0,1.0,0.2798471450805664,1.6783030033111572,0.3913752485593787,49.0,500.0,0.0
,,"(6, 6)",,,,,,,,
Y,R,"[6, 7]",0.0,0.0,0.6229779720306396,3.3779120445251465,0.31923278845731834,50.0,501.0,0.0
Y,R,"[6, 8]",1.0,1.0,0.23893499374389648,1.924868106842041,0.6935993996651432,50.0,502.0,0.0
Y,R,"[6, 9]",1.0,2.0,0.1931300163269043,1.7463209629058838,0.5566398627701161,50.0,503.0,0.0
Y,R,"[6, 10]",1.0,3.0,0.2000899314880371,1.474707841873169,0.28151151658219914,50.0,504.0,0.0
Y,R,"[6, 11]",0.0,3.0,0.25583410263061523,1.696605920791626,0.4445949003308798,50.0,505.0,0.0
Y,R,"[6, 10]",-1.0,3.0,0.08953189849853516,5.683353900909424,0.5443330795347117,50.0,506.0,0.0
Y,R,"[6, 11]",0.0,3.0,0.33218979835510254,1.656736135482788,0.3345231058366071,50.0,507.0,0.0
Y,R,"[6, 10]",-3.0,3.0,0.32037901878356934,1.8207051753997803,0.5050056219988281,50.0,508.0,0.0
Y,R,"[6, 11]",0.0,3.0,0.2487649917602539,1.558427095413208,0.31340748504752247,50.0,509.0,0.0
R,U,"[5, 11]",0.0,3.0,0.1489870548248291,1.5576791763305664,0.4043997815603063,50.0,510.0,0.0
,,"(6, 6)",,,,,,,,
Y,R,"[6, 7]",0.0,0.0,0.3239901065826416,4.00589394569397,0.2769711951090703,51.0,511.0,0.0
Y,R,"[6, 8]",1.0,1.0,0.34307003021240234,2.0261409282684326,0.6858742221684373,51.0,512.0,0.0
Y,R,"[6, 9]",1.0,2.0,0.19471192359924316,1.5885539054870605,0.39132756008383984,51.0,513.0,0.0
Y,R,"[6, 10]",1.0,3.0,0.26631999015808105,1.8133430480957031,0.5544750966070938,51.0,514.0,0.0
Y,R,"[6, 11]",0.0,3.0,0.19256806373596191,1.7025318145751953,0.5068748911034748,51.0,515.0,0.0
Y,R,"[6, 10]",-3.0,3.0,0.2550070285797119,1.9667339324951172,0.7067646972537095,51.0,516.0,0.0
Y,R,"[6, 11]",0.0,3.0,0.19185900688171387,1.6276671886444092,0.43471109351392495,51.0,517.0,0.0
Y,R,"[6, 10]",-3.0,3.0,0.2546100616455078,1.7602951526641846,0.49476980952097854,51.0,518.0,0.0
Y,R,"[6, 11]",0.0,3.0,0.25553297996520996,1.9913899898529053,0.7358408290766335,51.0,519.0,0.0
Y,R,"[6, 10]",-3.0,3.0,0.17258310317993164,1.64015793800354,0.45958872021338343,51.0,520.0,0.0
,,"(6, 6)",,,,,,,,
R,U,"[5, 6]",1.0,1.0,0.7914741039276123,4.353068113327026,0.6455639417635699,52.0,521.0,0.0
R,U,"[4, 6]",0.0,1.0,0.23161888122558594,1.8147029876708984,0.5768638933777381,52.0,522.0,0.0
G,D,"[5, 6]",0.0,1.0,0.16072297096252441,1.6209909915924072,0.46487765963707844,52.0,523.0,0.0
B,L,"[5, 5]",0.0,1.0,0.27019309997558594,1.964704990386963,0.6957489250595995,52.0,524.0,0.0
Y,R,"[5, 6]",0.0,1.0,0.21248602867126465,1.6883800029754639,0.46761582832814713,52.0,525.0,0.0
R,U,"[4, 6]",0.0,1.0,0.22612881660461426,1.929460048675537,0.6968200365587556,52.0,526.0,0.0
G,D,"[5, 6]",0.0,1.0,0.2100849151611328,1.5478649139404297,0.32819541649774076,52.0,527.0,0.0
B,L,"[5, 5]",0.0,1.0,0.33852195739746094,1.7752759456634521,0.4533106445236755,52.0,528.0,0.0
Y,R,"[5, 6]",0.0,1.0,0.27019405364990234,1.8793549537658691,0.6158463722097934,52.0,529.0,0.0
B,L,"[5, 5]",0.0,1.0,0.19578289985656738,1.8326590061187744,0.631741902033959,52.0,530.0,0.0
,,"(6, 6)",,,,,,,,
G,D,"[7, 6]",0.0,0.0,0.6189849376678467,3.1390039920806885,0.25434483714174944,53.0,531.0,0.0
B,L,"[7, 5]",0.0,0.0,0.2443099021911621,1.715641975402832,0.4697174301922085,53.0,532.0,0.0
Y,R,"[7, 6]",0.0,0.0,0.32944202423095703,1.8342790603637695,0.5039275221416771,53.0,533.0,0.0
R,U,"[6, 6]",0.0,0.0,0.3480839729309082,2.0484988689422607,0.7024588497711196,53.0,534.0,0.0
G,D,"[7, 6]",0.0,0.0,0.23003697395324707,1.6008188724517822,0.3698914409881865,53.0,535.0,0.0
B,L,"[7, 5]",0.0,0.0,0.45204806327819824,2.154292106628418,0.7069924470899955,53.0,536.0,0.0
Y,R,"[7, 6]",-1.0,0.0,0.002434968948364258,5.6322619915008545,0.5725267085912866,53.0,537.0,0.0
Y,R,"[7, 7]",0.0,0.0,0.5036520957946777,2.1069090366363525,0.6125848060571173,53.0,538.0,0.0
B,L,"[7, 6]",0.0,0.0,0.2801480293273926,1.6291899681091309,0.34203034053687226,53.0,539.0,0.0
G,D,"[8, 6]",0.0,0.0,0.9322550296783447,2.276550054550171,0.3517477012243965,53.0,540.0,0.0
,,"(6, 6)",,,,,,,,
R,U,"[5, 6]",1.0,1.0,0.5885250568389893,4.169862985610962,0.2550061485942068,54.0,541.0,0.0
R,U,"[4, 6]",0.0,1.0,0.500244140625,2.073042869567871,0.5775739576408675,54.0,542.0,0.0
B,L,"[4, 5]",0.0,1.0,0.2605550289154053,1.7524781227111816,0.4966706811406952,54.0,543.0,0.0
G,D,"[5, 5]",0.0,1.0,0.27786993980407715,1.603060007095337,0.31657877653776717,54.0,544.0,0.0
Y,R,"[5, 6]",0.0,1.0,0.764866828918457,2.0959200859069824,0.3291803216735136,54.0,545.0,0.0
B,L,"[5, 5]",0.0,1.0,0.325908899307251,1.8836438655853271,0.5457709215925739,54.0,546.0,0.0
R,U,"[4, 5]",0.0,1.0,0.32570409774780273,1.7533810138702393,0.4159536744245953,54.0,547.0,0.0
G,D,"[5, 5]",0.0,1.0,0.25977301597595215,2.0165159702301025,0.7486486407897468,54.0,548.0,0.0
Y,R,"[5, 6]",0.0,1.0,0.3188469409942627,1.9761168956756592,0.6582322155813204,54.0,549.0,0.0
B,L,"[5, 5]",0.0,1.0,0.25014710426330566,1.6167378425598145,0.37518140261375493,54.0,550.0,0.0
,,"(6, 6)",,,,,,,,
Y,R,"[6, 7]",0.0,0.0,0.2829160690307617,3.0913808345794678,0.41653193134766897,55.0,551.0,0.0
G,D,"[7, 7]",0.0,0.0,0.22443389892578125,1.719411849975586,0.4856474236408928,55.0,552.0,0.0
Y,R,"[7, 8]",0.0,0.0,0.21877193450927734,1.8212409019470215,0.6071563776160318,55.0,553.0,0.0
R,U,"[6, 8]",-1.0,0.0,0.014653921127319336,5.739516973495483,0.6626131474898047,55.0,554.0,0.0
R,U,"[5, 8]",1.0,1.0,0.36006712913513184,1.9882090091705322,0.6175352458920522,55.0,555.0,0.0
R,U,"[4, 8]",0.0,1.0,0.225722074508667,1.8181819915771484,0.5857197357459776,55.0,556.0,0.0
G,D,"[5, 8]",0.0,1.0,0.20502614974975586,1.5896480083465576,0.3754822827410412,55.0,557.0,0.0
Y,R,"[5, 9]",0.0,1.0,0.31369590759277344,1.6864879131317139,0.3785557239039233,55.0,558.0,0.0
B,L,"[5, 8]",0.0,1.0,0.6380469799041748,2.1148340702056885,0.4932563362323081,55.0,559.0,0.0
Y,R,"[5, 9]",0.0,1.0,0.3436589241027832,2.039557933807373,0.6992348660467564,55.0,560.0,0.0
,,"(6, 6)",,,,,,,,
G,D,"[7, 6]",0.0,0.0,0.8060081005096436,4.465121030807495,0.6641067759278002,56.0,561.0,0.0
B,L,"[7, 5]",0.0,0.0,0.3890650272369385,1.6553590297698975,0.25319240937371384,56.0,562.0,0.0
Y,R,"[7, 6]",0.0,0.0,0.387984037399292,2.0707969665527344,0.6901418497119527,56.0,563.0,0.0
R,U,"[6, 6]",0.0,0.0,0.2572319507598877,1.7690610885620117,0.509340928033116,56.0,564.0,0.0
G,D,"[7, 6]",0.0,0.0,0.5377140045166016,2.1614551544189453,0.6373210081836946,56.0,565.0,0.0
Y,R,"[7, 7]",0.0,0.0,0.8399100303649902,2.3605740070343018,0.5144971045632196,56.0,566.0,0.0
R,U,"[6, 7]",0.0,0.0,0.2432079315185547,1.6336510181427002,0.3816289306645965,56.0,567.0,0.0
B,L,"[6, 6]",0.0,0.0,0.28887391090393066,1.7541680335998535,0.46884922726804384,56.0,568.0,0.0
G,D,"[7, 6]",0.0,0.0,0.29392099380493164,1.6403172016143799,0.34273708988806906,56.0,569.0,0.0
Y,R,"[7, 7]",0.0,0.0,0.4397158622741699,1.9414260387420654,0.5005716808169804,56.0,570.0,0.0
,,"(6, 6)",,,,,,,,
G,D,"[7, 6]",0.0,0.0,0.5219438076019287,3.9866130352020264,0.2871998869926157,57.0,571.0,0.0
B,L,"[7, 5]",0.0,0.0,0.31720805168151855,1.769446849822998,0.4564822171130619,57.0,572.0,0.0
Y,R,"[7, 6]",0.0,0.0,0.18918609619140625,1.6031248569488525,0.40959039237178363,57.0,573.0,0.0
Y,R,"[7, 7]",0.0,0.0,0.3164029121398926,1.8787529468536377,0.5714941478026478,57.0,574.0,0.0
B,L,"[7, 6]",0.0,0.0,0.530174970626831,2.1158158779144287,0.5871197545672782,57.0,575.0,0.0
G,D,"[8, 6]",0.0,0.0,0.35599207878112793,2.0857441425323486,0.7227077076058337,57.0,576.0,0.0
R,U,"[7, 6]",0.0,0.0,0.31728291511535645,1.7506330013275146,0.4401871733200132,57.0,577.0,0.0
G,D,"[8, 6]",0.0,0.0,0.31137704849243164,1.5681309700012207,0.258359048349585,57.0,578.0,0.0
B,L,"[8, 5]",0.0,0.0,0.378464937210083,1.7286429405212402,0.3536775892499428,57.0,579.0,0.0
G,D,"[9, 5]",0.0,0.0,0.3340449333190918,2.0797648429870605,0.7495772834528865,57.0,580.0,0.0
,,"(6, 6)",,,,,,,,
Y,R,"[6, 7]",0.0,0.0,0.1920490264892578,2.320841073989868,0.30425457137747414,58.0,581.0,0.0
B,L,"[6, 6]",0.0,0.0,0.36702799797058105,1.9637131690979004,0.6009110397191165,58.0,582.0,0.0
G,D,"[7, 6]",0.0,0.0,0.22631406784057617,1.9451930522918701,0.7125742492822138,58.0,583.0,0.0
B,L,"[7, 5]",0.0,0.0,0.24634408950805664,1.6045811176300049,0.35082936553670496,58.0,584.0,0.0
Y,R,"[7, 6]",0.0,0.0,0.3883359432220459,1.9280381202697754,0.5285112238813588,58.0,585.0,0.0
B,L,"[7, 5]",0.0,0.0,0.2461988925933838,1.806610107421875,0.5684271721761727,58.0,586.0,0.0
G,D,"[8, 5]",0.0,0.0,0.1889500617980957,1.5062839984893799,0.30818858971291924,58.0,587.0,0.0
R,U,"[7, 5]",0.0,0.0,0.37994885444641113,1.6392979621887207,0.2641816532839202,58.0,588.0,0.0
G,D,"[8, 5]",-1.0,0.0,0.05257606506347656,5.412441968917847,0.2930597702220906,58.0,589.0,0.0
G,D,"[9, 5]",-1.0,0.0,0.09442591667175293,5.74436092376709,0.5869594684937376,58.0,590.0,0.0
,,"(6, 6)",,,,,,,,
G,D,"[7, 6]",0.0,0.0,0.3235440254211426,2.943267822265625,0.48019000194581657,59.0,591.0,0.0
Y,R,"[7, 7]",0.0,0.0,0.6888580322265625,2.249537944793701,0.5630733471478457,59.0,592.0,0.0
B,L,"[7, 6]",0.0,0.0,0.26280784606933594,1.6472117900848389,0.37694572506058516,59.0,593.0,0.0
Y,R,"[7, 7]",0.0,0.0,0.38852810859680176,1.8803470134735107,0.4905525327435337,59.0,594.0,0.0
G,D,"[8, 7]",0.0,0.0,0.7262289524078369,2.4509589672088623,0.7245844831979824,59.0,595.0,0.0
B,L,"[8, 6]",0.0,0.0,0.2571589946746826,1.9075298309326172,0.6486731404531585,59.0,596.0,0.0
R,U,"[7, 6]",0.0,0.0,0.27074289321899414,1.9185569286346436,0.6505718420173974,59.0,597.0,0.0
G,D,"[8, 6]",0.0,0.0,0.33776402473449707,1.902480125427246,0.5697238972928904,59.0,598.0,0.0
Y,R,"[8, 7]",0.0,0.0,0.5159211158752441,1.9941470623016357,0.480647205641199,59.0,599.0,0.0
B,L,"[8, 6]",0.0,0.0,0.2667510509490967,1.861095905303955,0.5915392406614027,59.0,600.0,0.0
,,"(6, 6)",,,,,,,,
G,D,"[7, 6]",0.0,0.0,0.7206637859344482,3.790466785430908,0.7154587249375572,60.0,601.0,0.0
Y,R,"[7, 7]",-1.0,0.0,0.06780099868774414,5.697165012359619,0.5622101050804352,60.0,602.0,0.0
B,L,"[7, 6]",0.0,0.0,0.4096410274505615,2.006571054458618,0.58537086440279,60.0,603.0,0.0
Y,R,"[7, 7]",0.0,0.0,0.5137460231781006,2.2021658420562744,0.6874190779138494,60.0,604.0,0.0
Y,R,"[7, 8]",-1.0,0.0,0.04985690116882324,5.573440074920654,0.4608998790932127,60.0,605.0,0.0
G,D,"[8, 8]",0.0,0.0,0.47597289085388184,1.8533589839935303,0.3809401530168686,60.0,606.0,0.0
R,U,"[7, 8]",0.0,0.0,0.4862709045410156,1.7854127883911133,0.29963441766703197,60.0,607.0,0.0
R,U,"[6, 8]",1.0,1.0,0.38704705238342285,2.0994129180908203,0.7153325891183927,60.0,608.0,0.0
R,U,"[5, 8]",1.0,2.0,0.18407106399536133,1.5286259651184082,0.34417299469974966,60.0,609.0,0.0
R,U,"[4, 8]",0.0,2.0,0.2922980785369873,1.8236749172210693,0.5344033404332831,60.0,610.0,0.0
,,"(6, 6)",,,,,,,,
Y,R,"[6, 7]",0.0,0.0,0.5601987838745117,3.106477975845337,0.5574031742728991,61.0,611.0,0.0
G,D,"[7, 7]",0.0,0.0,0.5410079956054688,1.9414958953857422,0.39899663950673364,61.0,612.0,0.0
B,L,"[7, 6]",0.0,0.0,0.2528200149536133,1.7995681762695312,0.5483803151425106,61.0,613.0,0.0
G,D,"[8, 6]",0.0,0.0,0.28479504585266113,1.9191200733184814,0.6344000859793097,61.0,614.0,0.0
B,L,"[8, 5]",0.0,0.0,0.276202917098999,1.7580339908599854,0.4753851189663332,61.0,615.0,0.0
Y,R,"[8, 6]",0.0,0.0,0.29235196113586426,1.840428113937378,0.5491299251589139,61.0,616.0,0.0
R,U,"[7, 6]",0.0,0.0,0.258181095123291,1.6782779693603516,0.4108173909635736,61.0,617.0,0.0
Y,R,"[7, 7]",0.0,0.0,0.4014880657196045,1.7503468990325928,0.36118332091199457,61.0,618.0,0.0
R,U,"[6, 7]",0.0,0.0,0.32346296310424805,1.624389886856079,0.3022421696768225,61.0,619.0,0.0
Y,R,"[6, 8]",1.0,1.0,0.502129077911377,2.211625099182129,0.7133914286715768,61.0,620.0,0.0
,,"(6, 6)",,,,,,,,
Y,R,"[6, 7]",0.0,0.0,0.5387020111083984,4.576373100280762,0.6397386590817723,62.0,621.0,0.0
Y,R,"[6, 8]",-1.0,0.0,0.0695490837097168,5.75744104385376,0.630368247203744,62.0,622.0,0.0
B,L,"[6, 7]",0.0,0.0,0.33019495010375977,1.7781140804290771,0.44191814723409745,62.0,623.0,0.0
G,D,"[7, 7]",0.0,0.0,0.3203129768371582,1.6768629550933838,0.3688489600282287,62.0,624.0,0.0
R,U,"[6, 7]",0.0,0.0,0.394057035446167,1.7495839595794678,0.35162906950783734,62.0,625.0,0.0
G,D,"[7, 7]",0.0,0.0,0.33397603034973145,1.891495943069458,0.559792474331416,62.0,626.0,0.0
Y,R,"[7, 8]",0.0,0.0,0.3159620761871338,1.7155711650848389,0.40858786221404175,62.0,627.0,0.0
R,U,"[6, 8]",0.0,0.0,0.26294684410095215,1.5138001441955566,0.2558883047295639,62.0,628.0,0.0
B,L,"[6, 7]",0.0,0.0,0.5176291465759277,1.9569449424743652,0.44602460404431277,62.0,629.0,0.0
B,L,"[6, 6]",0.0,0.0,0.24157309532165527,1.778641939163208,0.5242529471997468,62.0,630.0,0.0
,,"(6, 6)",,,,,,,,
G,D,"[7, 6]",0.0,0.0,0.48303890228271484,3.0349700450897217,0.29286030071637825,63.0,631.0,0.0
Y,R,"[7, 7]",0.0,0.0,0.30851006507873535,2.0543949604034424,0.7469629348231129,63.0,632.0,0.0
B,L,"[7, 6]",0.0,0.0,0.12779998779296875,1.4879789352416992,0.35178911723388023,63.0,633.0,0.0
Y,R,"[7, 7]",0.0,0.0,0.33152103424072266,1.9760138988494873,0.6445208111839296,63.0,634.0,0.0
B,L,"[7, 6]",0.0,0.0,0.19523310661315918,1.4400599002838135,0.2512277858049512,63.0,635.0,0.0
Y,R,"[7, 7]",0.0,0.0,0.828873872756958,2.139357805252075,0.30701685227844494,63.0,636.0,0.0
B,L,"[7, 6]",0.0,0.0,0.4795348644256592,1.8659629821777344,0.38947813467322107,63.0,637.0,0.0
Y,R,"[7, 7]",0.0,0.0,0.3648390769958496,1.835702896118164,0.47517643300016355,63.0,638.0,0.0
B,L,"[7, 6]",0.0,0.0,0.24850106239318848,1.8290631771087646,0.5873102842699038,63.0,639.0,0.0
G,D,"[8, 6]",0.0,0.0,0.25415706634521484,1.5927729606628418,0.34690401813880417,63.0,640.0,0.0
,,"(6, 6)",,,,,,,,
R,U,"[5, 6]",1.0,1.0,0.4909651279449463,3.329481840133667,0.47628013172078737,64.0,641.0,0.0
R,U,"[4, 6]",0.0,1.0,0.3065640926361084,1.8039579391479492,0.4970701963275843,64.0,642.0,0.0
G,D,"[5, 6]",0.0,1.0,0.5637798309326172,2.2579801082611084,0.6879336193543739,64.0,643.0,0.0
B,L,"[5, 5]",0.0,1.0,0.3253779411315918,1.7893400192260742,0.4607532515091183,64.0,644.0,0.0
Y,R,"[5, 6]",0.0,1.0,0.3159210681915283,1.6571028232574463,0.3512005703409566,64.0,645.0,0.0
G,D,"[6, 6]",0.0,1.0,0.6067099571228027,2.016200065612793,0.4006992567211072,64.0,646.0,0.0
B,L,"[6, 5]",0.0,1.0,0.3340179920196533,1.9311048984527588,0.5984890069684957,64.0,647.0,0.0
G,D,"[7, 5]",0.0,1.0,0.26604700088500977,1.7187418937683105,0.4503448242090355,64.0,648.0,0.0
G,D,"[8, 5]",0.0,1.0,0.40503716468811035,1.9157969951629639,0.5160172499305198,64.0,649.0,0.0
B,L,"[8, 4]",-1.0,1.0,0.09162282943725586,5.616405963897705,0.4489804451216223,64.0,650.0,0.0
,,"(6, 6)",,,,,,,,
B,L,"[6, 5]",0.0,0.0,0.15752410888671875,2.733754873275757,0.4160899705302437,65.0,651.0,0.0
Y,R,"[6, 6]",0.0,0.0,0.7162988185882568,2.454824924468994,0.7372682258520262,65.0,652.0,0.0
G,D,"[7, 6]",0.0,0.0,0.48023390769958496,1.9031360149383545,0.4239807780000275,65.0,653.0,0.0
B,L,"[7, 5]",0.0,0.0,0.5514070987701416,2.050234079360962,0.5073998362058869,65.0,654.0,0.0
G,D,"[8, 5]",0.0,0.0,0.35423898696899414,1.7191047668457031,0.37661807284329885,65.0,655.0,0.0
B,L,"[8, 4]",0.0,0.0,0.33655691146850586,1.5961780548095703,0.27283252326638546,65.0,656.0,0.0
Y,R,"[8, 5]",0.0,0.0,0.4995088577270508,1.9843599796295166,0.49032279902954895,65.0,657.0,0.0
G,D,"[9, 5]",0.0,0.0,0.43833208084106445,1.8610470294952393,0.4346176030541639,65.0,658.0,0.0
B,L,"[9, 4]",0.0,0.0,0.6166439056396484,2.188624143600464,0.5730201795228217,65.0,659.0,0.0
Y,R,"[9, 5]",0.0,0.0,0.19673991203308105,1.5945379734039307,0.40113785325098833,65.0,660.0,0.0
,,"(6, 6)",,,,,,,,
R,U,"[5, 6]",-2.0,0.0,1.0718660354614258,4.468602895736694,0.5693859608917862,66.0,661.0,0.0
R,U,"[4, 6]",0.0,0.0,0.17443013191223145,1.8882091045379639,0.7073441376241016,66.0,662.0,0.0
Y,R,"[4, 7]",-1.0,0.0,0.09903907775878906,5.54147481918335,0.3823310957731745,66.0,663.0,0.0
Y,R,"[4, 8]",0.0,0.0,0.27060985565185547,1.7616000175476074,0.4938866813588713,66.0,664.0,0.0
B,L,"[4, 7]",0.0,0.0,0.9341120719909668,2.4727139472961426,0.5498289833427892,66.0,665.0,0.0
G,D,"[5, 7]",1.0,1.0,0.1467139720916748,1.7320411205291748,0.5817760566594683,66.0,666.0,0.0
G,D,"[6, 7]",0.0,1.0,0.21835803985595703,1.6937229633331299,0.4754971041260334,66.0,667.0,0.0
B,L,"[6, 6]",0.0,1.0,0.2361290454864502,1.8853530883789062,0.6607131365751819,66.0,668.0,0.0
Y,R,"[6, 7]",0.0,1.0,0.7141659259796143,1.993211030960083,0.2874874067343492,66.0,669.0,0.0
B,L,"[6, 6]",0.0,1.0,0.27069687843322754,1.9147441387176514,0.6519229559580275,66.0,670.0,0.0
,,"(6, 6)",,,,,,,,
Y,R,"[6, 7]",0.0,0.0,0.48382091522216797,3.034501075744629,0.5031764707949817,67.0,671.0,0.0
B,L,"[6, 6]",0.0,0.0,0.11979889869689941,1.3753280639648438,0.2619179387591487,67.0,672.0,0.0
B,L,"[6, 5]",0.0,0.0,0.41469907760620117,2.07700514793396,0.6718836236182457,67.0,673.0,0.0
B,L,"[6, 4]",0.0,0.0,0.1717681884765625,1.8225641250610352,0.6610027206763739,67.0,674.0,0.0
B,L,"[6, 3]",-1.0,0.0,0.02555680274963379,5.76201605796814,0.6900515717497141,67.0,675.0,0.0
B,L,"[6, 2]",0.0,0.0,0.18821287155151367,1.759169101715088,0.5656481459052034,67.0,676.0,0.0
G,D,"[7, 2]",0.0,0.0,0.2605421543121338,1.7257730960845947,0.4580547485440433,67.0,677.0,0.0
Y,R,"[7, 3]",0.0,0.0,0.40689611434936523,1.7416231632232666,0.3497842832925966,67.0,678.0,0.0
Y,R,"[7, 4]",0.0,0.0,0.352154016494751,2.0372440814971924,0.6866093388490666,67.0,679.0,0.0
B,L,"[7, 3]",-1.0,0.0,0.004086971282958984,5.483099937438965,0.4196817124180687,67.0,680.0,0.0
,,"(6, 6)",,,,,,,,
G,D,"[7, 6]",0.0,0.0,0.60935378074646,6.540717124938965,0.2771866855097984,68.0,681.0,0.0
R,U,"[6, 6]",0.0,0.0,0.5127630233764648,2.171502113342285,0.6652131556030206,68.0,682.0,0.0
B,L,"[6, 5]",0.0,0.0,0.22338390350341797,1.9048280715942383,0.6863348432285619,68.0,683.0,0.0
Y,R,"[6, 6]",0.0,0.0,0.2766139507293701,1.6242649555206299,0.3442798269484258,68.0,684.0,0.0
G,D,"[7, 6]",0.0,0.0,0.4708249568939209,2.1468169689178467,0.6906355913780495,68.0,685.0,0.0
B,L,"[7, 5]",-1.0,0.0,0.05636286735534668,5.439101934432983,0.33006849394790994,68.0,686.0,0.0
B,L,"[7, 4]",0.0,0.0,0.2807600498199463,2.027151107788086,0.7399589859057389,68.0,687.0,0.0
G,D,"[8, 4]",0.0,0.0,0.322098970413208,1.5742671489715576,0.2646683270625235,68.0,688.0,0.0
R,U,"[7, 4]",0.0,0.0,0.543626070022583,2.230036973953247,0.6775605178103317,68.0,689.0,0.0
Y,R,"[7, 5]",0.0,0.0,0.2799508571624756,1.9114809036254883,0.6390673343152069,68.0,690.0,0.0
,,"(6, 6)",,,,,,,,
G,D,"[7, 6]",0.0,0.0,0.49041008949279785,3.4913220405578613,0.7474517595411888,69.0,691.0,0.0
B,L,"[7, 5]",0.0,0.0,0.24327397346496582,1.8686168193817139,0.6155838467057637,69.0,692.0,0.0
G,D,"[8, 5]",0.0,0.0,0.12658309936523438,1.6906609535217285,0.556368171267986,69.0,693.0,0.0
Y,R,"[8, 6]",0.0,0.0,0.3982870578765869,1.9031341075897217,0.5094464169608046,69.0,694.0,0.0
R,U,"[7, 6]",0.0,0.0,0.3611409664154053,1.6940569877624512,0.33698901415043864,69.0,695.0,0.0
B,L,"[7, 5]",0.0,0.0,0.854233980178833,2.4046449661254883,0.5579323821562733,69.0,696.0,0.0
Y,R,"[7, 6]",0.0,0.0,0.8502380847930908,2.4609899520874023,0.6188343936434737,69.0,697.0,0.0
B,L,"[7, 5]",0.0,0.0,0.7174661159515381,2.4116439819335938,0.6971126863130532,69.0,698.0,0.0
Y,R,"[7, 6]",0.0,0.0,0.33893418312072754,1.9234468936920166,0.5706489100529575,69.0,699.0,0.0
G,D,"[8, 6]",0.0,0.0,0.6401798725128174,2.0219240188598633,0.3759809893305186,69.0,700.0,0.0
,,"(6, 6)",,,,,,,,
G,D,"[7, 6]",0.0,0.0,0.4552741050720215,3.7203991413116455,0.6128805687516213,70.0,701.0,0.0
R,U,"[6, 6]",0.0,0.0,0.2580990791320801,1.6008191108703613,0.33054587632630406,70.0,702.0,0.0
B,L,"[6, 5]",0.0,0.0,0.3382728099822998,1.9509308338165283,0.5978669498687856,70.0,703.0,0.0
G,D,"[7, 5]",0.0,0.0,0.3001399040222168,1.9769208431243896,0.6746231524355054,70.0,704.0,0.0
Y,R,"[7, 6]",0.0,0.0,0.37546205520629883,1.9836010932922363,0.6082586994585326,70.0,705.0,0.0
B,L,"[7, 5]",0.0,0.0,0.37804484367370605,1.8415250778198242,0.46648482117159795,70.0,706.0,0.0
Y,R,"[7, 6]",0.0,0.0,0.4560248851776123,1.9310979843139648,0.46428429917176306,70.0,707.0,0.0
G,D,"[8, 6]",0.0,0.0,0.8767039775848389,2.3671419620513916,0.48130055696428214,70.0,708.0,0.0
G,D,"[9, 6]",0.0,0.0,0.37705016136169434,1.6464779376983643,0.2611964424321855,70.0,709.0,0.0
B,L,"[9, 5]",-2.0,0.0,1.4049320220947266,2.753688097000122,0.3981432468043826,70.0,710.0,0.0
,,"(6, 6)",,,,,,,,
R,U,"[5, 6]",1.0,1.0,0.9018659591674805,4.242243051528931,0.7066390229730956,71.0,711.0,0.0
B,L,"[5, 5]",-1.0,1.0,0.05606698989868164,5.76407790184021,0.653970149998431,71.0,712.0,0.0
Y,R,"[5, 6]",0.0,1.0,0.37000393867492676,1.9654560089111328,0.603027584950451,71.0,713.0,0.0
B,L,"[5, 5]",0.0,1.0,0.3813180923461914,1.650559902191162,0.2702252806391016,71.0,714.0,0.0
G,D,"[6, 5]",0.0,1.0,0.4485812187194824,1.8538739681243896,0.4073515680077382,71.0,715.0,0.0
R,U,"[5, 5]",0.0,1.0,0.40620899200439453,1.8844141960144043,0.4750231945411325,71.0,716.0,0.0
B,L,"[5, 4]",0.0,1.0,0.2028958797454834,1.477790117263794,0.2862348299748306,71.0,717.0,0.0
Y,R,"[5, 5]",0.0,1.0,0.38549208641052246,1.7775521278381348,0.3970353107561212,71.0,718.0,0.0
G,D,"[6, 5]",0.0,1.0,0.37821197509765625,1.858281135559082,0.47177377371814233,71.0,719.0,0.0
R,U,"[5, 5]",0.0,1.0,0.28725409507751465,1.9704580307006836,0.6920866935813301,71.0,720.0,0.0
,,"(6, 6)",,,,,,,,
B,L,"[6, 5]",0.0,0.0,0.415740966796875,3.5378899574279785,0.41339369916426083,72.0,721.0,0.0
Y,R,"[6, 6]",0.0,0.0,0.5404930114746094,2.1055898666381836,0.5522731510358185,72.0,722.0,0.0
R,U,"[5, 6]",1.0,1.0,0.26845312118530273,1.9317600727081299,0.6672163114219616,72.0,723.0,0.0
R,U,"[4, 6]",-1.0,1.0,0.05056405067443848,5.815773010253906,0.6994180166020507,72.0,724.0,0.0
R,U,"[3, 6]",0.0,1.0,0.41438889503479004,2.104016065597534,0.6868245822125896,72.0,725.0,0.0
G,D,"[4, 6]",0.0,1.0,0.3333549499511719,1.8764622211456299,0.5466901124827963,72.0,726.0,0.0
B,L,"[4, 5]",0.0,1.0,0.3469669818878174,1.8057448863983154,0.45250524009276755,72.0,727.0,0.0
Y,R,"[4, 6]",0.0,1.0,0.31604504585266113,1.99623703956604,0.6817320043130279,72.0,728.0,0.0
G,D,"[5, 6]",0.0,1.0,0.2880837917327881,1.583812952041626,0.29923195605139125,72.0,729.0,0.0
Y,R,"[5, 7]",1.0,2.0,0.2807900905609131,1.725356101989746,0.4412958238997207,72.0,730.0,0.0
,,"(6, 6)",,,,,,,,
Y,R,"[6, 7]",0.0,0.0,0.3445148468017578,3.470855951309204,0.5450366281788901,73.0,731.0,0.0
R,U,"[5, 7]",1.0,1.0,0.30727100372314453,1.8221230506896973,0.5172826053010453,73.0,732.0,0.0
R,U,"[4, 7]",0.0,1.0,0.26097607612609863,1.5172390937805176,0.2514260245717552,73.0,733.0,0.0
G,D,"[5, 7]",0.0,1.0,0.3822591304779053,2.0803539752960205,0.6978901837314044,73.0,734.0,0.0
B,L,"[5, 6]",1.0,2.0,0.4733259677886963,2.0960750579833984,0.6107101401787235,73.0,735.0,0.0
B,L,"[5, 5]",0.0,2.0,0.17455196380615234,1.5458319187164307,0.37347480047603426,73.0,736.0,0.0
Y,R,"[5, 6]",0.0,2.0,0.3435990810394287,1.6681299209594727,0.32495136688451814,73.0,737.0,0.0
G,D,"[6, 6]",0.0,2.0,0.23692703247070312,1.5023798942565918,0.2772326313316331,73.0,738.0,0.0
R,U,"[5, 6]",0.0,2.0,0.13390803337097168,1.5234088897705078,0.40054195523115094,73.0,739.0,0.0
Y,R,"[5, 7]",0.0,2.0,0.20781612396240234,1.8307788372039795,0.6144729784948031,73.0,740.0,0.0
,,"(6, 6)",,,,,,,,
G,D,"[7, 6]",0.0,0.0,0.2432999610900879,2.8770039081573486,0.3417348452075425,74.0,741.0,0.0
B,L,"[7, 5]",0.0,0.0,0.34450602531433105,1.915747880935669,0.5737309201160916,74.0,742.0,0.0
G,D,"[8, 5]",0.0,0.0,0.28499889373779297,1.7137119770050049,0.4376634335677976,74.0,743.0,0.0
Y,R,"[8, 6]",0.0,0.0,0.17210817337036133,1.6748809814453125,0.5124770741507653,74.0,744.0,0.0
G,D,"[9, 6]",0.0,0.0,0.1496131420135498,1.6569440364837646,0.5025496856359606,74.0,745.0,0.0
B,L,"[9, 5]",0.0,0.0,0.21281194686889648,1.4961540699005127,0.28237162914493397,74.0,746.0,0.0
Y,R,"[9, 6]",0.0,0.0,0.2639589309692383,1.7295780181884766,0.4616201325860333,74.0,747.0,0.0
R,U,"[8, 6]",0.0,0.0,0.31209397315979004,1.9731059074401855,0.668072887902488,74.0,748.0,0.0
G,D,"[9, 6]",0.0,0.0,0.29779481887817383,1.7795178890228271,0.4808539912273756,74.0,749.0,0.0
B,L,"[9, 5]",0.0,0.0,0.4374229907989502,1.9369208812713623,0.5011345338412769,74.0,750.0,0.0
,,"(6, 6)",,,,,,,,
R,U,"[5, 6]",-2.0,0.0,1.5913951396942139,7.359195947647095,0.6433603716736074,75.0,751.0,0.0
B,L,"[5, 5]",0.0,0.0,0.26340603828430176,1.5670819282531738,0.3106957796402512,75.0,752.0,0.0
G,D,"[6, 5]",0.0,0.0,0.4355931282043457,1.742020845413208,0.31937392388884966,75.0,753.0,0.0
Y,R,"[6, 6]",0.0,0.0,0.47635602951049805,2.1732239723205566,0.6921526514190858,75.0,754.0,0.0
R,U,"[5, 6]",0.0,0.0,0.20969581604003906,1.6853160858154297,0.4777280685772479,75.0,755.0,0.0
G,D,"[6, 6]",0.0,0.0,0.2723410129547119,1.856691837310791,0.5842686008450733,75.0,756.0,0.0
B,L,"[6, 5]",-1.0,0.0,0.07976412773132324,5.514559984207153,0.3656959934570517,75.0,757.0,0.0
Y,R,"[6, 6]",0.0,0.0,0.1509559154510498,1.8898861408233643,0.7383372076499584,75.0,758.0,0.0
G,D,"[7, 6]",0.0,0.0,0.21886706352233887,1.8579630851745605,0.6465879095406071,75.0,759.0,0.0
B,L,"[7, 5]",0.0,0.0,0.22030282020568848,1.6862759590148926,0.4660536018304058,75.0,760.0,0.0
,,"(6, 6)",,,,,,,,
R,U,"[5, 6]",1.0,1.0,0.6210329532623291,3.519351005554199,0.7024188883063113,76.0,761.0,0.0
R,U,"[4, 6]",0.0,1.0,0.21893715858459473,1.7687630653381348,0.5540810956555009,76.0,762.0,0.0
G,D,"[5, 6]",0.0,1.0,0.32321596145629883,2.023712158203125,0.6943212600085714,76.0,763.0,0.0
B,L,"[5, 5]",0.0,1.0,0.2959139347076416,1.7848999500274658,0.49596129977576814,76.0,764.0,0.0
Y,R,"[5, 6]",0.0,1.0,0.2305278778076172,1.5531070232391357,0.31596090193109216,76.0,765.0,0.0
G,D,"[6, 6]",0.0,1.0,0.4305229187011719,1.9351840019226074,0.5009509308425655,76.0,766.0,0.0
B,L,"[6, 5]",0.0,1.0,0.2861511707305908,1.740048885345459,0.4576813111288079,76.0,767.0,0.0
Y,R,"[6, 6]",0.0,1.0,0.36081600189208984,1.6685848236083984,0.30971215116852063,76.0,768.0,0.0
B,L,"[6, 5]",0.0,1.0,0.3911428451538086,1.99885892868042,0.6081584084552134,76.0,769.0,0.0
G,D,"[7, 5]",0.0,1.0,0.35524606704711914,1.8096981048583984,0.4680561794889871,76.0,770.0,0.0
,,"(6, 6)",,,,,,,,
R,U,"[5, 6]",1.0,1.0,0.6130239963531494,4.252362966537476,0.6867418102750091,77.0,771.0,0.0
R,U,"[4, 6]",0.0,1.0,0.1833949089050293,1.459075927734375,0.279581887928869,77.0,772.0,0.0
Y,R,"[4, 7]",0.0,1.0,0.5103240013122559,1.8321020603179932,0.32824033706780237,77.0,773.0,0.0
G,D,"[5, 7]",1.0,2.0,0.21706891059875488,1.839972972869873,0.6349331166884418,77.0,774.0,0.0
B,L,"[5, 6]",0.0,2.0,0.13899612426757812,1.5291738510131836,0.3972912369435351,77.0,775.0,0.0
R,U,"[4, 6]",0.0,2.0,0.3587310314178467,1.8788769245147705,0.5093679553298294,77.0,776.0,0.0
Y,R,"[4, 7]",0.0,2.0,0.11036014556884766,1.5389299392700195,0.43168618823060134,77.0,777.0,0.0
B,L,"[4, 6]",0.0,2.0,0.16709208488464355,1.4505858421325684,0.28229798317458743,77.0,778.0,0.0
G,D,"[5, 6]",0.0,2.0,0.5890090465545654,2.069652795791626,0.46850465416362347,77.0,779.0,0.0
Y,R,"[5, 7]",0.0,2.0,0.23230218887329102,1.5667901039123535,0.3353438243583441,77.0,780.0,0.0
,,"(6, 6)",,,,,,,,
G,D,"[7, 6]",0.0,0.0,0.6228909492492676,5.650094985961914,0.4185982771353354,78.0,781.0,0.0
B,L,"[7, 5]",0.0,0.0,0.27857398986816406,1.7683820724487305,0.486945476831112,78.0,782.0,0.0
R,U,"[6, 5]",0.0,0.0,0.2848680019378662,1.9004509449005127,0.6205649278949739,78.0,783.0,0.0
Y,R,"[6, 6]",0.0,0.0,0.5074748992919922,2.208333969116211,0.6953902127497424,78.0,784.0,0.0
B,L,"[6, 5]",0.0,0.0,0.20471405982971191,1.4718959331512451,0.26765318266163046,78.0,785.0,0.0
G,D,"[7, 5]",-1.0,0.0,0.04310202598571777,5.730341196060181,0.6309270094654941,78.0,786.0,0.0
G,D,"[8, 5]",0.0,0.0,0.2631850242614746,1.6387109756469727,0.36977510788966167,78.0,787.0,0.0
R,U,"[7, 5]",0.0,0.0,0.30796003341674805,2.054598808288574,0.7405984168596181,78.0,788.0,0.0
B,L,"[7, 4]",-1.0,0.0,0.09178590774536133,5.452096939086914,0.293052312982305,78.0,789.0,0.0
Y,R,"[7, 5]",-2.0,0.0,1.1708228588104248,2.5125110149383545,0.38879367300438344,78.0,790.0,0.0
,,"(6, 6)",,,,,,,,
B,L,"[6, 5]",0.0,0.0,0.5595049858093262,3.2950868606567383,0.26726689148983335,79.0,791.0,0.0
Y,R,"[6, 6]",0.0,0.0,0.33309102058410645,1.859004020690918,0.526337146886354,79.0,792.0,0.0
G,D,"[7, 6]",0.0,0.0,0.1920919418334961,1.6050739288330078,0.41458214251645586,79.0,793.0,0.0
B,L,"[7, 5]",0.0,0.0,0.3063950538635254,1.8766000270843506,0.5578735577865142,79.0,794.0,0.0
R,U,"[6, 5]",0.0,0.0,0.2557079792022705,1.922015905380249,0.6629043909860755,79.0,795.0,0.0
Y,R,"[6, 6]",0.0,0.0,0.22537589073181152,1.981137990951538,0.7438960054609249,79.0,796.0,0.0
G,D,"[7, 6]",0.0,0.0,0.2137131690979004,1.6678259372711182,0.46200709725173905,79.0,797.0,0.0
B,L,"[7, 5]",0.0,0.0,0.488555908203125,2.2064239978790283,0.7180745046797825,79.0,798.0,0.0
Y,R,"[7, 6]",-1.0,0.0,0.07871413230895996,5.4721291065216064,0.30719095514639205,79.0,799.0,0.0
G,D,"[8, 6]",0.0,0.0,0.35460782051086426,1.8837130069732666,0.5406024988543763,79.0,800.0,0.0
,,"(6, 6)",,,,,,,,
Y,R,"[6, 7]",-2.0,0.0,2.5976600646972656,5.967586994171143,0.658114435315208,80.0,801.0,0.0
G,D,"[7, 7]",0.0,0.0,0.41660213470458984,1.8218200206756592,0.4134233807329764,80.0,802.0,0.0
B,L,"[7, 6]",0.0,0.0,0.32626819610595703,1.651021957397461,0.31458797465045196,80.0,803.0,0.0
R,U,"[6, 6]",0.0,0.0,0.26926088333129883,2.008296012878418,0.739058762017009,80.0,804.0,0.0
B,L,"[6, 5]",0.0,0.0,0.3661930561065674,1.8566648960113525,0.49615904885389894,80.0,805.0,0.0
R,U,"[5, 5]",0.0,0.0,0.19352197647094727,1.5676360130310059,0.36365653685138905,80.0,806.0,0.0
G,D,"[6, 5]",0.0,0.0,0.42587900161743164,2.1080191135406494,0.6714540470210254,80.0,807.0,0.0
Y,R,"[6, 6]",0.0,0.0,0.21492600440979004,1.788067102432251,0.5760614518609182,80.0,808.0,0.0
R,U,"[5, 6]",1.0,1.0,0.16048717498779297,1.6598241329193115,0.5025813625982427,80.0,809.0,0.0
R,U,"[4, 6]",0.0,1.0,0.24282598495483398,1.7655839920043945,0.5182355625779216,80.0,810.0,0.0
,,"(6, 6)",,,,,,,,
B,L,"[6, 5]",0.0,0.0,0.86313796043396,4.47211217880249,0.5901943631808864,81.0,811.0,0.0
Y,R,"[6, 6]",0.0,0.0,0.21745800971984863,1.5644121170043945,0.3547094679504366,81.0,812.0,0.0
R,U,"[5, 6]",1.0,1.0,0.3594319820404053,1.9889659881591797,0.6268452825975357,81.0,813.0,0.0
R,U,"[4, 6]",-1.0,1.0,0.07996582984924316,5.601637125015259,0.46182836366450447,81.0,814.0,0.0
R,U,"[3, 6]",0.0,1.0,0.3191409111022949,1.6444470882415771,0.3397581844358146,81.0,815.0,0.0
G,D,"[4, 6]",0.0,1.0,0.3403940200805664,2.0055251121520996,0.661455504906135,81.0,816.0,0.0
B,L,"[4, 5]",0.0,1.0,0.4104151725769043,2.133817195892334,0.7286117145363467,81.0,817.0,0.0
R,U,"[3, 5]",0.0,1.0,0.7884299755096436,2.091593027114868,0.3039854642045015,81.0,818.0,0.0
Y,R,"[3, 6]",0.0,1.0,0.3571338653564453,1.8469898700714111,0.484017439882119,81.0,819.0,0.0
G,D,"[4, 6]",0.0,1.0,0.3450040817260742,1.6879479885101318,0.3387799856786826,81.0,820.0,0.0
,,"(6, 6)",,,,,,,,
R,U,"[5, 6]",1.0,1.0,0.593189001083374,7.014178991317749,0.502568576148917,82.0,821.0,0.0
R,U,"[4, 6]",0.0,1.0,0.20912814140319824,1.6353771686553955,0.4214682526045514,82.0,822.0,0.0
G,D,"[5, 6]",0.0,1.0,0.4113740921020508,1.9191081523895264,0.5070828262933678,82.0,823.0,0.0
B,L,"[5, 5]",0.0,1.0,0.32184505462646484,1.8237571716308594,0.49753086872736174,82.0,824.0,0.0
Y,R,"[5, 6]",0.0,1.0,0.19060420989990234,1.7012910842895508,0.49879266756300294,82.0,825.0,0.0
Y,R,"[5, 7]",1.0,2.0,0.1914839744567871,1.8588931560516357,0.6575160586283331,82.0,826.0,0.0
Y,R,"[5, 8]",1.0,3.0,0.110076904296875,1.6760849952697754,0.5836876181132746,82.0,827.0,0.0
B,L,"[5, 7]",0.0,3.0,0.23831915855407715,1.5299122333526611,0.28050541942186197,82.0,828.0,0.0
G,D,"[6, 7]",0.0,3.0,0.2871060371398926,1.8106060028076172,0.5241267991536946,82.0,829.0,0.0
R,U,"[5, 7]",0.0,3.0,0.21944904327392578,1.8253991603851318,0.6161748688231132,82.0,830.0,0.0
,,"(6, 6)",,,,,,,,
Y,R,"[6, 7]",0.0,0.0,0.6997771263122559,3.6723649501800537,0.35531239884627863,83.0,831.0,0.0
B,L,"[6, 6]",0.0,0.0,0.34783482551574707,1.623358964920044,0.27872567080898714,83.0,832.0,0.0
B,L,"[6, 5]",0.0,0.0,0.45676183700561523,2.011291027069092,0.5563908355687637,83.0,833.0,0.0
R,U,"[5, 5]",0.0,0.0,0.23256397247314453,1.9765949249267578,0.7494366710765558,83.0,834.0,0.0
G,D,"[6, 5]",0.0,0.0,0.19708704948425293,1.6499099731445312,0.4496507577407621,83.0,835.0,0.0
B,L,"[6, 4]",0.0,0.0,0.4332098960876465,2.136889934539795,0.7032417779150832,83.0,836.0,0.0
Y,R,"[6, 5]",-1.0,0.0,0.049321889877319336,5.695130825042725,0.5813973722161275,83.0,837.0,0.0
Y,R,"[6, 6]",0.0,0.0,0.34406280517578125,1.9375460147857666,0.5855702846747693,83.0,838.0,0.0
G,D,"[7, 6]",0.0,0.0,0.6423428058624268,1.9250590801239014,0.2774770198108019,83.0,839.0,0.0
G,D,"[8, 6]",0.0,0.0,0.5958988666534424,1.8582501411437988,0.26917693048207725,83.0,840.0,0.0
,,"(6, 6)",,,,,,,,
G,D,"[7, 6]",0.0,0.0,0.9212100505828857,3.429570198059082,0.2653135102856893,84.0,841.0,0.0
G,D,"[8, 6]",0.0,0.0,0.5896291732788086,2.1052908897399902,0.5036274865325632,84.0,842.0,0.0
R,U,"[7, 6]",0.0,0.0,0.33960986137390137,1.9734649658203125,0.6269910804228551,84.0,843.0,0.0
B,L,"[7, 5]",-1.0,0.0,0.041416168212890625,5.576416969299316,0.48677900757223386,84.0,844.0,0.0
B,L,"[7, 4]",0.0,0.0,0.3985409736633301,2.0137391090393066,0.6170054691228954,84.0,845.0,0.0
G,D,"[8, 4]",0.0,0.0,0.4319019317626953,2.0416300296783447,0.6086980154761907,84.0,846.0,0.0
R,U,"[7, 4]",0.0,0.0,0.529141902923584,2.0518200397491455,0.5271735493100835,84.0,847.0,0.0
Y,R,"[7, 5]",0.0,0.0,0.43349218368530273,1.9928638935089111,0.5699493118932764,84.0,848.0,0.0
B,L,"[7, 4]",0.0,0.0,0.4505801200866699,1.9721629619598389,0.5255327784921151,84.0,849.0,0.0
B,L,"[7, 3]",0.0,0.0,0.5228478908538818,2.031949996948242,0.5240589893913079,84.0,850.0,0.0
,,"(6, 6)",,,,,,,,
G,D,"[7, 6]",0.0,0.0,0.6706011295318604,3.997162103652954,0.7376812401808924,85.0,851.0,0.0
R,U,"[6, 6]",-2.0,0.0,1.0833570957183838,2.301659107208252,0.25640521801175015,85.0,852.0,0.0
R,U,"[5, 6]",1.0,1.0,0.30647802352905273,1.6371290683746338,0.3433450984237862,85.0,853.0,0.0
R,U,"[4, 6]",0.0,1.0,0.48009490966796875,1.980592966079712,0.507199327041426,85.0,854.0,0.0
R,U,"[3, 6]",0.0,1.0,0.10890603065490723,1.5304741859436035,0.421042959209791,85.0,855.0,0.0
R,U,"[2, 6]",0.0,1.0,0.228424072265625,1.7655410766601562,0.536325510787353,85.0,856.0,0.0
R,U,"[1, 6]",0.0,1.0,0.10973787307739258,1.4658010005950928,0.3524608003634262,85.0,857.0,0.0
R,U,"[2, 6]",-3.0,1.0,0.4020369052886963,1.7765460014343262,0.3789052373845643,85.0,858.0,0.0
R,U,"[1, 6]",0.0,1.0,0.24674296379089355,1.9747669696807861,0.720008101875711,85.0,859.0,0.0
R,U,"[2, 6]",-3.0,1.0,0.19600701332092285,1.7167339324951172,0.5202670957390014,85.0,860.0,0.0
,,"(6, 6)",,,,,,,,
G,D,"[7, 6]",0.0,0.0,0.9168848991394043,4.335747957229614,0.7057658853753727,86.0,861.0,0.0
R,U,"[6, 6]",-1.0,0.0,0.026573896408081055,5.558526992797852,0.4811201611880293,86.0,862.0,0.0
R,U,"[5, 6]",1.0,1.0,0.29732584953308105,1.9042479991912842,0.6018612533797679,86.0,863.0,0.0
R,U,"[4, 6]",0.0,1.0,0.24725794792175293,1.654306173324585,0.4062964148271113,86.0,864.0,0.0
R,U,"[3, 6]",0.0,1.0,0.3002510070800781,1.8037421703338623,0.5098806580195525,86.0,865.0,0.0
R,U,"[2, 6]",0.0,1.0,0.18119215965270996,1.8929309844970703,0.7192945372649047,86.0,866.0,0.0
R,U,"[1, 6]",0.0,1.0,0.23345708847045898,1.5301778316497803,0.2998728791632231,86.0,867.0,0.0
R,U,"[2, 6]",-2.0,1.0,1.635408878326416,3.176590919494629,0.5761336859818929,86.0,868.0,0.0
R,U,"[1, 6]",0.0,1.0,0.3911900520324707,1.9451138973236084,0.5545990983415763,86.0,869.0,0.0
R,U,"[2, 6]",-3.0,1.0,0.3458750247955322,1.7724618911743164,0.42708540374549286,86.0,870.0,0.0
,,"(6, 6)",,,,,,,,
R,U,"[5, 6]",1.0,1.0,0.644599199295044,3.6279640197753906,0.4216327474279016,87.0,871.0,0.0
R,U,"[4, 6]",0.0,1.0,0.2890951633453369,1.82688307762146,0.5318514599098582,87.0,872.0,0.0
R,U,"[3, 6]",0.0,1.0,0.2617619037628174,1.889801025390625,0.6214146974861035,87.0,873.0,0.0
R,U,"[2, 6]",0.0,1.0,0.2304379940032959,1.6175639629364014,0.38925649630981274,87.0,874.0,0.0
R,U,"[1, 6]",0.0,1.0,0.29578709602355957,1.5622460842132568,0.26830127360127676,87.0,875.0,0.0
R,U,"[2, 6]",-3.0,1.0,0.35445690155029297,1.9575409889221191,0.6088239205101398,87.0,876.0,0.0
R,U,"[1, 6]",0.0,1.0,0.22110390663146973,1.5792911052703857,0.3716206245655294,87.0,877.0,0.0
R,U,"[2, 6]",-3.0,1.0,0.29807591438293457,1.5530180931091309,0.25795353806694216,87.0,878.0,0.0
R,U,"[1, 6]",0.0,1.0,0.32288384437561035,1.6864509582519531,0.3611011096989171,87.0,879.0,0.0
R,U,"[2, 6]",-3.0,1.0,0.23447680473327637,1.8155748844146729,0.5929277917729867,87.0,880.0,0.0
,,"(6, 6)",,,,,,,,
R,U,"[5, 6]",1.0,1.0,0.5104720592498779,3.248342990875244,0.4414861450897088,88.0,881.0,0.0
R,U,"[4, 6]",0.0,1.0,0.22487998008728027,1.8946871757507324,0.6692627703001771,88.0,882.0,0.0
G,D,"[5, 6]",0.0,1.0,0.20669889450073242,1.9312951564788818,0.733723407205239,88.0,883.0,0.0
G,D,"[6, 6]",0.0,1.0,0.16630291938781738,1.8325588703155518,0.6664485278065131,88.0,884.0,0.0
G,D,"[7, 6]",0.0,1.0,0.12899398803710938,1.8035030364990234,0.670405204828179,88.0,885.0,0.0
G,D,"[8, 6]",0.0,1.0,0.20398879051208496,1.6494550704956055,0.45285335821616884,88.0,886.0,0.0
G,D,"[9, 6]",0.0,1.0,0.2791750431060791,1.8275680541992188,0.5469032841897148,88.0,887.0,0.0
G,D,"[10, 6]",0.0,1.0,0.23462319374084473,1.7691340446472168,0.5328120998160517,88.0,888.0,0.0
G,D,"[11, 6]",0.0,1.0,0.21696686744689941,1.7975499629974365,0.5803085272720399,88.0,889.0,0.0
G,D,"[10, 6]",-3.0,1.0,0.23797893524169922,1.7849581241607666,0.5485601945530967,88.0,890.0,0.0
,,"(6, 6)",,,,,,,,
R,U,"[5, 6]",1.0,1.0,0.616642951965332,3.388658046722412,0.3373931933351247,89.0,891.0,0.0
G,D,"[6, 6]",0.0,1.0,0.7952818870544434,2.334407091140747,0.5383010769813273,89.0,892.0,0.0
G,D,"[7, 6]",0.0,1.0,0.2748861312866211,1.928774118423462,0.650228003851811,89.0,893.0,0.0
B,L,"[7, 5]",-1.0,1.0,0.037954092025756836,5.650563955307007,0.5507007777527102,89.0,894.0,0.0
B,L,"[7, 4]",0.0,1.0,0.3074359893798828,1.9125080108642578,0.5965691726309589,89.0,895.0,0.0
B,L,"[7, 3]",0.0,1.0,0.22580289840698242,1.7031731605529785,0.46641922462657903,89.0,896.0,0.0
B,L,"[7, 2]",0.0,1.0,0.379741907119751,1.7649290561676025,0.38146678773311316,89.0,897.0,0.0
B,L,"[7, 1]",0.0,1.0,0.38512206077575684,1.986124038696289,0.6006457750341223,89.0,898.0,0.0
B,L,"[7, 2]",-3.0,1.0,0.2168290615081787,1.6449708938598633,0.42916309987266976,89.0,899.0,0.0
B,L,"[7, 1]",0.0,1.0,0.2519371509552002,1.529141902923584,0.27510236431871804,89.0,900.0,0.0
,,"(6, 6)",,,,,,,,
R,U,"[5, 6]",1.0,1.0,0.3662838935852051,3.8692691326141357,0.7438898763706607,90.0,901.0,0.0
B,L,"[5, 5]",0.0,1.0,0.1384258270263672,1.7067899703979492,0.5845394798105443,90.0,902.0,0.0
B,L,"[5, 4]",0.0,1.0,0.21281719207763672,1.6215829849243164,0.4058854581767519,90.0,903.0,0.0
B,L,"[5, 3]",0.0,1.0,0.3241150379180908,1.628251075744629,0.3008976888098,90.0,904.0,0.0
B,L,"[5, 2]",0.0,1.0,0.35274386405944824,1.8546221256256104,0.5052846561095273,90.0,905.0,0.0
B,L,"[5, 1]",0.0,1.0,0.21866202354431152,1.9091310501098633,0.6975293068469824,90.0,906.0,0.0
B,L,"[5, 2]",-1.0,1.0,0.08905696868896484,5.639284133911133,0.47028652178376507,90.0,907.0,0.0
B,L,"[5, 1]",0.0,1.0,0.2857630252838135,1.8997771739959717,0.6198684281401582,90.0,908.0,0.0
B,L,"[5, 2]",-3.0,1.0,0.3056509494781494,1.5756380558013916,0.2624945525776742,90.0,909.0,0.0
B,L,"[5, 1]",0.0,1.0,0.37424707412719727,1.9248621463775635,0.5370760858393553,90.0,910.0,0.0
,,"(6, 6)",,,,,,,,
R,U,"[5, 6]",1.0,1.0,0.308305025100708,3.540501117706299,0.5107935015033431,91.0,911.0,0.0
Y,R,"[5, 7]",1.0,2.0,0.20025300979614258,1.8685541152954102,0.6791660856320272,91.0,912.0,0.0
G,D,"[6, 7]",0.0,2.0,0.22111105918884277,1.5000009536743164,0.27955321106047065,91.0,913.0,0.0
B,L,"[6, 6]",0.0,2.0,0.29193711280822754,1.5571339130401611,0.25342849083334085,91.0,914.0,0.0
G,D,"[7, 6]",0.0,2.0,0.2219069004058838,1.8778212070465088,0.6641084834604283,91.0,915.0,0.0
B,L,"[7, 5]",0.0,2.0,0.23628592491149902,1.569361925125122,0.3337704014322358,91.0,916.0,0.0
B,L,"[7, 4]",0.0,2.0,0.24801206588745117,1.665118932723999,0.4154543812969997,91.0,917.0,0.0
B,L,"[7, 3]",0.0,2.0,0.23924803733825684,1.8643720149993896,0.6130258424453562,91.0,918.0,0.0
G,D,"[8, 3]",0.0,2.0,0.20059895515441895,1.481605052947998,0.2782828675712198,91.0,919.0,0.0
Y,R,"[8, 4]",0.0,2.0,0.6957859992980957,2.3141939640045166,0.6254393254002926,91.0,920.0,0.0
,,"(6, 6)",,,,,,,,
Y,R,"[6, 7]",0.0,0.0,0.5767340660095215,3.2621641159057617,0.32107282492523914,92.0,921.0,0.0
R,U,"[5, 7]",1.0,1.0,0.448854923248291,1.9519319534301758,0.5062488160022696,92.0,922.0,0.0
Y,R,"[5, 8]",1.0,2.0,0.42238616943359375,1.7254581451416016,0.31517028535832026,92.0,923.0,0.0
G,D,"[6, 8]",1.0,3.0,0.6711139678955078,2.1604630947113037,0.4921094045995932,92.0,924.0,0.0
B,L,"[6, 7]",0.0,3.0,0.21712207794189453,1.5696690082550049,0.3619015253755265,92.0,925.0,0.0
R,U,"[5, 7]",0.0,3.0,0.2770848274230957,1.9318430423736572,0.6600032264320422,92.0,926.0,0.0
Y,R,"[5, 8]",-1.0,3.0,0.07076191902160645,5.798583030700684,0.6752176646767294,92.0,927.0,0.0
G,D,"[6, 8]",0.0,3.0,0.31514501571655273,1.6793441772460938,0.3715483376851401,92.0,928.0,0.0
B,L,"[6, 7]",0.0,3.0,0.37862586975097656,1.8869249820709229,0.5082647661052633,92.0,929.0,0.0
R,U,"[5, 7]",0.0,3.0,0.2427661418914795,1.8167719841003418,0.5751697458687669,92.0,930.0,0.0
,,"(6, 6)",,,,,,,,
Y,R,"[6, 7]",0.0,0.0,0.602545976638794,3.497345209121704,0.5389866555476424,93.0,931.0,0.0
R,U,"[5, 7]",-1.0,0.0,0.0614161491394043,5.758066892623901,0.6302483951702023,93.0,932.0,0.0
G,D,"[6, 7]",0.0,0.0,0.2569730281829834,1.652811050415039,0.38330956706168196,93.0,933.0,0.0
B,L,"[6, 6]",0.0,0.0,0.2890748977661133,1.936711072921753,0.636791819612663,93.0,934.0,0.0
Y,R,"[6, 7]",0.0,0.0,0.2896130084991455,1.9280071258544922,0.6477599004517935,93.0,935.0,0.0
R,U,"[5, 7]",0.0,0.0,0.22626209259033203,1.7600109577178955,0.5245369207205526,93.0,936.0,0.0
Y,R,"[5, 8]",1.0,1.0,0.33421778678894043,2.012392997741699,0.686935548297885,93.0,937.0,0.0
G,D,"[6, 8]",1.0,2.0,0.22954320907592773,1.507599115371704,0.27806545025797713,93.0,938.0,0.0
B,L,"[6, 7]",0.0,2.0,0.4295351505279541,1.7811710834503174,0.35897453614979075,93.0,939.0,0.0
R,U,"[5, 7]",0.0,2.0,0.8561780452728271,2.1487698554992676,0.29118571899216655,93.0,940.0,0.0
,,"(6, 6)",,,,,,,,
R,U,"[5, 6]",1.0,1.0,0.7936110496520996,7.3948869705200195,0.7355600253674228,94.0,941.0,0.0
Y,R,"[5, 7]",1.0,2.0,0.21610307693481445,1.6734700202941895,0.4592378691139456,94.0,942.0,0.0
G,D,"[6, 7]",0.0,2.0,0.33337998390197754,2.023336887359619,0.6990332652357948,94.0,943.0,0.0
B,L,"[6, 6]",0.0,2.0,0.17354989051818848,1.8965470790863037,0.7122756829351675,94.0,944.0,0.0
R,U,"[5, 6]",0.0,2.0,0.25860095024108887,1.8872900009155273,0.6161353142171667,94.0,945.0,0.0
Y,R,"[5, 7]",0.0,2.0,0.29122400283813477,1.7300961017608643,0.42985142689228184,94.0,946.0,0.0
B,L,"[5, 6]",0.0,2.0,0.20834898948669434,1.4853930473327637,0.2653773233353069,94.0,947.0,0.0
G,D,"[6, 6]",0.0,2.0,0.25214505195617676,1.8860740661621094,0.6342698836111057,94.0,948.0,0.0
B,L,"[6, 5]",-1.0,2.0,0.07496905326843262,5.698058128356934,0.5490791372990174,94.0,949.0,0.0
B,L,"[6, 4]",0.0,2.0,0.3116490840911865,1.7120730876922607,0.3946041666735367,94.0,950.0,0.0
,,"(6, 6)",,,,,,,,
R,U,"[5, 6]",1.0,1.0,0.6245310306549072,3.7034149169921875,0.6478028537501787,95.0,951.0,0.0
Y,R,"[5, 7]",1.0,2.0,0.2149651050567627,1.7089991569519043,0.4902492554791992,95.0,952.0,0.0
G,D,"[6, 7]",0.0,2.0,0.35123419761657715,1.7687199115753174,0.425677066802521,95.0,953.0,0.0
B,L,"[6, 6]",0.0,2.0,0.28333401679992676,1.7165088653564453,0.4422011238609815,95.0,954.0,0.0
G,D,"[7, 6]",0.0,2.0,0.23360919952392578,1.6608219146728516,0.4362447368883383,95.0,955.0,0.0
B,L,"[7, 5]",0.0,2.0,0.22591710090637207,1.4856882095336914,0.2555109919174934,95.0,956.0,0.0
B,L,"[7, 4]",0.0,2.0,0.16055011749267578,1.6866040229797363,0.5251449414328168,95.0,957.0,0.0
B,L,"[7, 3]",0.0,2.0,0.20017504692077637,1.911219835281372,0.7194818855693054,95.0,958.0,0.0
B,L,"[7, 2]",0.0,2.0,0.14206409454345703,1.4109399318695068,0.26422028124618774,95.0,959.0,0.0
B,L,"[7, 1]",0.0,2.0,0.2969090938568115,1.592839002609253,0.29030827868122827,95.0,960.0,0.0
,,"(6, 6)",,,,,,,,
R,U,"[5, 6]",1.0,1.0,0.5110001564025879,3.474729061126709,0.6312615852033197,96.0,961.0,0.0
Y,R,"[5, 7]",1.0,2.0,0.22478508949279785,1.7098350524902344,0.4914040447110945,96.0,962.0,0.0
B,L,"[5, 6]",0.0,2.0,0.2492070198059082,1.9025561809539795,0.6603169804960854,96.0,963.0,0.0
G,D,"[6, 6]",0.0,2.0,0.2401869297027588,1.9314510822296143,0.6916699739009717,96.0,964.0,0.0
B,L,"[6, 5]",0.0,2.0,0.1477799415588379,1.7635548114776611,0.6219217797399754,96.0,965.0,0.0
B,L,"[6, 4]",0.0,2.0,0.17942118644714355,1.8142340183258057,0.6362543923294596,96.0,966.0,0.0
B,L,"[6, 3]",0.0,2.0,0.14529800415039062,1.4399399757385254,0.2931365365686747,96.0,967.0,0.0
B,L,"[6, 2]",-1.0,2.0,0.04939389228820801,5.631036996841431,0.5237962168722134,96.0,968.0,0.0
B,L,"[6, 1]",0.0,2.0,0.34884214401245117,1.8763279914855957,0.5335026415577382,96.0,969.0,0.0
B,L,"[6, 2]",-3.0,2.0,0.20036697387695312,1.7151820659637451,0.5153619045172333,96.0,970.0,0.0
,,"(6, 6)",,,,,,,,
R,U,"[5, 6]",1.0,1.0,0.5806901454925537,3.5220680236816406,0.653980022747787,97.0,971.0,0.0
Y,R,"[5, 7]",1.0,2.0,0.20601892471313477,1.4687578678131104,0.25630571741951447,97.0,972.0,0.0
Y,R,"[5, 8]",1.0,3.0,0.41433095932006836,1.76124906539917,0.3508699294457734,97.0,973.0,0.0
Y,R,"[5, 9]",0.0,3.0,0.35477113723754883,1.7551779747009277,0.40586968232829373,97.0,974.0,0.0
R,U,"[4, 9]",1.0,4.0,0.3435819149017334,1.6580979824066162,0.3142318545885617,97.0,975.0,0.0
R,U,"[3, 9]",1.0,5.0,0.3110201358795166,1.7999241352081299,0.4804374495066528,97.0,976.0,0.0
R,U,"[2, 9]",0.0,5.0,0.1282970905303955,1.729452133178711,0.593186802100721,97.0,977.0,0.0
G,D,"[3, 9]",-1.0,5.0,0.03989100456237793,5.651369094848633,0.5611848934766694,97.0,978.0,0.0
B,L,"[3, 8]",0.0,5.0,0.28624606132507324,1.8838469982147217,0.6116392344479324,97.0,979.0,0.0
G,D,"[4, 8]",0.0,5.0,0.21591997146606445,1.5061769485473633,0.3014511294448937,97.0,980.0,0.0
,,"(6, 6)",,,,,,,,
R,U,"[5, 6]",1.0,1.0,0.5053369998931885,3.1294898986816406,0.3142343226125369,98.0,981.0,0.0
Y,R,"[5, 7]",1.0,2.0,0.2698538303375244,1.6579020023345947,0.3886841242314022,98.0,982.0,0.0
Y,R,"[5, 8]",1.0,3.0,0.29189515113830566,1.7478160858154297,0.4530184673126847,98.0,983.0,0.0
R,U,"[4, 8]",0.0,3.0,0.20287704467773438,1.9169080257415771,0.7197208519049775,98.0,984.0,0.0
Y,R,"[4, 9]",1.0,4.0,0.23075008392333984,1.9692740440368652,0.738874229738394,98.0,985.0,0.0
Y,R,"[4, 10]",1.0,5.0,0.12965798377990723,1.7105398178100586,0.5829815084793526,98.0,986.0,0.0
Y,R,"[4, 11]",0.0,5.0,0.2387831211090088,1.5103590488433838,0.276908398998605,98.0,987.0,0.0
B,L,"[4, 10]",0.0,5.0,0.4147961139678955,2.000978946685791,0.594173131405739,98.0,988.0,0.0
G,D,"[5, 10]",1.0,6.0,0.22683310508728027,1.7054669857025146,0.48312232479305944,98.0,989.0,0.0
G,D,"[6, 10]",1.0,7.0,0.23309898376464844,1.6627850532531738,0.4292325834680406,98.0,990.0,0.0
,,"(6, 6)",,,,,,,,
R,U,"[5, 6]",1.0,1.0,0.5969738960266113,3.7008700370788574,0.7131651477567501,99.0,991.0,0.0
R,U,"[4, 6]",-1.0,1.0,0.06250309944152832,5.817555904388428,0.6811014381771949,99.0,992.0,0.0
Y,R,"[4, 7]",0.0,1.0,0.27370500564575195,1.7337307929992676,0.4479623342597577,99.0,993.0,0.0
G,D,"[5, 7]",1.0,2.0,0.2523510456085205,1.7168090343475342,0.4646526295688938,99.0,994.0,0.0
G,D,"[6, 7]",0.0,2.0,0.26371097564697266,1.605936050415039,0.3374237735386147,99.0,995.0,0.0
B,L,"[6, 6]",0.0,2.0,0.3076951503753662,1.7619061470031738,0.44928804605978606,99.0,996.0,0.0
R,U,"[5, 6]",0.0,2.0,0.26601505279541016,1.8104851245880127,0.5428698480877794,99.0,997.0,0.0
Y,R,"[5, 7]",0.0,2.0,0.27504801750183105,1.5313630104064941,0.2579178440031352,99.0,998.0,0.0
B,L,"[5, 6]",0.0,2.0,0.24863600730895996,1.9563870429992676,0.7138532354879794,99.0,999.0,0.0
G,D,"[6, 6]",0.0,2.0,0.18095803260803223,1.5775318145751953,0.3916558660281491,99.0,1000.0,0.0
