button_choice,action_choice,coordinate_choice,reward,cumulative_reward,rt,total_trial_time,iti,block_n,trial_n,trial_type
R,U,"[5, 6]",1.0,1.0,0.8820779323577881,2.4952709674835205,0.5126668104784258,0.0,1.0,0.0
Y,R,"[5, 7]",1.0,2.0,0.26435399055480957,1.7189269065856934,0.34848296715072913,0.0,2.0,0.0
Y,R,"[5, 8]",1.0,3.0,0.2257990837097168,1.8416709899902344,0.5066407645223592,0.0,3.0,0.0
G,D,"[6, 8]",1.0,4.0,0.20949506759643555,1.6450409889221191,0.33515202631257246,0.0,4.0,0.0
Y,R,"[6, 9]",1.0,5.0,0.1865999698638916,1.688215970993042,0.4066699816286455,0.0,5.0,0.0
Y,R,"[6, 10]",1.0,6.0,0.18817687034606934,1.6558551788330078,0.37917968907897887,0.0,6.0,0.0
R,U,"[5, 10]",1.0,7.0,0.21344995498657227,1.841284990310669,0.5369637521441522,0.0,7.0,0.0
R,U,"[4, 10]",1.0,8.0,0.23227596282958984,1.933501958847046,0.6037266458993193,0.0,8.0,0.0
B,L,"[4, 9]",1.0,9.0,0.19083595275878906,1.7098009586334229,0.4137785284803843,0.0,9.0,0.0
R,U,"[3, 9]",1.0,10.0,0.22090697288513184,1.6489059925079346,0.3294905723610362,0.0,10.0,0.0
,,"(6, 6)",,,,,,,,
R,U,"[5, 6]",1.0,1.0,0.3613770008087158,2.5395328998565674,0.43552450750245947,1.0,11.0,0.0
Y,R,"[5, 7]",1.0,2.0,0.19454312324523926,1.9029040336608887,0.6049916968319354,1.0,12.0,0.0
Y,R,"[5, 8]",1.0,3.0,0.19254708290100098,1.578366994857788,0.2837470078223427,1.0,13.0,0.0
G,D,"[6, 8]",1.0,4.0,0.24741196632385254,1.8447339534759521,0.49495454461942634,1.0,14.0,0.0
Y,R,"[6, 9]",1.0,5.0,0.20501995086669922,1.732145071029663,0.4101489356162343,1.0,15.0,0.0
Y,R,"[6, 10]",1.0,6.0,0.19738316535949707,1.8103609085083008,0.5207141734500917,1.0,16.0,0.0
R,U,"[5, 10]",1.0,7.0,0.17756009101867676,1.5524020195007324,0.2730824820591353,1.0,17.0,0.0
R,U,"[4, 10]",1.0,8.0,0.20601201057434082,2.0580930709838867,0.7475941386097538,1.0,18.0,0.0
B,L,"[4, 9]",1.0,9.0,0.23139095306396484,1.8481450080871582,0.5125904332479063,1.0,19.0,0.0
R,U,"[3, 9]",1.0,10.0,0.19747209548950195,1.8677728176116943,0.5637374288756354,1.0,20.0,0.0
,,"(6, 6)",,,,,,,,
R,U,"[5, 6]",1.0,1.0,0.347675085067749,2.412339925765991,0.4262048838170683,2.0,21.0,0.0
Y,R,"[5, 7]",1.0,2.0,0.22794103622436523,1.6573607921600342,0.3336657677579627,2.0,22.0,0.0
Y,R,"[5, 8]",1.0,3.0,0.21932697296142578,1.9298429489135742,0.6132462336933233,2.0,23.0,0.0
G,D,"[6, 8]",1.0,4.0,0.19605612754821777,1.9848601818084717,0.681375353607953,2.0,24.0,0.0
Y,R,"[6, 9]",1.0,5.0,0.20768380165100098,1.9358150959014893,0.617235621668364,2.0,25.0,0.0
Y,R,"[6, 10]",1.0,6.0,0.19742202758789062,1.8851730823516846,0.5858461491738935,2.0,26.0,0.0
R,U,"[5, 10]",1.0,7.0,0.26232385635375977,2.0923030376434326,0.7279912137569885,2.0,27.0,0.0
R,U,"[4, 10]",1.0,8.0,0.20788097381591797,1.658393144607544,0.3534725775427001,2.0,28.0,0.0
B,L,"[4, 9]",1.0,9.0,0.3174140453338623,1.7181761264801025,0.3049721348402057,2.0,29.0,0.0
R,U,"[3, 9]",1.0,10.0,0.2433910369873047,1.8571600914001465,0.5119842523310889,2.0,30.0,0.0
,,"(6, 6)",,,,,,,,
R,U,"[5, 6]",1.0,1.0,0.4555649757385254,3.1437039375305176,0.7388973614736989,3.0,31.0,0.0
Y,R,"[5, 7]",1.0,2.0,0.23689603805541992,1.8692388534545898,0.5415278690780886,3.0,32.0,0.0
Y,R,"[5, 8]",1.0,3.0,0.21333003044128418,1.772165060043335,0.4638372705281819,3.0,33.0,0.0
G,D,"[6, 8]",1.0,4.0,0.2210860252380371,1.6234190464019775,0.3040548338869168,3.0,34.0,0.0
Y,R,"[6, 9]",1.0,5.0,0.20078396797180176,2.01151180267334,0.7154017880758912,3.0,35.0,0.0
Y,R,"[6, 10]",1.0,6.0,0.21088290214538574,1.6035799980163574,0.28562938319485637,3.0,36.0,0.0
R,U,"[5, 10]",1.0,7.0,0.32711195945739746,1.7919120788574219,0.36111881334719137,3.0,37.0,0.0
R,U,"[4, 10]",1.0,8.0,0.2567009925842285,2.017944097518921,0.662104903782514,3.0,38.0,0.0
B,L,"[4, 9]",1.0,9.0,0.23437094688415527,1.9315531253814697,0.6102756450202487,3.0,39.0,0.0
R,U,"[3, 9]",1.0,10.0,0.21562409400939941,2.0001721382141113,0.6942476302424797,3.0,40.0,0.0
,,"(6, 6)",,,,,,,,
R,U,"[5, 6]",1.0,1.0,0.3952820301055908,2.7513649463653564,0.5286907932344345,4.0,41.0,0.0
Y,R,"[5, 7]",1.0,2.0,0.2308049201965332,2.0224180221557617,0.7008518489693742,4.0,42.0,0.0
Y,R,"[5, 8]",1.0,3.0,0.21755099296569824,2.030912160873413,0.7151349699773171,4.0,43.0,0.0
G,D,"[6, 8]",1.0,4.0,0.18729090690612793,1.9988360404968262,0.7139608863438556,4.0,44.0,0.0
Y,R,"[6, 9]",1.0,5.0,0.18143987655639648,1.9004220962524414,0.6142582419534776,4.0,45.0,0.0
Y,R,"[6, 10]",1.0,6.0,0.21945905685424805,1.6935369968414307,0.3749436700431755,4.0,46.0,0.0
R,U,"[5, 10]",1.0,7.0,0.2531859874725342,2.0136218070983887,0.6715922174176329,4.0,47.0,0.0
R,U,"[4, 10]",1.0,8.0,0.21457409858703613,1.5928430557250977,0.28155145584262087,4.0,48.0,0.0
B,L,"[4, 9]",1.0,9.0,0.2406752109527588,1.8363289833068848,0.4842872710134517,4.0,49.0,0.0
R,U,"[3, 9]",1.0,10.0,0.2213749885559082,1.8962030410766602,0.580472471612507,4.0,50.0,0.0
,,"(6, 6)",,,,,,,,
R,U,"[5, 6]",1.0,1.0,0.3253331184387207,2.814985990524292,0.5287367877158616,5.0,51.0,0.0
Y,R,"[5, 7]",1.0,2.0,0.18653202056884766,1.615332841873169,0.34425031722446187,5.0,52.0,0.0
Y,R,"[5, 8]",1.0,3.0,0.22721290588378906,1.8054988384246826,0.48297441595943874,5.0,53.0,0.0
G,D,"[6, 8]",1.0,4.0,0.2204751968383789,2.0409839153289795,0.723473705429927,5.0,54.0,0.0
Y,R,"[6, 9]",1.0,5.0,0.20430994033813477,1.7623929977416992,0.469739770686828,5.0,55.0,0.0
Y,R,"[6, 10]",1.0,6.0,0.21765899658203125,1.8359029293060303,0.5222816138391204,5.0,56.0,0.0
R,U,"[5, 10]",1.0,7.0,0.28612399101257324,1.896198034286499,0.5184667642261935,5.0,57.0,0.0
R,U,"[4, 10]",1.0,8.0,0.2222740650177002,1.7414159774780273,0.4100865716961443,5.0,58.0,0.0
B,L,"[4, 9]",1.0,9.0,0.2582831382751465,2.0781750679016113,0.7211776216305597,5.0,59.0,0.0
R,U,"[3, 9]",1.0,10.0,0.23284196853637695,1.7839710712432861,0.45556695606049924,5.0,60.0,0.0
,,"(6, 6)",,,,,,,,
R,U,"[5, 6]",1.0,1.0,0.331618070602417,2.457592010498047,0.3466656966707737,6.0,61.0,0.0
Y,R,"[5, 7]",1.0,2.0,0.23969292640686035,1.7233858108520508,0.3698604227651274,6.0,62.0,0.0
Y,R,"[5, 8]",1.0,3.0,0.25725698471069336,1.9471139907836914,0.5834397489416496,6.0,63.0,0.0
G,D,"[6, 8]",1.0,4.0,0.22841811180114746,1.6137549877166748,0.28089582068763724,6.0,64.0,0.0
Y,R,"[6, 9]",1.0,5.0,0.236860990524292,1.6807489395141602,0.34478285904265554,6.0,65.0,0.0
Y,R,"[6, 10]",1.0,6.0,0.23891401290893555,2.0787041187286377,0.7398065924058405,6.0,66.0,0.0
R,U,"[5, 10]",1.0,7.0,0.2349381446838379,1.7754759788513184,0.4490237322679819,6.0,67.0,0.0
R,U,"[4, 10]",1.0,8.0,0.318554162979126,1.8723249435424805,0.45470847403357767,6.0,68.0,0.0
B,L,"[4, 9]",1.0,9.0,0.24254703521728516,2.0095059871673584,0.6639731586007305,6.0,69.0,0.0
R,U,"[3, 9]",1.0,10.0,0.23134493827819824,2.067379951477051,0.7312981232586124,6.0,70.0,0.0
,,"(6, 6)",,,,,,,,
R,U,"[5, 6]",1.0,1.0,0.2834630012512207,3.039383888244629,0.6876778071892612,7.0,71.0,0.0
Y,R,"[5, 7]",1.0,2.0,0.2139720916748047,1.9667181968688965,0.654428814805776,7.0,72.0,0.0
Y,R,"[5, 8]",1.0,3.0,0.23149800300598145,1.8008310794830322,0.472028809851792,7.0,73.0,0.0
G,D,"[6, 8]",1.0,4.0,0.25279712677001953,1.6109960079193115,0.2666942114197204,7.0,74.0,0.0
Y,R,"[6, 9]",1.0,5.0,0.24060678482055664,1.6769521236419678,0.32701173839616626,7.0,75.0,0.0
Y,R,"[6, 10]",1.0,6.0,0.23688101768493652,1.8944470882415771,0.5712322655396865,7.0,76.0,0.0
R,U,"[5, 10]",1.0,7.0,0.2503030300140381,2.0380921363830566,0.692686789371987,7.0,77.0,0.0
R,U,"[4, 10]",1.0,8.0,0.23972415924072266,1.7489259243011475,0.40856854288041344,7.0,78.0,0.0
B,L,"[4, 9]",1.0,9.0,0.2556040287017822,1.621419906616211,0.2635612048518125,7.0,79.0,0.0
R,U,"[3, 9]",1.0,10.0,0.26239705085754395,1.8142330646514893,0.4445363073013317,7.0,80.0,0.0
,,"(6, 6)",,,,,,,,
R,U,"[5, 6]",1.0,1.0,0.35590195655822754,2.990924119949341,0.5518839922729033,8.0,81.0,0.0
Y,R,"[5, 7]",1.0,2.0,0.21745705604553223,1.6805429458618164,0.3663948817036585,8.0,82.0,0.0
Y,R,"[5, 8]",1.0,3.0,0.21814393997192383,1.7893428802490234,0.47239706961032246,8.0,83.0,0.0
G,D,"[6, 8]",1.0,4.0,0.24093008041381836,1.76127290725708,0.41706553368884525,8.0,84.0,0.0
Y,R,"[6, 9]",1.0,5.0,0.2213139533996582,2.073732852935791,0.7404847148935985,8.0,85.0,0.0
Y,R,"[6, 10]",1.0,6.0,0.22785305976867676,1.885002851486206,0.5591919124079041,8.0,86.0,0.0
R,U,"[5, 10]",1.0,7.0,0.2646491527557373,2.101625919342041,0.7439978351785899,8.0,87.0,0.0
R,U,"[4, 10]",1.0,8.0,0.2136549949645996,1.8654022216796875,0.5598572214691206,8.0,88.0,0.0
B,L,"[4, 9]",1.0,9.0,0.2248539924621582,2.020498037338257,0.696992589848382,8.0,89.0,0.0
R,U,"[3, 9]",1.0,10.0,0.23159408569335938,1.878981113433838,0.5428107478307228,8.0,90.0,0.0
,,"(6, 6)",,,,,,,,
R,U,"[5, 6]",1.0,1.0,0.28789710998535156,2.7302041053771973,0.6727498581933471,9.0,91.0,0.0
Y,R,"[5, 7]",1.0,2.0,0.21875715255737305,1.8550209999084473,0.544914260502313,9.0,92.0,0.0
Y,R,"[5, 8]",1.0,3.0,0.23282980918884277,1.8038771152496338,0.4822855331801001,9.0,93.0,0.0
G,D,"[6, 8]",1.0,4.0,0.22117114067077637,1.7545201778411865,0.43692722999846295,9.0,94.0,0.0
Y,R,"[6, 9]",1.0,5.0,0.23819708824157715,1.886502981185913,0.5567843355153725,9.0,95.0,0.0
Y,R,"[6, 10]",1.0,6.0,0.2310018539428711,2.027787923812866,0.7012791442910936,9.0,96.0,0.0
R,U,"[5, 10]",1.0,7.0,0.2117321491241455,2.0276451110839844,0.7122165600179955,9.0,97.0,0.0
R,U,"[4, 10]",1.0,8.0,0.24932003021240234,1.8803629875183105,0.5095659345766108,9.0,98.0,0.0
B,L,"[4, 9]",1.0,9.0,0.2290201187133789,1.7161099910736084,0.39255046775411423,9.0,99.0,0.0
R,U,"[3, 9]",1.0,10.0,0.23137307167053223,2.0061111450195312,0.6818348902399801,9.0,100.0,0.0
,,"(6, 6)",,,,,,,,
R,U,"[5, 6]",1.0,1.0,0.44803905487060547,2.933237075805664,0.33202315516596326,10.0,101.0,0.0
Y,R,"[5, 7]",1.0,2.0,0.2043910026550293,1.667443037033081,0.366445862142173,10.0,102.0,0.0
Y,R,"[5, 8]",1.0,3.0,0.23192811012268066,1.596949815750122,0.2635032349212345,10.0,103.0,0.0
G,D,"[6, 8]",1.0,4.0,0.22684693336486816,1.7950949668884277,0.45860776213196025,10.0,104.0,0.0
Y,R,"[6, 9]",1.0,5.0,0.20961308479309082,1.6644680500030518,0.35653328672350015,10.0,105.0,0.0
Y,R,"[6, 10]",1.0,6.0,0.24692916870117188,1.9575941562652588,0.6139209280577481,10.0,106.0,0.0
R,U,"[5, 10]",1.0,7.0,0.377424955368042,1.8766131401062012,0.3908522005899063,10.0,107.0,0.0
R,U,"[4, 10]",1.0,8.0,0.26271581649780273,2.0767080783843994,0.7173129947989434,10.0,108.0,0.0
B,L,"[4, 9]",1.0,9.0,0.23373103141784668,1.7387421131134033,0.40662638515565375,10.0,109.0,0.0
R,U,"[3, 9]",1.0,10.0,0.26519012451171875,2.0846729278564453,0.7242789315243222,10.0,110.0,0.0
,,"(6, 6)",,,,,,,,
R,U,"[5, 6]",1.0,1.0,0.3355410099029541,2.5548579692840576,0.5294775978805718,11.0,111.0,0.0
Y,R,"[5, 7]",1.0,2.0,0.22427606582641602,1.605769157409668,0.2688869992378779,11.0,112.0,0.0
Y,R,"[5, 8]",1.0,3.0,0.2275240421295166,2.0745151042938232,0.7430903870268629,11.0,113.0,0.0
G,D,"[6, 8]",1.0,4.0,0.2209310531616211,1.7467069625854492,0.4400756612390226,11.0,114.0,0.0
Y,R,"[6, 9]",1.0,5.0,0.3189389705657959,2.1128220558166504,0.7026520932012419,11.0,115.0,0.0
Y,R,"[6, 10]",1.0,6.0,0.2312779426574707,2.0593960285186768,0.7288520428087437,11.0,116.0,0.0
R,U,"[5, 10]",1.0,7.0,0.3314061164855957,1.9823710918426514,0.5614849091905717,11.0,117.0,0.0
R,U,"[4, 10]",1.0,8.0,0.26922106742858887,1.8115630149841309,0.45695526920357427,11.0,118.0,0.0
B,L,"[4, 9]",1.0,9.0,0.2657310962677002,1.913006067276001,0.5529248967203213,11.0,119.0,0.0
R,U,"[3, 9]",1.0,10.0,0.23404979705810547,1.9057278633117676,0.5753400761547591,11.0,120.0,0.0
,,"(6, 6)",,,,,,,,
R,U,"[5, 6]",1.0,1.0,0.3385641574859619,2.5209808349609375,0.2968811151652969,12.0,121.0,0.0
Y,R,"[5, 7]",1.0,2.0,0.23465180397033691,1.6793038845062256,0.3427782411764244,12.0,122.0,0.0
Y,R,"[5, 8]",1.0,3.0,0.23812413215637207,1.663748025894165,0.32330786150106233,12.0,123.0,0.0
G,D,"[6, 8]",1.0,4.0,0.2310800552368164,1.5917460918426514,0.2652167787950352,12.0,124.0,0.0
Y,R,"[6, 9]",1.0,5.0,0.24547600746154785,1.8003599643707275,0.44887165944734,12.0,125.0,0.0
Y,R,"[6, 10]",1.0,6.0,0.23785614967346191,1.9724299907684326,0.6210293152076443,12.0,126.0,0.0
R,U,"[5, 10]",1.0,7.0,0.2381000518798828,2.037930965423584,0.6924483678591437,12.0,127.0,0.0
R,U,"[4, 10]",1.0,8.0,0.23298096656799316,1.851820945739746,0.5278375029597226,12.0,128.0,0.0
B,L,"[4, 9]",1.0,9.0,0.2677938938140869,2.0503368377685547,0.6946867787115578,12.0,129.0,0.0
R,U,"[3, 9]",1.0,10.0,0.3348071575164795,1.908167839050293,0.48645191609837796,12.0,130.0,0.0
,,"(6, 6)",,,,,,,,
R,U,"[5, 6]",1.0,1.0,0.29940199851989746,2.432368040084839,0.5856309968821161,13.0,131.0,0.0
Y,R,"[5, 7]",1.0,2.0,0.21809697151184082,1.6580159664154053,0.34385661886207974,13.0,132.0,0.0
Y,R,"[5, 8]",1.0,3.0,0.2439861297607422,1.6579821109771729,0.3186067288656611,13.0,133.0,0.0
G,D,"[6, 8]",1.0,4.0,0.2635691165924072,1.693601131439209,0.32879134390196896,13.0,134.0,0.0
Y,R,"[6, 9]",1.0,5.0,0.22235894203186035,2.0625081062316895,0.7411585841723102,13.0,135.0,0.0
Y,R,"[6, 10]",1.0,6.0,0.22451496124267578,1.9143779277801514,0.5889939225271754,13.0,136.0,0.0
R,U,"[5, 10]",1.0,7.0,0.26012301445007324,1.8816699981689453,0.5208435317801401,13.0,137.0,0.0
R,U,"[4, 10]",1.0,8.0,0.2618129253387451,1.6651899814605713,0.30307161145350864,13.0,138.0,0.0
B,L,"[4, 9]",1.0,9.0,0.274033784866333,1.6668689250946045,0.3033507937634322,13.0,139.0,0.0
R,U,"[3, 9]",1.0,10.0,0.22463512420654297,1.9639909267425537,0.6336277134416849,13.0,140.0,0.0
,,"(6, 6)",,,,,,,,
R,U,"[5, 6]",1.0,1.0,0.2978348731994629,2.5985782146453857,0.6658774061521968,14.0,141.0,0.0
Y,R,"[5, 7]",1.0,2.0,0.24185919761657715,2.0568630695343018,0.7058994503416804,14.0,142.0,0.0
Y,R,"[5, 8]",1.0,3.0,0.21906399726867676,2.006700038909912,0.6959852289574657,14.0,143.0,0.0
G,D,"[6, 8]",1.0,4.0,0.2313230037689209,1.9211030006408691,0.5840603187994962,14.0,144.0,0.0
Y,R,"[6, 9]",1.0,5.0,0.2357778549194336,1.995192050933838,0.6625220822352579,14.0,145.0,0.0
Y,R,"[6, 10]",1.0,6.0,0.220811128616333,1.6286609172821045,0.2912364634621143,14.0,146.0,0.0
R,U,"[5, 10]",1.0,7.0,0.28809690475463867,2.0589048862457275,0.6834942631100418,14.0,147.0,0.0
R,U,"[4, 10]",1.0,8.0,0.25168299674987793,1.8400678634643555,0.4906146573233548,14.0,148.0,0.0
B,L,"[4, 9]",1.0,9.0,0.26865696907043457,1.9834368228912354,0.6238846626882694,14.0,149.0,0.0
R,U,"[3, 9]",1.0,10.0,0.23026204109191895,1.6615400314331055,0.3357892844164772,14.0,150.0,0.0
,,"(6, 6)",,,,,,,,
R,U,"[5, 6]",1.0,1.0,0.32086896896362305,2.5960450172424316,0.6651167155665292,15.0,151.0,0.0
Y,R,"[5, 7]",1.0,2.0,0.1906750202178955,1.7468571662902832,0.4453873273726051,15.0,152.0,0.0
Y,R,"[5, 8]",1.0,3.0,0.2655911445617676,2.027819871902466,0.6730463771913424,15.0,153.0,0.0
G,D,"[6, 8]",1.0,4.0,0.22009992599487305,1.7089710235595703,0.3990578450759156,15.0,154.0,0.0
Y,R,"[6, 9]",1.0,5.0,0.21536898612976074,1.591310977935791,0.27397399650846865,15.0,155.0,0.0
Y,R,"[6, 10]",1.0,6.0,0.24208807945251465,1.8960719108581543,0.5530376302446458,15.0,156.0,0.0
R,U,"[5, 10]",1.0,7.0,0.22734713554382324,1.7870008945465088,0.4568756553445875,15.0,157.0,0.0
R,U,"[4, 10]",1.0,8.0,0.2379469871520996,1.8114898204803467,0.4683022070689031,15.0,158.0,0.0
B,L,"[4, 9]",1.0,9.0,0.22668886184692383,1.729814052581787,0.3983739047199272,15.0,159.0,0.0
R,U,"[3, 9]",1.0,10.0,0.2462759017944336,2.061458110809326,0.7095879317925712,15.0,160.0,0.0
,,"(6, 6)",,,,,,,,
R,U,"[5, 6]",1.0,1.0,0.416607141494751,2.9068961143493652,0.46687863539298646,16.0,161.0,0.0
Y,R,"[5, 7]",1.0,2.0,0.2128429412841797,1.7868781089782715,0.47055725037984464,16.0,162.0,0.0
Y,R,"[5, 8]",1.0,3.0,0.22609901428222656,1.5809621810913086,0.2517214159859751,16.0,163.0,0.0
G,D,"[6, 8]",1.0,4.0,0.2252349853515625,1.6216650009155273,0.2900754230141184,16.0,164.0,0.0
Y,R,"[6, 9]",1.0,5.0,0.23784613609313965,1.958846092224121,0.6319861069813157,16.0,165.0,0.0
Y,R,"[6, 10]",1.0,6.0,0.21272587776184082,1.8509581089019775,0.5330222167787821,16.0,166.0,0.0
R,U,"[5, 10]",1.0,7.0,0.2127687931060791,1.8684420585632324,0.5515311906938707,16.0,167.0,0.0
R,U,"[4, 10]",1.0,8.0,0.23235392570495605,1.7400281429290771,0.4084582461220892,16.0,168.0,0.0
B,L,"[4, 9]",1.0,9.0,0.25081419944763184,1.730910062789917,0.3894582406309758,16.0,169.0,0.0
R,U,"[3, 9]",1.0,10.0,0.22960305213928223,1.9957561492919922,0.6682854177391975,16.0,170.0,0.0
,,"(6, 6)",,,,,,,,
R,U,"[5, 6]",1.0,1.0,0.37206101417541504,3.281769037246704,0.7168998682292067,17.0,171.0,0.0
Y,R,"[5, 7]",1.0,2.0,0.1963942050933838,1.8310790061950684,0.5314422836211747,17.0,172.0,0.0
Y,R,"[5, 8]",1.0,3.0,0.19446492195129395,1.805088996887207,0.5033096428461947,17.0,173.0,0.0
G,D,"[6, 8]",1.0,4.0,0.21736502647399902,1.6693971157073975,0.3562704820956961,17.0,174.0,0.0
Y,R,"[6, 9]",1.0,5.0,0.22471094131469727,1.7405149936676025,0.41342786570833456,17.0,175.0,0.0
Y,R,"[6, 10]",1.0,6.0,0.2227940559387207,2.0419249534606934,0.7051452324543339,17.0,176.0,0.0
R,U,"[5, 10]",1.0,7.0,0.23538684844970703,1.9090659618377686,0.5811278878351265,17.0,177.0,0.0
R,U,"[4, 10]",1.0,8.0,0.2158679962158203,2.035346031188965,0.7163903599352769,17.0,178.0,0.0
B,L,"[4, 9]",1.0,9.0,0.2109081745147705,2.045804023742676,0.7288974860594,17.0,179.0,0.0
R,U,"[3, 9]",1.0,10.0,0.2294778823852539,1.9151239395141602,0.5605500277370092,17.0,180.0,0.0
,,"(6, 6)",,,,,,,,
R,U,"[5, 6]",1.0,1.0,0.32104992866516113,2.7111339569091797,0.555562726761031,18.0,181.0,0.0
Y,R,"[5, 7]",1.0,2.0,0.18096089363098145,1.7073218822479248,0.4296714061521598,18.0,182.0,0.0
Y,R,"[5, 8]",1.0,3.0,0.22060489654541016,1.6225731372833252,0.3023249685869693,18.0,183.0,0.0
G,D,"[6, 8]",1.0,4.0,0.2411191463470459,1.940770149230957,0.5929829655067336,18.0,184.0,0.0
Y,R,"[6, 9]",1.0,5.0,0.1976170539855957,1.5681941509246826,0.27813549339450955,18.0,185.0,0.0
Y,R,"[6, 10]",1.0,6.0,0.21121883392333984,1.6644160747528076,0.35929131779923584,18.0,186.0,0.0
R,U,"[5, 10]",1.0,7.0,0.2616889476776123,1.759303092956543,0.40182227130489007,18.0,187.0,0.0
R,U,"[4, 10]",1.0,8.0,0.21780109405517578,1.5699520111083984,0.2553098707591109,18.0,188.0,0.0
B,L,"[4, 9]",1.0,9.0,0.25310397148132324,1.701490879058838,0.35669892158383415,18.0,189.0,0.0
R,U,"[3, 9]",1.0,10.0,0.2082059383392334,1.9046518802642822,0.5945479581704862,18.0,190.0,0.0
,,"(6, 6)",,,,,,,,
R,U,"[5, 6]",1.0,1.0,0.31700682640075684,2.4957988262176514,0.5570874367657467,19.0,191.0,0.0
Y,R,"[5, 7]",1.0,2.0,0.2265331745147705,1.7427198886871338,0.4167070940430375,19.0,192.0,0.0
Y,R,"[5, 8]",1.0,3.0,0.21834897994995117,1.856339931488037,0.5396239377595544,19.0,193.0,0.0
G,D,"[6, 8]",1.0,4.0,0.21853303909301758,1.7243402004241943,0.4142300733440655,19.0,194.0,0.0
Y,R,"[6, 9]",1.0,5.0,0.23317909240722656,1.6618139743804932,0.3260216859634742,19.0,195.0,0.0
Y,R,"[6, 10]",1.0,6.0,0.24729490280151367,1.6544699668884277,0.314055180372431,19.0,196.0,0.0
R,U,"[5, 10]",1.0,7.0,0.27513790130615234,2.103883981704712,0.7174524743820343,19.0,197.0,0.0
R,U,"[4, 10]",1.0,8.0,0.24568510055541992,1.904897928237915,0.5558626095594397,19.0,198.0,0.0
B,L,"[4, 9]",1.0,9.0,0.24777698516845703,1.9354259967803955,0.5913865083848191,19.0,199.0,0.0
R,U,"[3, 9]",1.0,10.0,0.22648215293884277,1.7487549781799316,0.42374772674954325,19.0,200.0,0.0
,,"(6, 6)",,,,,,,,
R,U,"[5, 6]",1.0,1.0,0.5137138366699219,3.1393401622772217,0.5132182419176552,20.0,201.0,0.0
Y,R,"[5, 7]",1.0,2.0,0.2289259433746338,1.622567892074585,0.2860005390169187,20.0,202.0,0.0
Y,R,"[5, 8]",1.0,3.0,0.22106695175170898,2.061850070953369,0.7474613291271508,20.0,203.0,0.0
G,D,"[6, 8]",1.0,4.0,0.18441390991210938,2.0153770446777344,0.7294681138888166,20.0,204.0,0.0
Y,R,"[6, 9]",1.0,5.0,0.1950531005859375,1.7549421787261963,0.45144402531776395,20.0,205.0,0.0
Y,R,"[6, 10]",1.0,6.0,0.23010993003845215,1.9965219497680664,0.6643329993302685,20.0,206.0,0.0
R,U,"[5, 10]",1.0,7.0,0.2301938533782959,1.6426458358764648,0.30756416152065597,20.0,207.0,0.0
R,U,"[4, 10]",1.0,8.0,0.23964691162109375,1.9339168071746826,0.5913089446205435,20.0,208.0,0.0
B,L,"[4, 9]",1.0,9.0,0.21039605140686035,1.9750628471374512,0.6661548564724975,20.0,209.0,0.0
R,U,"[3, 9]",1.0,10.0,0.2153618335723877,1.951833963394165,0.6347604832169522,20.0,210.0,0.0
,,"(6, 6)",,,,,,,,
R,U,"[5, 6]",1.0,1.0,0.5143508911132812,2.573674201965332,0.30919892369337915,21.0,211.0,0.0
Y,R,"[5, 7]",1.0,2.0,0.35698604583740234,1.8672988414764404,0.42608183407560296,21.0,212.0,0.0
Y,R,"[5, 8]",1.0,3.0,0.21809792518615723,2.0128650665283203,0.7055025430629325,21.0,213.0,0.0
G,D,"[6, 8]",1.0,4.0,0.2339320182800293,1.9324769973754883,0.6046646983589217,21.0,214.0,0.0
Y,R,"[6, 9]",1.0,5.0,0.1990809440612793,2.0394539833068848,0.7441105272980522,21.0,215.0,0.0
Y,R,"[6, 10]",1.0,6.0,0.249039888381958,1.8275160789489746,0.48867394122889823,21.0,216.0,0.0
R,U,"[5, 10]",1.0,7.0,0.32663607597351074,1.8474040031433105,0.41935668614092136,21.0,217.0,0.0
R,U,"[4, 10]",1.0,8.0,0.2657458782196045,1.8760769367218018,0.512235819150661,21.0,218.0,0.0
B,L,"[4, 9]",1.0,9.0,0.2223830223083496,1.882249116897583,0.5609626742429872,21.0,219.0,0.0
R,U,"[3, 9]",1.0,10.0,0.21198391914367676,1.8207881450653076,0.5153376701564507,21.0,220.0,0.0
,,"(6, 6)",,,,,,,,
R,U,"[5, 6]",1.0,1.0,0.4282200336456299,3.00520396232605,0.47047062557429536,22.0,221.0,0.0
Y,R,"[5, 7]",1.0,2.0,0.20125198364257812,1.8813250064849854,0.5851733693858603,22.0,222.0,0.0
Y,R,"[5, 8]",1.0,3.0,0.20254993438720703,1.743377923965454,0.4455272126630694,22.0,223.0,0.0
G,D,"[6, 8]",1.0,4.0,0.209089994430542,1.6252899169921875,0.32094744694488675,22.0,224.0,0.0
Y,R,"[6, 9]",1.0,5.0,0.22445917129516602,1.635787010192871,0.30657579623623743,22.0,225.0,0.0
Y,R,"[6, 10]",1.0,6.0,0.20554399490356445,1.855708122253418,0.5290329610330574,22.0,226.0,0.0
R,U,"[5, 10]",1.0,7.0,0.23015308380126953,2.02054500579834,0.6993461994401882,22.0,227.0,0.0
R,U,"[4, 10]",1.0,8.0,0.22581911087036133,1.7231371402740479,0.38950447950092015,22.0,228.0,0.0
B,L,"[4, 9]",1.0,9.0,0.23282694816589355,1.7229979038238525,0.3959245103062527,22.0,229.0,0.0
R,U,"[3, 9]",1.0,10.0,0.23909497261047363,1.993988037109375,0.6563507216784754,22.0,230.0,0.0
,,"(6, 6)",,,,,,,,
R,U,"[5, 6]",1.0,1.0,0.3725860118865967,4.868438959121704,0.30850865179386217,23.0,231.0,0.0
Y,R,"[5, 7]",1.0,2.0,0.25468897819519043,2.0602099895477295,0.7017053035502171,23.0,232.0,0.0
Y,R,"[5, 8]",1.0,3.0,0.17922091484069824,1.5847811698913574,0.30357160081787665,23.0,233.0,0.0
G,D,"[6, 8]",1.0,4.0,0.2458651065826416,2.000905990600586,0.6541492944713589,23.0,234.0,0.0
Y,R,"[6, 9]",1.0,5.0,0.19639801979064941,2.0358428955078125,0.7399977932847971,23.0,235.0,0.0
Y,R,"[6, 10]",1.0,6.0,0.41960716247558594,1.8084280490875244,0.2988595477388347,23.0,236.0,0.0
R,U,"[5, 10]",1.0,7.0,0.3380899429321289,1.7595138549804688,0.32510894237205096,23.0,237.0,0.0
R,U,"[4, 10]",1.0,8.0,0.29432010650634766,1.693619966506958,0.30214728580800104,23.0,238.0,0.0
B,L,"[4, 9]",1.0,9.0,0.24622583389282227,1.762911081314087,0.41508173413283883,23.0,239.0,0.0
R,U,"[3, 9]",1.0,10.0,0.4163851737976074,2.2510881423950195,0.7322831673706958,23.0,240.0,0.0
,,"(6, 6)",,,,,,,,
R,U,"[5, 6]",1.0,1.0,0.3200080394744873,2.1342740058898926,0.35068766108833177,24.0,241.0,0.0
Y,R,"[5, 7]",1.0,2.0,0.256267786026001,1.8213481903076172,0.45527516945773544,24.0,242.0,0.0
Y,R,"[5, 8]",1.0,3.0,0.25465917587280273,1.8186190128326416,0.47376326993676643,24.0,243.0,0.0
G,D,"[6, 8]",1.0,4.0,0.2650330066680908,1.8741581439971924,0.514606885339077,24.0,244.0,0.0
Y,R,"[6, 9]",1.0,5.0,0.24176979064941406,1.794809103012085,0.44298674761313356,24.0,245.0,0.0
Y,R,"[6, 10]",1.0,6.0,0.28346681594848633,1.9089031219482422,0.535068298174754,24.0,246.0,0.0
R,U,"[5, 10]",1.0,7.0,0.2090599536895752,1.8657000064849854,0.550909632944014,24.0,247.0,0.0
R,U,"[4, 10]",1.0,8.0,0.21728897094726562,1.960805892944336,0.6449591284527556,24.0,248.0,0.0
B,L,"[4, 9]",1.0,9.0,0.2203369140625,1.8851699829101562,0.5801768011616864,24.0,249.0,0.0
R,U,"[3, 9]",1.0,10.0,0.214555025100708,1.9393301010131836,0.6195079574520885,24.0,250.0,0.0
,,"(6, 6)",,,,,,,,
R,U,"[5, 6]",1.0,1.0,0.4179811477661133,2.6350440979003906,0.737812533049999,25.0,251.0,0.0
Y,R,"[5, 7]",1.0,2.0,0.2890191078186035,1.9304430484771729,0.5351583286500207,25.0,252.0,0.0
Y,R,"[5, 8]",1.0,3.0,0.2698171138763428,1.9597711563110352,0.5948991705502011,25.0,253.0,0.0
G,D,"[6, 8]",1.0,4.0,0.22282099723815918,1.9748539924621582,0.6531033645640462,25.0,254.0,0.0
Y,R,"[6, 9]",1.0,5.0,0.2153770923614502,1.7083609104156494,0.3950616039165252,25.0,255.0,0.0
Y,R,"[6, 10]",1.0,6.0,0.25170302391052246,1.851853847503662,0.5134792734974889,25.0,256.0,0.0
R,U,"[5, 10]",1.0,7.0,0.20307111740112305,1.6362779140472412,0.333452900636485,25.0,257.0,0.0
R,U,"[4, 10]",1.0,8.0,0.26271605491638184,1.6527650356292725,0.2862947291850079,25.0,258.0,0.0
B,L,"[4, 9]",1.0,9.0,0.2217869758605957,2.079029083251953,0.7480072916643088,25.0,259.0,0.0
R,U,"[3, 9]",1.0,10.0,0.235565185546875,1.679318904876709,0.34465829539496334,25.0,260.0,0.0
,,"(6, 6)",,,,,,,,
R,U,"[5, 6]",1.0,1.0,0.31958508491516113,2.6676418781280518,0.6785776302650537,26.0,261.0,0.0
Y,R,"[5, 7]",1.0,2.0,0.20541810989379883,1.6377708911895752,0.31695089397560966,26.0,262.0,0.0
Y,R,"[5, 8]",1.0,3.0,0.2602999210357666,1.9936628341674805,0.6268522460993506,26.0,263.0,0.0
G,D,"[6, 8]",1.0,4.0,0.2851128578186035,1.75730299949646,0.3844718659750322,26.0,264.0,0.0
Y,R,"[6, 9]",1.0,5.0,0.2272169589996338,1.6216099262237549,0.28951639199094403,26.0,265.0,0.0
Y,R,"[6, 10]",1.0,6.0,0.2077479362487793,1.7423820495605469,0.4318572652931113,26.0,266.0,0.0
R,U,"[5, 10]",1.0,7.0,0.23493599891662598,2.0508921146392822,0.7157872142321009,26.0,267.0,0.0
R,U,"[4, 10]",1.0,8.0,0.2330169677734375,2.0009219646453857,0.6668643552021747,26.0,268.0,0.0
B,L,"[4, 9]",1.0,9.0,0.33112597465515137,2.1690292358398438,0.7355321606489637,26.0,269.0,0.0
R,U,"[3, 9]",1.0,10.0,0.2987630367279053,1.9696650505065918,0.5723281424521645,26.0,270.0,0.0
,,"(6, 6)",,,,,,,,
R,U,"[5, 6]",1.0,1.0,0.29536986351013184,2.205904006958008,0.3618381110512556,27.0,271.0,0.0
Y,R,"[5, 7]",1.0,2.0,0.24397587776184082,2.0813369750976562,0.7427343149047569,27.0,272.0,0.0
Y,R,"[5, 8]",1.0,3.0,0.22970795631408691,1.7129499912261963,0.3894346504116777,27.0,273.0,0.0
G,D,"[6, 8]",1.0,4.0,0.2359309196472168,1.843181848526001,0.515959287130479,27.0,274.0,0.0
Y,R,"[6, 9]",1.0,5.0,0.21004009246826172,1.9934320449829102,0.6758285640222752,27.0,275.0,0.0
Y,R,"[6, 10]",1.0,6.0,0.21191191673278809,1.8776249885559082,0.5702738004637962,27.0,276.0,0.0
R,U,"[5, 10]",1.0,7.0,0.2423720359802246,2.083400011062622,0.7370305926085055,27.0,277.0,0.0
R,U,"[4, 10]",1.0,8.0,0.24686193466186523,1.992825984954834,0.6465077906359594,27.0,278.0,0.0
B,L,"[4, 9]",1.0,9.0,0.2234048843383789,2.044011116027832,0.7071846000531525,27.0,279.0,0.0
R,U,"[3, 9]",1.0,10.0,0.22426700592041016,1.9372460842132568,0.6112431945358623,27.0,280.0,0.0
,,"(6, 6)",,,,,,,,
R,U,"[5, 6]",1.0,1.0,0.3053750991821289,2.3756890296936035,0.3371247012766576,28.0,281.0,0.0
Y,R,"[5, 7]",1.0,2.0,0.23432397842407227,1.7554619312286377,0.4260121234691699,28.0,282.0,0.0
Y,R,"[5, 8]",1.0,3.0,0.2325429916381836,1.900679111480713,0.5766409225238279,28.0,283.0,0.0
G,D,"[6, 8]",1.0,4.0,0.2118840217590332,1.5916979312896729,0.2852725421765921,28.0,284.0,0.0
Y,R,"[6, 9]",1.0,5.0,0.23186993598937988,1.9372849464416504,0.6057058986080768,28.0,285.0,0.0
Y,R,"[6, 10]",1.0,6.0,0.22444415092468262,1.7426228523254395,0.4152458402548229,28.0,286.0,0.0
R,U,"[5, 10]",1.0,7.0,0.46042299270629883,1.926820993423462,0.3587600200458319,28.0,287.0,0.0
R,U,"[4, 10]",1.0,8.0,0.2590479850769043,1.9597139358520508,0.6015706025761944,28.0,288.0,0.0
B,L,"[4, 9]",1.0,9.0,0.22254204750061035,1.8723349571228027,0.5405506831940176,28.0,289.0,0.0
R,U,"[3, 9]",1.0,10.0,0.21966886520385742,1.5834441184997559,0.27439372902397513,28.0,290.0,0.0
,,"(6, 6)",,,,,,,,
R,U,"[5, 6]",1.0,1.0,0.3008110523223877,2.6605191230773926,0.551518185452391,29.0,291.0,0.0
Y,R,"[5, 7]",1.0,2.0,0.20693588256835938,1.6753439903259277,0.3602084705406519,29.0,292.0,0.0
Y,R,"[5, 8]",1.0,3.0,0.22515416145324707,1.7767071723937988,0.4536324599819725,29.0,293.0,0.0
G,D,"[6, 8]",1.0,4.0,0.2098240852355957,1.740117073059082,0.42707994256280396,29.0,294.0,0.0
Y,R,"[6, 9]",1.0,5.0,0.19174885749816895,1.9914979934692383,0.7016469812631722,29.0,295.0,0.0
Y,R,"[6, 10]",1.0,6.0,0.21685099601745605,1.837796926498413,0.523062390728041,29.0,296.0,0.0
R,U,"[5, 10]",1.0,7.0,0.2665131092071533,1.897284984588623,0.537055548383309,29.0,297.0,0.0
R,U,"[4, 10]",1.0,8.0,0.2250380516052246,1.8527090549468994,0.5230196336754245,29.0,298.0,0.0
B,L,"[4, 9]",1.0,9.0,0.2665090560913086,1.8189551830291748,0.45881744807810604,29.0,299.0,0.0
R,U,"[3, 9]",1.0,10.0,0.22992396354675293,1.6886510848999023,0.36399877508758105,29.0,300.0,0.0
,,"(6, 6)",,,,,,,,
R,U,"[5, 6]",-999.0,0.0,0.3172948360443115,3.1506412029266357,0.3483772646151028,30.0,301.0,-4.0
Y,R,"[5, 7]",-999.0,0.0,0.6152548789978027,2.042703866958618,0.3245291670745161,30.0,302.0,-4.0
Y,R,"[5, 8]",-999.0,0.0,0.4147961139678955,2.080798864364624,0.5716745305607105,30.0,303.0,-4.0
G,D,"[6, 8]",-999.0,0.0,0.7275550365447998,2.0923330783843994,0.2644219546208296,30.0,304.0,-4.0
Y,R,"[6, 9]",-999.0,0.0,0.5635998249053955,2.05480694770813,0.3857545176098417,30.0,305.0,-4.0
Y,R,"[6, 10]",-999.0,0.0,0.297011137008667,2.048341989517212,0.6505084129622475,30.0,306.0,-4.0
R,U,"[5, 10]",-999.0,0.0,0.37773609161376953,2.231281042098999,0.7484474839783397,30.0,307.0,-4.0
R,U,"[4, 10]",-999.0,0.0,0.3505229949951172,2.0752999782562256,0.623937926651972,30.0,308.0,-4.0
R,U,"[3, 10]",-999.0,0.0,0.2898569107055664,1.8973009586334229,0.5213160921794304,30.0,309.0,-4.0
R,U,"[2, 10]",-999.0,0.0,0.8844430446624756,2.4014840126037598,0.422950398686788,30.0,310.0,1.0
,,"(6, 6)",,,,,,,,
R,U,"[5, 6]",-999.0,0.0,0.39876484870910645,5.313126087188721,0.6192761442624497,31.0,311.0,-4.0
Y,R,"[5, 7]",-999.0,0.0,0.22176003456115723,1.8693649768829346,0.5555058116515147,31.0,312.0,-4.0
Y,R,"[5, 8]",-999.0,0.0,0.1951580047607422,2.0218989849090576,0.7272184944795623,31.0,313.0,-4.0
R,U,"[4, 8]",-999.0,0.0,0.4713590145111084,2.0186450481414795,0.46273420194137554,31.0,314.0,-4.0
R,U,"[3, 8]",-999.0,0.0,0.7431910037994385,2.274001121520996,0.4202236891966477,31.0,315.0,1.0
,,"(6, 6)",,,,,,,,
B,L,"[3, 8]",-999.0,0.0,0.9830350875854492,6.328536033630371,0.4152919680418514,32.0,316.0,-5.0
B,L,"[3, 8]",-999.0,0.0,0.5541341304779053,1.9393560886383057,0.28839709964725535,32.0,317.0,-5.0
R,U,"[3, 8]",-999.0,0.0,0.41039204597473145,2.2360777854919434,0.7240459566552716,32.0,318.0,-5.0
R,U,"[3, 8]",-999.0,0.0,0.33792805671691895,2.1693410873413086,0.7434085134871807,32.0,319.0,-5.0
B,L,"[3, 7]",-2.0,0.0,1.4741439819335938,2.7878620624542236,0.29841271037911365,32.0,320.0,1.0
,,"(6, 6)",,,,,,,,
R,U,"[5, 6]",-2.0,0.0,1.1681509017944336,6.350344896316528,0.7488373647776704,33.0,321.0,0.0
R,U,"[4, 6]",0.0,0.0,0.3696160316467285,2.0414228439331055,0.5734480769837824,33.0,322.0,0.0
Y,R,"[4, 7]",0.0,0.0,0.4702270030975342,1.9088120460510254,0.34909320691756823,33.0,323.0,0.0
Y,R,"[4, 8]",0.0,0.0,0.28566503524780273,2.1103711128234863,0.7258520557309961,33.0,324.0,0.0
R,U,"[3, 8]",0.0,0.0,0.23684120178222656,1.9559531211853027,0.6318152221360438,33.0,325.0,0.0
G,D,"[4, 8]",0.0,0.0,0.5090742111206055,1.9222121238708496,0.30445792729995963,33.0,326.0,0.0
B,L,"[4, 7]",0.0,0.0,0.24132180213928223,1.6859540939331055,0.3404097292102585,33.0,327.0,0.0
Y,R,"[4, 8]",0.0,0.0,0.32442498207092285,2.0316691398620605,0.6050883265279909,33.0,328.0,0.0
Y,R,"[4, 9]",1.0,1.0,0.207183837890625,1.8535549640655518,0.5421715413999915,33.0,329.0,0.0
Y,R,"[4, 10]",1.0,2.0,0.4218940734863281,2.1191699504852295,0.611207341011456,33.0,330.0,0.0
,,"(6, 6)",,,,,,,,
R,U,"[5, 6]",1.0,1.0,0.35016489028930664,5.360109090805054,0.48826119508949856,34.0,331.0,0.0
Y,R,"[5, 7]",1.0,2.0,0.210982084274292,1.9459140300750732,0.6341444672114314,34.0,332.0,0.0
Y,R,"[5, 8]",1.0,3.0,0.19299697875976562,2.0101521015167236,0.7109224422497481,34.0,333.0,0.0
G,D,"[6, 8]",1.0,4.0,0.22935986518859863,1.6519181728363037,0.32988320013989303,34.0,334.0,0.0
Y,R,"[6, 9]",1.0,5.0,0.2237708568572998,2.0318620204925537,0.6947409783509643,34.0,335.0,0.0
Y,R,"[6, 10]",1.0,6.0,0.22412800788879395,2.031346082687378,0.7094269006472242,34.0,336.0,0.0
R,U,"[5, 10]",1.0,7.0,0.34186506271362305,2.060192108154297,0.6196765725679718,34.0,337.0,0.0
R,U,"[4, 10]",1.0,8.0,0.2159440517425537,1.8066048622131348,0.4932426276792055,34.0,338.0,0.0
B,L,"[4, 9]",1.0,9.0,0.22116804122924805,1.7005200386047363,0.37718185503066276,34.0,339.0,0.0
R,U,"[3, 9]",1.0,10.0,0.26110100746154785,1.7031030654907227,0.3469806666789565,34.0,340.0,0.0
,,"(6, 6)",,,,,,,,
R,U,"[5, 6]",-999.0,0.0,0.5487399101257324,3.31197190284729,0.5587861521069553,35.0,341.0,-4.0
Y,R,"[5, 7]",-999.0,0.0,0.2958858013153076,1.7424349784851074,0.3515015803138461,35.0,342.0,-4.0
Y,R,"[5, 8]",-999.0,0.0,0.3375821113586426,1.9213249683380127,0.4893110418553225,35.0,343.0,-4.0
R,U,"[4, 8]",-999.0,0.0,0.5700380802154541,2.17482590675354,0.514179117326461,35.0,344.0,-4.0
R,U,"[3, 8]",-999.0,0.0,0.9057588577270508,2.6319420337677,0.6295426370051711,35.0,345.0,1.0
,,"(6, 6)",,,,,,,,
R,U,"[5, 6]",1.0,1.0,0.6578631401062012,4.055269956588745,0.5016071409774189,36.0,346.0,0.0
Y,R,"[5, 7]",1.0,2.0,0.21868515014648438,1.687520980834961,0.37254597759191477,36.0,347.0,0.0
Y,R,"[5, 8]",1.0,3.0,0.21854209899902344,1.6698319911956787,0.35909123955739397,36.0,348.0,0.0
G,D,"[6, 8]",1.0,4.0,0.23012018203735352,1.8210320472717285,0.49667022054780463,36.0,349.0,0.0
Y,R,"[6, 9]",1.0,5.0,0.20383691787719727,2.0095129013061523,0.7060193718998798,36.0,350.0,0.0
,,"(6, 6)",,,,,,,,
G,D,"[6, 9]",-999.0,0.0,0.7926578521728516,5.649638891220093,0.3394300841212662,37.0,351.0,-5.0
G,D,"[6, 9]",-999.0,0.0,0.5836091041564941,1.995527982711792,0.3183392948632699,37.0,352.0,-5.0
G,D,"[6, 9]",-999.0,0.0,0.37778306007385254,2.006333112716675,0.5245718634955795,37.0,353.0,-5.0
B,L,"[6, 9]",-999.0,0.0,0.6267790794372559,2.4259140491485596,0.7001790246301551,37.0,354.0,-5.0
B,L,"[6, 9]",-999.0,0.0,0.3745899200439453,2.1382150650024414,0.6385447590587587,37.0,355.0,-5.0
R,U,"[6, 9]",-999.0,0.0,0.6595919132232666,2.388674020767212,0.62737906445539,37.0,356.0,-5.0
R,U,"[6, 9]",-999.0,0.0,0.3211100101470947,2.043632984161377,0.637580798738337,37.0,357.0,-5.0
B,L,"[6, 9]",-999.0,0.0,0.41702890396118164,1.8547871112823486,0.3426829440679916,37.0,358.0,-5.0
B,L,"[6, 9]",-999.0,0.0,0.31421899795532227,1.949674129486084,0.5422019716900781,37.0,359.0,-5.0
R,U,"[5, 9]",-2.0,0.0,1.1783089637756348,2.8385231494903564,0.630774073218062,37.0,360.0,1.0
,,"(6, 6)",,,,,,,,
R,U,"[5, 6]",1.0,1.0,0.45021820068359375,3.564605951309204,0.4954735229712157,38.0,361.0,0.0
Y,R,"[5, 7]",1.0,2.0,0.20557093620300293,1.7022287845611572,0.3979199929562413,38.0,362.0,0.0
Y,R,"[5, 8]",1.0,3.0,0.20391607284545898,1.5634329319000244,0.2614307718295364,38.0,363.0,0.0
G,D,"[6, 8]",1.0,4.0,0.28489208221435547,1.8826701641082764,0.5104816936263256,38.0,364.0,0.0
Y,R,"[6, 9]",1.0,5.0,0.22305607795715332,1.941586971282959,0.6187167568839147,38.0,365.0,0.0
Y,R,"[6, 10]",1.0,6.0,0.20893502235412598,2.0358238220214844,0.7211568573612732,38.0,366.0,0.0
R,U,"[5, 10]",1.0,7.0,0.2608768939971924,1.9583189487457275,0.5963514715007519,38.0,367.0,0.0
R,U,"[4, 10]",1.0,8.0,0.23186612129211426,2.004394054412842,0.6673708920246114,38.0,368.0,0.0
B,L,"[4, 9]",1.0,9.0,0.22799301147460938,2.040649890899658,0.7080042524287272,38.0,369.0,0.0
R,U,"[3, 9]",1.0,10.0,0.20577001571655273,1.5892808437347412,0.28102020192055605,38.0,370.0,0.0
,,"(6, 6)",,,,,,,,
R,U,"[5, 6]",1.0,1.0,0.6397109031677246,3.212740898132324,0.47680824455101667,39.0,371.0,0.0
Y,R,"[5, 7]",1.0,2.0,0.226790189743042,2.041301965713501,0.718065123564311,39.0,372.0,0.0
Y,R,"[5, 8]",1.0,3.0,0.19808387756347656,1.9247980117797852,0.6257001387141526,39.0,373.0,0.0
G,D,"[6, 8]",1.0,4.0,0.21326804161071777,1.5869619846343994,0.28036281377310845,39.0,374.0,0.0
Y,R,"[6, 9]",1.0,5.0,0.21744084358215332,1.6931869983673096,0.3733244192967357,39.0,375.0,0.0
Y,R,"[6, 10]",1.0,6.0,0.22009801864624023,1.6839258670806885,0.3740271325599304,39.0,376.0,0.0
R,U,"[5, 10]",1.0,7.0,0.21683788299560547,1.8118810653686523,0.5024033176569659,39.0,377.0,0.0
R,U,"[4, 10]",1.0,8.0,0.20431900024414062,1.9156219959259033,0.6178939899489713,39.0,378.0,0.0
B,L,"[4, 9]",1.0,9.0,0.21577191352844238,1.6827328205108643,0.36773023595971305,39.0,379.0,0.0
R,U,"[3, 9]",1.0,10.0,0.19447612762451172,1.7090818881988525,0.41004017343888377,39.0,380.0,0.0
,,"(6, 6)",,,,,,,,
R,U,"[5, 6]",1.0,1.0,0.3852221965789795,2.8510968685150146,0.7441738226782127,40.0,381.0,0.0
Y,R,"[5, 7]",1.0,2.0,0.2065579891204834,1.9839699268341064,0.6782066703785908,40.0,382.0,0.0
Y,R,"[5, 8]",1.0,3.0,0.2061600685119629,1.5679481029510498,0.2632993349058446,40.0,383.0,0.0
G,D,"[6, 8]",1.0,4.0,0.5211429595947266,2.278449058532715,0.6580019199765221,40.0,384.0,0.0
Y,R,"[6, 9]",1.0,5.0,0.20452189445495605,1.742417812347412,0.4507707046741814,40.0,385.0,0.0
Y,R,"[6, 10]",1.0,6.0,0.2233419418334961,1.89109206199646,0.5584280531686542,40.0,386.0,0.0
R,U,"[5, 10]",1.0,7.0,0.2200779914855957,1.6505200862884521,0.3424715450949623,40.0,387.0,0.0
R,U,"[4, 10]",1.0,8.0,0.21936488151550293,1.980515956878662,0.673253356897404,40.0,388.0,0.0
B,L,"[4, 9]",1.0,9.0,0.21199297904968262,1.8046178817749023,0.4942211483009698,40.0,389.0,0.0
R,U,"[3, 9]",1.0,10.0,0.19093108177185059,2.0049898624420166,0.7157053647054037,40.0,390.0,0.0
,,"(6, 6)",,,,,,,,
R,U,"[5, 6]",1.0,1.0,0.4525589942932129,2.9663898944854736,0.665726077363139,41.0,391.0,0.0
Y,R,"[5, 7]",1.0,2.0,0.19282221794128418,1.92171311378479,0.620619953612451,41.0,392.0,0.0
Y,R,"[5, 8]",1.0,3.0,0.202362060546875,1.9037730693817139,0.6078141544759191,41.0,393.0,0.0
G,D,"[6, 8]",1.0,4.0,0.20728802680969238,1.805617094039917,0.4967367850294864,41.0,394.0,0.0
Y,R,"[6, 9]",1.0,5.0,0.1997239589691162,1.557224988937378,0.2541802935362707,41.0,395.0,0.0
Y,R,"[6, 10]",1.0,6.0,0.29042601585388184,2.0490500926971436,0.6528639881931312,41.0,396.0,0.0
R,U,"[5, 10]",1.0,7.0,0.20659399032592773,1.911755084991455,0.61482034079607,41.0,397.0,0.0
R,U,"[4, 10]",1.0,8.0,0.22309494018554688,1.603567123413086,0.2686302111873111,41.0,398.0,0.0
B,L,"[4, 9]",1.0,9.0,0.23265409469604492,1.6585500240325928,0.32718563268820505,41.0,399.0,0.0
R,U,"[3, 9]",1.0,10.0,0.21121001243591309,1.930799961090088,0.6243422999040726,41.0,400.0,0.0
,,"(6, 6)",,,,,,,,
R,U,"[5, 6]",1.0,1.0,0.4861900806427002,2.850196123123169,0.6744774424936912,42.0,401.0,0.0
Y,R,"[5, 7]",1.0,2.0,0.18319010734558105,1.6945099830627441,0.4195221382669768,42.0,402.0,0.0
Y,R,"[5, 8]",1.0,3.0,0.20732593536376953,2.0624780654907227,0.7483359766733727,42.0,403.0,0.0
G,D,"[6, 8]",1.0,4.0,0.22256207466125488,1.716722011566162,0.382024234782449,42.0,404.0,0.0
Y,R,"[6, 9]",1.0,5.0,0.22198891639709473,1.8754549026489258,0.5406980557810663,42.0,405.0,0.0
Y,R,"[6, 10]",1.0,6.0,0.19147992134094238,1.7594189643859863,0.46689966101168645,42.0,406.0,0.0
R,U,"[5, 10]",1.0,7.0,0.24274921417236328,1.676042079925537,0.32639109982898795,42.0,407.0,0.0
R,U,"[4, 10]",1.0,8.0,0.2552299499511719,1.8733160495758057,0.5162430062787895,42.0,408.0,0.0
B,L,"[4, 9]",1.0,9.0,0.2151651382446289,1.7091460227966309,0.39215805316007896,42.0,409.0,0.0
R,U,"[3, 9]",1.0,10.0,0.226837158203125,1.9440701007843018,0.6194831031751102,42.0,410.0,0.0
,,"(6, 6)",,,,,,,,
R,U,"[5, 6]",-999.0,0.0,0.455157995223999,2.8819940090179443,0.6845909717751049,43.0,411.0,-4.0
Y,R,"[5, 7]",-999.0,0.0,0.36298513412475586,1.7497611045837402,0.2848786681810484,43.0,412.0,-4.0
Y,R,"[5, 8]",-999.0,0.0,0.2848200798034668,1.883490800857544,0.5013552039588186,43.0,413.0,-4.0
R,U,"[4, 8]",-999.0,0.0,0.35854291915893555,1.8065450191497803,0.3580752913351681,43.0,414.0,-4.0
Y,R,"[4, 9]",-2.0,0.0,1.211548089981079,2.7449309825897217,0.5029761121685352,43.0,415.0,1.0
,,"(6, 6)",,,,,,,,
R,U,"[5, 6]",1.0,1.0,0.4931681156158447,3.322600841522217,0.3425856584801907,44.0,416.0,0.0
Y,R,"[5, 7]",1.0,2.0,0.24732398986816406,1.8919188976287842,0.5509759551170946,44.0,417.0,0.0
Y,R,"[5, 8]",1.0,3.0,0.2192540168762207,1.9275760650634766,0.6118168756089477,44.0,418.0,0.0
G,D,"[6, 8]",1.0,4.0,0.2506098747253418,1.8350639343261719,0.496933391021355,44.0,419.0,0.0
Y,R,"[6, 9]",1.0,5.0,0.21555709838867188,1.9681060314178467,0.6482632520521991,44.0,420.0,0.0
,,"(6, 6)",,,,,,,,
G,D,"[6, 9]",-999.0,0.0,0.7165539264678955,4.540954828262329,0.35625354106869545,45.0,421.0,-5.0
G,D,"[6, 9]",-999.0,0.0,0.43978309631347656,2.2666900157928467,0.7391494448696493,45.0,422.0,-5.0
G,D,"[6, 9]",-999.0,0.0,0.43723106384277344,1.9964239597320557,0.46935861368990384,45.0,423.0,-5.0
B,L,"[6, 9]",-999.0,0.0,0.7535321712493896,2.29982590675354,0.45211969909507405,45.0,424.0,-5.0
B,L,"[6, 9]",-999.0,0.0,0.41936421394348145,2.039247989654541,0.5249975000820306,45.0,425.0,-5.0
R,U,"[6, 9]",-999.0,0.0,0.5850989818572998,2.0985329151153564,0.4238548703427341,45.0,426.0,-5.0
R,U,"[6, 9]",-999.0,0.0,0.2901039123535156,2.019455909729004,0.643043871957221,45.0,427.0,-5.0
B,L,"[6, 9]",-999.0,0.0,0.54351806640625,1.9166529178619385,0.2767062020481553,45.0,428.0,-5.0
B,L,"[6, 9]",-999.0,0.0,0.28310704231262207,1.7003989219665527,0.32680925574304753,45.0,429.0,-5.0
R,U,"[5, 9]",-999.0,0.0,0.8569848537445068,2.525404930114746,0.5689752970069188,45.0,430.0,1.0
,,"(6, 6)",,,,,,,,
R,U,"[5, 6]",-999.0,0.0,0.5498299598693848,5.230604887008667,0.3499157524475831,46.0,431.0,-4.0
Y,R,"[5, 7]",-999.0,0.0,0.30157017707824707,1.7387847900390625,0.33874530524200513,46.0,432.0,-4.0
Y,R,"[5, 8]",-999.0,0.0,0.22630596160888672,1.8060259819030762,0.47797152262621706,46.0,433.0,-4.0
R,U,"[4, 8]",-999.0,0.0,0.44535088539123535,2.24164080619812,0.7026300534365211,46.0,434.0,-4.0
Y,R,"[4, 9]",-999.0,0.0,0.811427116394043,2.5565600395202637,0.6427263715890195,46.0,435.0,1.0
,,"(6, 6)",,,,,,,,
G,D,"[4, 9]",-999.0,0.0,0.7761960029602051,4.005967140197754,0.4655765302794058,47.0,436.0,-5.0
G,D,"[4, 9]",-999.0,0.0,0.42795681953430176,1.878741979598999,0.34434256284703707,47.0,437.0,-5.0
G,D,"[4, 9]",-999.0,0.0,0.37062501907348633,2.0698201656341553,0.6139012504430807,47.0,438.0,-5.0
B,L,"[4, 9]",-999.0,0.0,0.5321238040924072,1.9018290042877197,0.26612210662242014,47.0,439.0,-5.0
B,L,"[4, 9]",-999.0,0.0,0.23616695404052734,1.7549681663513184,0.42097011990749705,47.0,440.0,-5.0
,,"(6, 6)",,,,,,,,
R,U,"[5, 6]",-999.0,0.0,0.702279806137085,4.047358989715576,0.5018015997365121,48.0,441.0,-4.0
Y,R,"[5, 7]",-999.0,0.0,0.5065701007843018,1.9455060958862305,0.34726943633990126,48.0,442.0,-4.0
Y,R,"[5, 8]",-999.0,0.0,0.34743499755859375,2.1700828075408936,0.7169627899293314,48.0,443.0,-4.0
G,D,"[6, 8]",-999.0,0.0,0.5158038139343262,2.3136348724365234,0.6974642572306491,48.0,444.0,-4.0
Y,R,"[6, 9]",-999.0,0.0,0.28531885147094727,2.065995931625366,0.6801617488049991,48.0,445.0,-4.0
Y,R,"[6, 10]",-999.0,0.0,0.27276611328125,1.9175779819488525,0.5477958109538044,48.0,446.0,-4.0
R,U,"[5, 10]",-999.0,0.0,0.4791998863220215,2.3116679191589355,0.7261696570805891,48.0,447.0,-4.0
R,U,"[4, 10]",-999.0,0.0,0.23110580444335938,1.819674015045166,0.49597200606041036,48.0,448.0,-4.0
R,U,"[3, 10]",-999.0,0.0,0.5036699771881104,2.2130889892578125,0.6090546071670586,48.0,449.0,-4.0
B,L,"[3, 9]",-999.0,0.0,0.5917928218841553,2.003593921661377,0.31291760367565635,48.0,450.0,1.0
,,"(6, 6)",,,,,,,,
B,L,"[3, 9]",-999.0,0.0,0.8881430625915527,5.184905052185059,0.6975692070707522,49.0,451.0,-5.0
B,L,"[3, 9]",-999.0,0.0,0.31096601486206055,2.1382501125335693,0.7190830755866084,49.0,452.0,-5.0
R,U,"[3, 9]",-999.0,0.0,0.41791296005249023,1.9558818340301514,0.4419657587421769,49.0,453.0,-5.0
R,U,"[3, 9]",-999.0,0.0,0.316943883895874,1.8069210052490234,0.39895862617959565,49.0,454.0,-5.0
Y,R,"[3, 10]",-999.0,0.0,0.8643109798431396,2.670926094055176,0.7028218363075326,49.0,455.0,1.0
,,"(6, 6)",,,,,,,,
R,U,"[5, 6]",1.0,1.0,0.48499298095703125,5.806991100311279,0.6934251664488316,50.0,456.0,0.0
Y,R,"[5, 7]",1.0,2.0,0.20812416076660156,1.9088480472564697,0.6022756090564892,50.0,457.0,0.0
Y,R,"[5, 8]",1.0,3.0,0.20546197891235352,1.928666114807129,0.6142506133061293,50.0,458.0,0.0
G,D,"[6, 8]",1.0,4.0,0.19904398918151855,1.938119888305664,0.6356221076256139,50.0,459.0,0.0
Y,R,"[6, 9]",1.0,5.0,0.1980431079864502,1.7347068786621094,0.4374189423471893,50.0,460.0,0.0
,,"(6, 6)",,,,,,,,
R,U,"[5, 6]",-999.0,0.0,0.4156608581542969,4.330846071243286,0.551494950399928,51.0,461.0,-4.0
Y,R,"[5, 7]",-999.0,0.0,0.30074119567871094,1.9626541137695312,0.5641627171459793,51.0,462.0,-4.0
Y,R,"[5, 8]",-999.0,0.0,0.2116990089416504,1.9321200847625732,0.6128716933185253,51.0,463.0,-4.0
G,D,"[6, 8]",-999.0,0.0,0.5944387912750244,2.4251389503479004,0.7211747637720141,51.0,464.0,-4.0
Y,R,"[6, 9]",-999.0,0.0,0.2648289203643799,1.8317968845367432,0.46993765529713605,51.0,465.0,-4.0
Y,R,"[6, 10]",-999.0,0.0,0.20862412452697754,1.8270699977874756,0.5302642506697093,51.0,466.0,-4.0
R,U,"[5, 10]",-999.0,0.0,0.3092799186706543,2.035504102706909,0.6157737207154519,51.0,467.0,-4.0
R,U,"[4, 10]",-999.0,0.0,0.2881038188934326,2.084299087524414,0.6999832169951142,51.0,468.0,-4.0
R,U,"[3, 10]",-999.0,0.0,0.3598909378051758,2.0886340141296387,0.6220534317081433,51.0,469.0,-4.0
Y,R,"[3, 11]",-999.0,0.0,0.5030410289764404,1.9582629203796387,0.3640396702724734,51.0,470.0,1.0
,,"(6, 6)",,,,,,,,
R,U,"[5, 6]",1.0,1.0,0.6454598903656006,4.404489040374756,0.43517085579711384,52.0,471.0,0.0
Y,R,"[5, 7]",1.0,2.0,0.2169640064239502,1.7594990730285645,0.4445730587908598,52.0,472.0,0.0
Y,R,"[5, 8]",1.0,3.0,0.22097015380859375,2.030745029449463,0.7084400034032577,52.0,473.0,0.0
G,D,"[6, 8]",1.0,4.0,0.21170902252197266,1.6586101055145264,0.3508351138249952,52.0,474.0,0.0
Y,R,"[6, 9]",1.0,5.0,0.20608091354370117,1.6980900764465332,0.3823114784354913,52.0,475.0,0.0
Y,R,"[6, 10]",1.0,6.0,0.23615002632141113,1.8399109840393066,0.5052531179161592,52.0,476.0,0.0
R,U,"[5, 10]",1.0,7.0,0.21529006958007812,2.03210711479187,0.7205314945104777,52.0,477.0,0.0
R,U,"[4, 10]",1.0,8.0,0.22418785095214844,2.021415948867798,0.6920244439626095,52.0,478.0,0.0
B,L,"[4, 9]",1.0,9.0,0.21430683135986328,1.5996458530426025,0.29210546158281003,52.0,479.0,0.0
R,U,"[3, 9]",1.0,10.0,0.23236298561096191,1.6947309970855713,0.3700788057332781,52.0,480.0,0.0
,,"(6, 6)",,,,,,,,
R,U,"[5, 6]",-999.0,0.0,0.4035179615020752,2.4476780891418457,0.4508718939837495,53.0,481.0,-4.0
Y,R,"[5, 7]",-999.0,0.0,0.3164350986480713,2.1395390033721924,0.7236443163260506,53.0,482.0,-4.0
Y,R,"[5, 8]",-999.0,0.0,0.23519515991210938,1.6596059799194336,0.3336671599611377,53.0,483.0,-4.0
R,U,"[4, 8]",-999.0,0.0,0.3704061508178711,2.185080051422119,0.7184841224020411,53.0,484.0,-4.0
Y,R,"[4, 9]",-2.0,0.0,1.0610809326171875,2.355818033218384,0.25805511933263364,53.0,485.0,1.0
,,"(6, 6)",,,,,,,,
R,U,"[5, 6]",1.0,1.0,0.5084900856018066,2.9185760021209717,0.27686668745253407,54.0,486.0,0.0
Y,R,"[5, 7]",1.0,2.0,0.277756929397583,2.0593278408050537,0.685654563190588,54.0,487.0,0.0
Y,R,"[5, 8]",1.0,3.0,0.19850707054138184,1.9595189094543457,0.6618594040158765,54.0,488.0,0.0
G,D,"[6, 8]",1.0,4.0,0.2382190227508545,2.032395839691162,0.6942865685306913,54.0,489.0,0.0
Y,R,"[6, 9]",1.0,5.0,0.2050788402557373,1.9848239421844482,0.695744818115255,54.0,490.0,0.0
,,"(6, 6)",,,,,,,,
B,L,"[6, 9]",-999.0,0.0,0.7765688896179199,3.9593701362609863,0.5552579010961013,55.0,491.0,-5.0
B,L,"[6, 9]",-999.0,0.0,0.2872481346130371,2.0110580921173096,0.6330131881134411,55.0,492.0,-5.0
R,U,"[6, 9]",-999.0,0.0,0.5495181083679199,1.9218530654907227,0.27176433492608815,55.0,493.0,-5.0
R,U,"[6, 9]",-999.0,0.0,0.2620890140533447,1.7401890754699707,0.37871347388378246,55.0,494.0,-5.0
B,L,"[6, 8]",-999.0,0.0,0.64192795753479,2.059638023376465,0.30494995810573505,55.0,495.0,1.0
,,"(6, 6)",,,,,,,,
R,U,"[5, 6]",1.0,1.0,0.4654848575592041,4.152354955673218,0.6737123290002809,56.0,496.0,0.0
Y,R,"[5, 7]",1.0,2.0,0.21115899085998535,1.7493219375610352,0.4400172312400965,56.0,497.0,0.0
Y,R,"[5, 8]",1.0,3.0,0.25720906257629395,1.6190099716186523,0.25915730048944785,56.0,498.0,0.0
G,D,"[6, 8]",1.0,4.0,0.25659799575805664,2.0622830390930176,0.7047386444657444,56.0,499.0,0.0
Y,R,"[6, 9]",1.0,5.0,0.20458412170410156,1.7128040790557861,0.4174188459694001,56.0,500.0,0.0
,,"(6, 6)",,,,,,,,
R,U,"[5, 6]",1.0,1.0,0.7744569778442383,4.167661905288696,0.3019960121446011,57.0,501.0,0.0
Y,R,"[5, 7]",1.0,2.0,0.23817992210388184,1.8734841346740723,0.5251429621145425,57.0,502.0,0.0
Y,R,"[5, 8]",1.0,3.0,0.23056697845458984,1.91013503074646,0.5852704562133574,57.0,503.0,0.0
G,D,"[6, 8]",1.0,4.0,0.21790719032287598,1.7391211986541748,0.42466919517582324,57.0,504.0,0.0
Y,R,"[6, 9]",1.0,5.0,0.20455288887023926,1.8628859519958496,0.5706977571953333,57.0,505.0,0.0
Y,R,"[6, 10]",1.0,6.0,0.20175909996032715,1.8754558563232422,0.5794416521307105,57.0,506.0,0.0
R,U,"[5, 10]",1.0,7.0,0.2307109832763672,1.714432954788208,0.3774340648310463,57.0,507.0,0.0
R,U,"[4, 10]",1.0,8.0,0.2296140193939209,1.825118064880371,0.5025909737930545,57.0,508.0,0.0
B,L,"[4, 9]",1.0,9.0,0.2694880962371826,1.6296908855438232,0.2658868149520281,57.0,509.0,0.0
R,U,"[3, 9]",1.0,10.0,0.24724102020263672,1.9985558986663818,0.647367285597507,57.0,510.0,0.0
,,"(6, 6)",,,,,,,,
R,U,"[5, 6]",1.0,1.0,0.6572411060333252,2.8887369632720947,0.28649908918249883,58.0,511.0,0.0
Y,R,"[5, 7]",1.0,2.0,0.21175193786621094,1.7159249782562256,0.4021016839107131,58.0,512.0,0.0
Y,R,"[5, 8]",1.0,3.0,0.20923686027526855,1.6043949127197266,0.2902001898503902,58.0,513.0,0.0
G,D,"[6, 8]",1.0,4.0,0.22564196586608887,1.6452720165252686,0.318736787862073,58.0,514.0,0.0
Y,R,"[6, 9]",1.0,5.0,0.20749902725219727,1.6946280002593994,0.37983570506317765,58.0,515.0,0.0
Y,R,"[6, 10]",1.0,6.0,0.1994459629058838,1.6970558166503906,0.3936871355408705,58.0,516.0,0.0
R,U,"[5, 10]",1.0,7.0,0.25609397888183594,1.8017890453338623,0.4455520871499411,58.0,517.0,0.0
R,U,"[4, 10]",1.0,8.0,0.21347713470458984,1.607802152633667,0.303440869036844,58.0,518.0,0.0
B,L,"[4, 9]",1.0,9.0,0.23034906387329102,1.8200640678405762,0.4900879071353495,58.0,519.0,0.0
R,U,"[3, 9]",1.0,10.0,0.19924592971801758,1.670814037322998,0.37769644276975384,58.0,520.0,0.0
,,"(6, 6)",,,,,,,,
R,U,"[5, 6]",-999.0,0.0,0.49444007873535156,3.447395086288452,0.29187275402963364,59.0,521.0,-4.0
Y,R,"[5, 7]",-999.0,0.0,0.30233097076416016,1.6751492023468018,0.28369870043757134,59.0,522.0,-4.0
Y,R,"[5, 8]",-999.0,0.0,0.19914793968200684,1.8563668727874756,0.5564245474912541,59.0,523.0,-4.0
R,U,"[4, 8]",-999.0,0.0,0.4442460536956787,2.147528886795044,0.6038538804951974,59.0,524.0,-4.0
R,U,"[3, 8]",-999.0,0.0,0.9251270294189453,2.4468698501586914,0.41764029664895524,59.0,525.0,1.0
,,"(6, 6)",,,,,,,,
B,L,"[3, 8]",-999.0,0.0,0.8440799713134766,4.483717918395996,0.5846941993051447,60.0,526.0,-5.0
B,L,"[3, 8]",-999.0,0.0,0.4882237911224365,2.195327043533325,0.6132213196479046,60.0,527.0,-5.0
R,U,"[3, 8]",-999.0,0.0,0.5252511501312256,1.9920618534088135,0.3723452004866678,60.0,528.0,-5.0
R,U,"[3, 8]",-999.0,0.0,0.39702296257019043,1.8616490364074707,0.3673674106928353,60.0,529.0,-5.0
B,L,"[3, 7]",-999.0,0.0,0.3794889450073242,1.9194049835205078,0.43663906203496905,60.0,530.0,1.0
,,"(6, 6)",,,,,,,,
R,U,"[5, 6]",1.0,1.0,0.8698239326477051,5.526944160461426,0.6137423968307038,61.0,531.0,0.0
Y,R,"[5, 7]",1.0,2.0,0.21045207977294922,1.9370360374450684,0.617108409261742,61.0,532.0,0.0
Y,R,"[5, 8]",1.0,3.0,0.2032780647277832,1.9669029712677002,0.6673727580522458,61.0,533.0,0.0
G,D,"[6, 8]",1.0,4.0,0.2087409496307373,1.7395780086517334,0.4239327628069819,61.0,534.0,0.0
Y,R,"[6, 9]",1.0,5.0,0.20645713806152344,1.6631290912628174,0.35371371364491655,61.0,535.0,0.0
Y,R,"[6, 10]",1.0,6.0,0.21720385551452637,1.827096939086914,0.5141039531979735,61.0,536.0,0.0
R,U,"[5, 10]",1.0,7.0,0.21275997161865234,1.9024090766906738,0.5825466169627018,61.0,537.0,0.0
R,U,"[4, 10]",1.0,8.0,0.2196190357208252,1.9894359111785889,0.6723989024513163,61.0,538.0,0.0
B,L,"[4, 9]",1.0,9.0,0.21041107177734375,1.8997950553894043,0.5889812012489342,61.0,539.0,0.0
R,U,"[3, 9]",1.0,10.0,0.19755792617797852,1.8100929260253906,0.5158667527931945,61.0,540.0,0.0
,,"(6, 6)",,,,,,,,
R,U,"[5, 6]",1.0,1.0,0.41076016426086426,2.3552560806274414,0.30474794345021483,62.0,541.0,0.0
Y,R,"[5, 7]",1.0,2.0,0.23403692245483398,1.651777982711792,0.32331289194892,62.0,542.0,0.0
Y,R,"[5, 8]",1.0,3.0,0.2138841152191162,1.6821389198303223,0.37196335303184147,62.0,543.0,0.0
G,D,"[6, 8]",1.0,4.0,0.22062301635742188,1.8777740001678467,0.5495052387443027,62.0,544.0,0.0
Y,R,"[6, 9]",1.0,5.0,0.20082616806030273,1.7871859073638916,0.4867615013319463,62.0,545.0,0.0
Y,R,"[6, 10]",1.0,6.0,0.20683789253234863,1.7350659370422363,0.42206932070453157,62.0,546.0,0.0
R,U,"[5, 10]",1.0,7.0,0.22082996368408203,1.917733907699585,0.6061451717820259,62.0,547.0,0.0
R,U,"[4, 10]",1.0,8.0,0.20374512672424316,1.7712018489837646,0.4775275468901453,62.0,548.0,0.0
B,L,"[4, 9]",1.0,9.0,0.21362900733947754,1.64792799949646,0.3422955233094473,62.0,549.0,0.0
R,U,"[3, 9]",1.0,10.0,0.2096850872039795,1.7269020080566406,0.41904638530163274,62.0,550.0,0.0
,,"(6, 6)",,,,,,,,
R,U,"[5, 6]",1.0,1.0,0.4359781742095947,3.9831790924072266,0.3355274385375729,63.0,551.0,0.0
Y,R,"[5, 7]",1.0,2.0,0.19614791870117188,1.916543960571289,0.6187739411019559,63.0,552.0,0.0
Y,R,"[5, 8]",1.0,3.0,0.1836690902709961,1.9117560386657715,0.6303719904503968,63.0,553.0,0.0
G,D,"[6, 8]",1.0,4.0,0.21054315567016602,1.9818761348724365,0.6623238381073941,63.0,554.0,0.0
Y,R,"[6, 9]",1.0,5.0,0.21394705772399902,1.9076008796691895,0.586673945557663,63.0,555.0,0.0
Y,R,"[6, 10]",1.0,6.0,0.20454001426696777,1.8724150657653809,0.5757541936860727,63.0,556.0,0.0
R,U,"[5, 10]",1.0,7.0,0.41420602798461914,1.9282739162445068,0.42096746066914426,63.0,557.0,0.0
R,U,"[4, 10]",1.0,8.0,0.2600839138031006,1.815598964691162,0.4531969405224559,63.0,558.0,0.0
B,L,"[4, 9]",1.0,9.0,0.25030088424682617,1.9958350658416748,0.6487743500119412,63.0,559.0,0.0
R,U,"[3, 9]",1.0,10.0,0.2045609951019287,1.9782371520996094,0.677026073026202,63.0,560.0,0.0
,,"(6, 6)",,,,,,,,
R,U,"[5, 6]",-999.0,0.0,0.4172530174255371,2.5739550590515137,0.6510745436185541,64.0,561.0,-4.0
Y,R,"[5, 7]",-999.0,0.0,0.2137889862060547,1.9970061779022217,0.6812460885427405,64.0,562.0,-4.0
Y,R,"[5, 8]",-999.0,0.0,0.20577788352966309,1.7454640865325928,0.44414845694557864,64.0,563.0,-4.0
G,D,"[6, 8]",-999.0,0.0,0.4102609157562256,2.246854066848755,0.7404846615521452,64.0,564.0,-4.0
Y,R,"[6, 9]",-999.0,0.0,0.28066086769104004,1.6929411888122559,0.3171011188789592,64.0,565.0,-4.0
Y,R,"[6, 10]",-999.0,0.0,0.23897600173950195,1.8174378871917725,0.48452481981597756,64.0,566.0,-4.0
R,U,"[5, 10]",-999.0,0.0,0.3228461742401123,2.027498960494995,0.6117700827300658,64.0,567.0,-4.0
R,U,"[4, 10]",-999.0,0.0,0.23522615432739258,1.8142409324645996,0.4929268039895434,64.0,568.0,-4.0
R,U,"[3, 10]",-999.0,0.0,0.33561015129089355,1.889312982559204,0.46556109027303827,64.0,569.0,-4.0
B,L,"[3, 9]",-999.0,0.0,0.4086880683898926,2.19071102142334,0.6726936416278002,64.0,570.0,1.0
,,"(6, 6)",,,,,,,,
R,U,"[5, 6]",1.0,1.0,0.5447218418121338,3.9586801528930664,0.4981737327922346,65.0,571.0,0.0
Y,R,"[5, 7]",1.0,2.0,0.21714496612548828,1.7217381000518799,0.40338027829734807,65.0,572.0,0.0
Y,R,"[5, 8]",1.0,3.0,0.23015213012695312,1.8254961967468262,0.4954542017028052,65.0,573.0,0.0
G,D,"[6, 8]",1.0,4.0,0.30289793014526367,2.092042922973633,0.7039916317338792,65.0,574.0,0.0
Y,R,"[6, 9]",1.0,5.0,0.20854592323303223,1.9002368450164795,0.5876721226253221,65.0,575.0,0.0
Y,R,"[6, 10]",1.0,6.0,0.20331907272338867,1.7384638786315918,0.4430618666755988,65.0,576.0,0.0
R,U,"[5, 10]",1.0,7.0,0.24108409881591797,1.6835298538208008,0.34329413701813144,65.0,577.0,0.0
R,U,"[4, 10]",1.0,8.0,0.24440312385559082,1.8865489959716797,0.546419208679747,65.0,578.0,0.0
B,L,"[4, 9]",1.0,9.0,0.23250913619995117,1.963921070098877,0.6268324328798924,65.0,579.0,0.0
R,U,"[3, 9]",1.0,10.0,0.18964004516601562,1.6205840110778809,0.33110908794736726,65.0,580.0,0.0
,,"(6, 6)",,,,,,,,
R,U,"[5, 6]",1.0,1.0,0.5330071449279785,2.4549098014831543,0.3526730506357131,66.0,581.0,0.0
Y,R,"[5, 7]",1.0,2.0,0.20333218574523926,1.9800810813903809,0.6825689855211626,66.0,582.0,0.0
Y,R,"[5, 8]",1.0,3.0,0.21486902236938477,1.607508897781372,0.2903868666463124,66.0,583.0,0.0
G,D,"[6, 8]",1.0,4.0,0.21895194053649902,1.970654010772705,0.6607160419646965,66.0,584.0,0.0
Y,R,"[6, 9]",1.0,5.0,0.21075105667114258,1.736133098602295,0.43035439552227167,66.0,585.0,0.0
Y,R,"[6, 10]",1.0,6.0,0.24042201042175293,2.030125141143799,0.6768890325943073,66.0,586.0,0.0
R,U,"[5, 10]",1.0,7.0,0.22582697868347168,1.7472259998321533,0.42442891898226104,66.0,587.0,0.0
R,U,"[4, 10]",1.0,8.0,0.2322239875793457,1.605618953704834,0.28031288439856333,66.0,588.0,0.0
B,L,"[4, 9]",1.0,9.0,0.21922683715820312,1.8633050918579102,0.5433493442173849,66.0,589.0,0.0
R,U,"[3, 9]",1.0,10.0,0.18547797203063965,2.01145601272583,0.7379813364702978,66.0,590.0,0.0
,,"(6, 6)",,,,,,,,
B,L,"[3, 9]",-999.0,0.0,0.7716629505157471,2.838560104370117,0.5932369668630205,67.0,591.0,-5.0
B,L,"[3, 9]",-999.0,0.0,0.2165079116821289,1.901489019393921,0.5947757377985509,67.0,592.0,-5.0
R,U,"[3, 9]",-999.0,0.0,0.3557558059692383,1.6984047889709473,0.26031549194374287,67.0,593.0,-5.0
R,U,"[3, 9]",-999.0,0.0,0.24773597717285156,1.7497990131378174,0.4098887963751014,67.0,594.0,-5.0
G,D,"[4, 9]",-999.0,0.0,0.6607639789581299,2.357262134552002,0.5999943693168438,67.0,595.0,1.0
,,"(6, 6)",,,,,,,,
B,L,"[4, 9]",-999.0,0.0,0.8950741291046143,3.590769052505493,0.25815546551718876,68.0,596.0,-5.0
B,L,"[4, 9]",-999.0,0.0,0.26884007453918457,2.106595993041992,0.7473877195994321,68.0,597.0,-5.0
R,U,"[4, 9]",-999.0,0.0,0.3052499294281006,2.055191993713379,0.6528527240051945,68.0,598.0,-5.0
R,U,"[4, 9]",-999.0,0.0,0.2033979892730713,1.8778650760650635,0.5808849698028532,68.0,599.0,-5.0
G,D,"[5, 9]",-999.0,0.0,0.703071117401123,2.247689962387085,0.4453311704365056,68.0,600.0,1.0
,,"(6, 6)",,,,,,,,
R,U,"[5, 6]",1.0,1.0,0.9131438732147217,4.365633010864258,0.610832116577782,69.0,601.0,0.0
Y,R,"[5, 7]",1.0,2.0,0.2232801914215088,1.598142147064209,0.27594576043097724,69.0,602.0,0.0
Y,R,"[5, 8]",1.0,3.0,0.21950101852416992,1.8074109554290771,0.49992643088962874,69.0,603.0,0.0
G,D,"[6, 8]",1.0,4.0,0.2300570011138916,1.7323930263519287,0.39904172081048694,69.0,604.0,0.0
Y,R,"[6, 9]",1.0,5.0,0.2196052074432373,1.8522460460662842,0.5344378377169754,69.0,605.0,0.0
Y,R,"[6, 10]",1.0,6.0,0.1996321678161621,1.9481120109558105,0.6491703451934856,69.0,606.0,0.0
R,U,"[5, 10]",1.0,7.0,0.21656203269958496,1.9603068828582764,0.6427913923400512,69.0,607.0,0.0
R,U,"[4, 10]",1.0,8.0,0.21462106704711914,1.6470699310302734,0.3402055875151599,69.0,608.0,0.0
B,L,"[4, 9]",1.0,9.0,0.2548840045928955,1.9863719940185547,0.6430457644327403,69.0,609.0,0.0
R,U,"[3, 9]",1.0,10.0,0.20658016204833984,1.8884668350219727,0.5816212335724806,69.0,610.0,0.0
,,"(6, 6)",,,,,,,,
R,U,"[5, 6]",-999.0,0.0,0.5158600807189941,2.5136730670928955,0.44549619354702114,70.0,611.0,-4.0
Y,R,"[5, 7]",-999.0,0.0,0.2580571174621582,1.9098639488220215,0.555108164116763,70.0,612.0,-4.0
Y,R,"[5, 8]",-999.0,0.0,0.21210098266601562,1.9527840614318848,0.6409802540373766,70.0,613.0,-4.0
G,D,"[6, 8]",-999.0,0.0,0.21999788284301758,1.6009190082550049,0.29255541095994897,70.0,614.0,-4.0
Y,R,"[6, 9]",-999.0,0.0,0.23621892929077148,1.8081231117248535,0.48371036249675203,70.0,615.0,-4.0
Y,R,"[6, 10]",-999.0,0.0,0.1815629005432129,1.8790571689605713,0.5961364399000948,70.0,616.0,-4.0
R,U,"[5, 10]",-999.0,0.0,0.2522878646850586,1.9303879737854004,0.5763330830231446,70.0,617.0,-4.0
R,U,"[4, 10]",-999.0,0.0,0.23465800285339355,1.657357931137085,0.33401606017966007,70.0,618.0,-4.0
R,U,"[3, 10]",-999.0,0.0,0.3489549160003662,2.0494611263275146,0.5998072338042931,70.0,619.0,-4.0
B,L,"[3, 9]",-999.0,0.0,0.6280059814453125,2.178356170654297,0.4452696805530907,70.0,620.0,1.0
,,"(6, 6)",,,,,,,,
R,U,"[5, 6]",1.0,1.0,0.9780411720275879,4.4117431640625,0.7233845862302957,71.0,621.0,0.0
Y,R,"[5, 7]",1.0,2.0,0.20592689514160156,1.8127720355987549,0.5029613560624445,71.0,622.0,0.0
Y,R,"[5, 8]",1.0,3.0,0.2095170021057129,1.6610679626464844,0.3476459172622451,71.0,623.0,0.0
G,D,"[6, 8]",1.0,4.0,0.26082491874694824,1.653580904006958,0.2846475206507195,71.0,624.0,0.0
Y,R,"[6, 9]",1.0,5.0,0.26207709312438965,2.0012779235839844,0.6355006992687824,71.0,625.0,0.0
Y,R,"[6, 10]",1.0,6.0,0.21579504013061523,1.6003401279449463,0.2861892380180528,71.0,626.0,0.0
R,U,"[5, 10]",1.0,7.0,0.3973250389099121,1.9723570346832275,0.47512603872214676,71.0,627.0,0.0
R,U,"[4, 10]",1.0,8.0,0.23125386238098145,1.8580119609832764,0.5330264693149969,71.0,628.0,0.0
B,L,"[4, 9]",1.0,9.0,0.21089792251586914,1.7958810329437256,0.47908939149889446,71.0,629.0,0.0
R,U,"[3, 9]",1.0,10.0,0.18972110748291016,1.5851008892059326,0.2976606321429868,71.0,630.0,0.0
,,"(6, 6)",,,,,,,,
R,U,"[5, 6]",1.0,1.0,0.3839280605316162,2.6667511463165283,0.5642160918754098,72.0,631.0,0.0
Y,R,"[5, 7]",1.0,2.0,0.18674802780151367,1.634680986404419,0.3490535474674846,72.0,632.0,0.0
Y,R,"[5, 8]",1.0,3.0,0.19859099388122559,1.7132937908172607,0.4123617382606578,72.0,633.0,0.0
G,D,"[6, 8]",1.0,4.0,0.192641019821167,1.9068470001220703,0.6189103488953657,72.0,634.0,0.0
Y,R,"[6, 9]",1.0,5.0,0.20215988159179688,1.6083450317382812,0.3109103479993672,72.0,635.0,0.0
Y,R,"[6, 10]",1.0,6.0,0.19505000114440918,1.6496129035949707,0.3606159154777555,72.0,636.0,0.0
R,U,"[5, 10]",1.0,7.0,0.22412800788879395,1.955439805984497,0.6324430519803994,72.0,637.0,0.0
R,U,"[4, 10]",1.0,8.0,0.20874500274658203,1.6160969734191895,0.29891205649631486,72.0,638.0,0.0
B,L,"[4, 9]",1.0,9.0,0.2229630947113037,1.996757984161377,0.6618590882308817,72.0,639.0,0.0
R,U,"[3, 9]",1.0,10.0,0.1999819278717041,1.6819498538970947,0.39412537716080837,72.0,640.0,0.0
,,"(6, 6)",,,,,,,,
R,U,"[5, 6]",1.0,1.0,0.4827439785003662,2.925407886505127,0.6026163107605713,73.0,641.0,0.0
Y,R,"[5, 7]",1.0,2.0,0.21473407745361328,2.0013339519500732,0.6872387218561713,73.0,642.0,0.0
Y,R,"[5, 8]",1.0,3.0,0.2054450511932373,1.694800853729248,0.3823349074407628,73.0,643.0,0.0
G,D,"[6, 8]",1.0,4.0,0.23231983184814453,2.0744218826293945,0.7397363498102858,73.0,644.0,0.0
Y,R,"[6, 9]",1.0,5.0,0.18775606155395508,1.8858070373535156,0.5924897950513335,73.0,645.0,0.0
Y,R,"[6, 10]",1.0,6.0,0.1905078887939453,1.7364609241485596,0.44580312411524975,73.0,646.0,0.0
R,U,"[5, 10]",1.0,7.0,0.2281341552734375,1.7054641246795654,0.38465703211507346,73.0,647.0,0.0
R,U,"[4, 10]",1.0,8.0,0.2169032096862793,2.061964988708496,0.746197735990793,73.0,648.0,0.0
B,L,"[4, 9]",1.0,9.0,0.19888687133789062,1.8262689113616943,0.5227167455947288,73.0,649.0,0.0
R,U,"[3, 9]",1.0,10.0,0.2134990692138672,1.7868280410766602,0.4762543402727313,73.0,650.0,0.0
,,"(6, 6)",,,,,,,,
R,U,"[5, 6]",1.0,1.0,0.526587963104248,3.18544602394104,0.6949145922278779,74.0,651.0,0.0
Y,R,"[5, 7]",1.0,2.0,0.22406792640686035,1.9285330772399902,0.6068935345030796,74.0,652.0,0.0
Y,R,"[5, 8]",1.0,3.0,0.21857690811157227,1.5717859268188477,0.26237205746190256,74.0,653.0,0.0
G,D,"[6, 8]",1.0,4.0,0.31188201904296875,2.120504856109619,0.7156921404000158,74.0,654.0,0.0
Y,R,"[6, 9]",1.0,5.0,0.22577595710754395,1.7507479190826416,0.41689664816078964,74.0,655.0,0.0
Y,R,"[6, 10]",1.0,6.0,0.21760296821594238,1.7582240104675293,0.44171024663603614,74.0,656.0,0.0
R,U,"[5, 10]",1.0,7.0,0.23073601722717285,1.6621670722961426,0.3372792681679171,74.0,657.0,0.0
R,U,"[4, 10]",1.0,8.0,0.22606492042541504,1.8001580238342285,0.47067258909662096,74.0,658.0,0.0
B,L,"[4, 9]",1.0,9.0,0.22093605995178223,1.649557113647461,0.32040460476244376,74.0,659.0,0.0
R,U,"[3, 9]",1.0,10.0,0.2189490795135498,1.8780720233917236,0.5650323408142641,74.0,660.0,0.0
,,"(6, 6)",,,,,,,,
R,U,"[5, 6]",1.0,1.0,0.43726015090942383,2.5077719688415527,0.5560031835708135,75.0,661.0,0.0
Y,R,"[5, 7]",1.0,2.0,0.20026397705078125,1.8020660877227783,0.5082258706893454,75.0,662.0,0.0
Y,R,"[5, 8]",1.0,3.0,0.18731999397277832,1.9776451587677002,0.7024072740471428,75.0,663.0,0.0
G,D,"[6, 8]",1.0,4.0,0.21333098411560059,1.7646920680999756,0.45055019422706555,75.0,664.0,0.0
Y,R,"[6, 9]",1.0,5.0,0.19026803970336914,1.792536973953247,0.4931689663455944,75.0,665.0,0.0
Y,R,"[6, 10]",1.0,6.0,0.1870288848876953,1.9422638416290283,0.6685130802863375,75.0,666.0,0.0
R,U,"[5, 10]",1.0,7.0,0.21595001220703125,1.896116018295288,0.5813950854421805,75.0,667.0,0.0
R,U,"[4, 10]",1.0,8.0,0.2242419719696045,1.9429740905761719,0.6078089942804416,75.0,668.0,0.0
B,L,"[4, 9]",1.0,9.0,0.21696710586547852,1.955463171005249,0.6464965684457056,75.0,669.0,0.0
R,U,"[3, 9]",1.0,10.0,0.20325708389282227,1.7363460063934326,0.43306276387064785,75.0,670.0,0.0
,,"(6, 6)",,,,,,,,
R,U,"[5, 6]",1.0,1.0,0.4406700134277344,3.1833770275115967,0.4997712089877094,76.0,671.0,0.0
Y,R,"[5, 7]",1.0,2.0,0.21687698364257812,2.0414860248565674,0.7242764850150297,76.0,672.0,0.0
Y,R,"[5, 8]",1.0,3.0,0.20263886451721191,1.9166340827941895,0.624563495563546,76.0,673.0,0.0
G,D,"[6, 8]",1.0,4.0,0.20285606384277344,1.9726200103759766,0.6804137387186108,76.0,674.0,0.0
Y,R,"[6, 9]",1.0,5.0,0.20569300651550293,1.673408031463623,0.35420536316584567,76.0,675.0,0.0
Y,R,"[6, 10]",1.0,6.0,0.2276320457458496,2.0169880390167236,0.6877659765541227,76.0,676.0,0.0
R,U,"[5, 10]",1.0,7.0,0.2060229778289795,2.045670986175537,0.7332046229317006,76.0,677.0,0.0
R,U,"[4, 10]",1.0,8.0,0.23774003982543945,1.9399850368499756,0.6064126506933167,76.0,678.0,0.0
B,L,"[4, 9]",1.0,9.0,0.2791299819946289,1.6274969577789307,0.25105901208238246,76.0,679.0,0.0
R,U,"[3, 9]",1.0,10.0,0.2328641414642334,1.7512149810791016,0.4187912398077637,76.0,680.0,0.0
,,"(6, 6)",,,,,,,,
R,U,"[5, 6]",1.0,1.0,0.4368009567260742,2.481684923171997,0.5338143488275569,77.0,681.0,0.0
Y,R,"[5, 7]",1.0,2.0,0.20381784439086914,1.71891188621521,0.41943654891589227,77.0,682.0,0.0
Y,R,"[5, 8]",1.0,3.0,0.18018293380737305,1.9989359378814697,0.7180848772455547,77.0,683.0,0.0
G,D,"[6, 8]",1.0,4.0,0.21115708351135254,1.6286871433258057,0.31400532067639314,77.0,684.0,0.0
Y,R,"[6, 9]",1.0,5.0,0.20459198951721191,1.9735829830169678,0.6538984100467602,77.0,685.0,0.0
Y,R,"[6, 10]",1.0,6.0,0.2481369972229004,1.699786901473999,0.3540137944976576,77.0,686.0,0.0
R,U,"[5, 10]",1.0,7.0,0.19530606269836426,1.7575709819793701,0.4613789531382358,77.0,687.0,0.0
R,U,"[4, 10]",1.0,8.0,0.20546412467956543,1.969954013824463,0.6478127927560005,77.0,688.0,0.0
B,L,"[4, 9]",1.0,9.0,0.2002871036529541,1.670687198638916,0.36878350374077534,77.0,689.0,0.0
R,U,"[3, 9]",1.0,10.0,0.21249103546142578,1.9149789810180664,0.6003515695292267,77.0,690.0,0.0
,,"(6, 6)",,,,,,,,
B,L,"[3, 9]",-999.0,0.0,0.7194600105285645,2.5880651473999023,0.47171856521894623,78.0,691.0,-5.0
B,L,"[3, 9]",-999.0,0.0,0.32563304901123047,2.0751490592956543,0.6637460758578269,78.0,692.0,-5.0
R,U,"[3, 9]",-999.0,0.0,0.3393540382385254,1.690958023071289,0.2548202247583387,78.0,693.0,-5.0
R,U,"[3, 9]",-999.0,0.0,0.27967095375061035,1.9935309886932373,0.6146467879989257,78.0,694.0,-5.0
Y,R,"[3, 10]",-999.0,0.0,0.3141670227050781,1.9098410606384277,0.49134284614946716,78.0,695.0,1.0
,,"(6, 6)",,,,,,,,
B,L,"[3, 10]",-999.0,0.0,0.8421359062194824,4.238983154296875,0.646983881525119,79.0,696.0,-5.0
B,L,"[3, 10]",-999.0,0.0,0.20038485527038574,1.8032240867614746,0.5002350584203434,79.0,697.0,-5.0
R,U,"[3, 10]",-999.0,0.0,0.26451992988586426,2.034564971923828,0.6679902598456098,79.0,698.0,-5.0
R,U,"[3, 10]",-999.0,0.0,0.23030996322631836,1.8953518867492676,0.5635916169464339,79.0,699.0,-5.0
Y,R,"[3, 11]",-999.0,0.0,0.3472599983215332,1.7705419063568115,0.3175958713807886,79.0,700.0,1.0
,,"(6, 6)",,,,,,,,
R,U,"[5, 6]",1.0,1.0,0.5126681327819824,4.333381175994873,0.6173933108379368,80.0,701.0,0.0
Y,R,"[5, 7]",1.0,2.0,0.23632597923278809,2.001007080078125,0.668410410316858,80.0,702.0,0.0
Y,R,"[5, 8]",1.0,3.0,0.18153882026672363,1.5513660907745361,0.27021170329396776,80.0,703.0,0.0
G,D,"[6, 8]",1.0,4.0,0.22053790092468262,1.6172690391540527,0.3040907208010722,80.0,704.0,0.0
Y,R,"[6, 9]",1.0,5.0,0.2187809944152832,1.9554049968719482,0.6425122398129546,80.0,705.0,0.0
Y,R,"[6, 10]",1.0,6.0,0.20510601997375488,2.006523847579956,0.6822450585729898,80.0,706.0,0.0
R,U,"[5, 10]",1.0,7.0,0.22543120384216309,1.8156158924102783,0.48150647560780313,80.0,707.0,0.0
R,U,"[4, 10]",1.0,8.0,0.2517561912536621,1.7295019626617432,0.3777716095401029,80.0,708.0,0.0
B,L,"[4, 9]",1.0,9.0,0.2454979419708252,1.9369289875030518,0.5976890872022298,80.0,709.0,0.0
R,U,"[3, 9]",1.0,10.0,0.23730707168579102,1.750236988067627,0.41496602703309904,80.0,710.0,0.0
,,"(6, 6)",,,,,,,,
R,U,"[5, 6]",1.0,1.0,0.560906171798706,2.796694040298462,0.31174000417067865,81.0,711.0,0.0
Y,R,"[5, 7]",1.0,2.0,0.23027586936950684,1.7759950160980225,0.45428667405251844,81.0,712.0,0.0
Y,R,"[5, 8]",1.0,3.0,0.2114870548248291,2.0605180263519287,0.7478183263910003,81.0,713.0,0.0
G,D,"[6, 8]",1.0,4.0,0.2120659351348877,1.9367530345916748,0.618201620887743,81.0,714.0,0.0
Y,R,"[6, 9]",1.0,5.0,0.18992900848388672,2.01908802986145,0.7206058129322381,81.0,715.0,0.0
Y,R,"[6, 10]",1.0,6.0,0.22497320175170898,1.7262980937957764,0.3971472218158936,81.0,716.0,0.0
R,U,"[5, 10]",1.0,7.0,0.23802995681762695,1.9834909439086914,0.6302839117538943,81.0,717.0,0.0
R,U,"[4, 10]",1.0,8.0,0.19387412071228027,1.8167459964752197,0.513841284272377,81.0,718.0,0.0
B,L,"[4, 9]",1.0,9.0,0.20032620429992676,2.0190680027008057,0.7160595834059601,81.0,719.0,0.0
R,U,"[3, 9]",1.0,10.0,0.19464397430419922,1.792484998703003,0.4920941645606581,81.0,720.0,0.0
,,"(6, 6)",,,,,,,,
G,D,"[3, 9]",-999.0,0.0,0.8480279445648193,3.3441860675811768,0.38654721343811554,82.0,721.0,-5.0
G,D,"[3, 9]",-999.0,0.0,0.32041120529174805,2.075395107269287,0.6616178454780655,82.0,722.0,-5.0
G,D,"[3, 9]",-999.0,0.0,0.36783409118652344,1.7526710033416748,0.298056873397299,82.0,723.0,-5.0
B,L,"[3, 9]",-999.0,0.0,0.5051801204681396,2.237410068511963,0.6351768913545134,82.0,724.0,-5.0
B,L,"[3, 9]",-999.0,0.0,0.18729400634765625,1.7358160018920898,0.45450373843185726,82.0,725.0,-5.0
R,U,"[3, 9]",-999.0,0.0,0.6240959167480469,2.4409830570220947,0.7119112976294683,82.0,726.0,-5.0
R,U,"[3, 9]",-999.0,0.0,0.4026939868927002,1.7617709636688232,0.25737258356101106,82.0,727.0,-5.0
B,L,"[3, 9]",-999.0,0.0,0.5687658786773682,2.01688289642334,0.3576379260871548,82.0,728.0,-5.0
B,L,"[3, 9]",-999.0,0.0,0.34749388694763184,1.9074640274047852,0.46511723304324043,82.0,729.0,-5.0
B,L,"[3, 8]",-999.0,0.0,0.9305329322814941,2.3013460636138916,0.26661120844001024,82.0,730.0,1.0
,,"(6, 6)",,,,,,,,
R,U,"[5, 6]",1.0,1.0,0.5065600872039795,3.6463851928710938,0.36295549063441096,83.0,731.0,0.0
Y,R,"[5, 7]",1.0,2.0,0.2458810806274414,1.992182970046997,0.6381013076156477,83.0,732.0,0.0
Y,R,"[5, 8]",1.0,3.0,0.21147990226745605,1.7846319675445557,0.4729375830273287,83.0,733.0,0.0
G,D,"[6, 8]",1.0,4.0,0.22164607048034668,2.033863067626953,0.7066201148871398,83.0,734.0,0.0
Y,R,"[6, 9]",1.0,5.0,0.23291301727294922,1.6798667907714844,0.35348398750152127,83.0,735.0,0.0
Y,R,"[6, 10]",1.0,6.0,0.2255568504333496,1.9857609272003174,0.6557154560635035,83.0,736.0,0.0
R,U,"[5, 10]",1.0,7.0,0.20937204360961914,1.810865879058838,0.4997918619169904,83.0,737.0,0.0
R,U,"[4, 10]",1.0,8.0,0.23874402046203613,1.6288177967071533,0.29567968881051304,83.0,738.0,0.0
B,L,"[4, 9]",1.0,9.0,0.2681581974029541,1.857435941696167,0.5029715847425495,83.0,739.0,0.0
R,U,"[3, 9]",1.0,10.0,0.22577190399169922,1.8920228481292725,0.5615872184915842,83.0,740.0,0.0
,,"(6, 6)",,,,,,,,
R,U,"[5, 6]",1.0,1.0,0.4657759666442871,2.9909939765930176,0.7189963062619729,84.0,741.0,0.0
Y,R,"[5, 7]",1.0,2.0,0.22369599342346191,1.7927401065826416,0.46217713020076223,84.0,742.0,0.0
Y,R,"[5, 8]",1.0,3.0,0.21521496772766113,1.5883300304412842,0.28393130373436337,84.0,743.0,0.0
G,D,"[6, 8]",1.0,4.0,0.23816514015197754,1.9136929512023926,0.5474121381405984,84.0,744.0,0.0
Y,R,"[6, 9]",1.0,5.0,0.2039499282836914,1.9227879047393799,0.6202050104921604,84.0,745.0,0.0
Y,R,"[6, 10]",1.0,6.0,0.20577716827392578,1.884714126586914,0.5715947678426413,84.0,746.0,0.0
R,U,"[5, 10]",1.0,7.0,0.19886398315429688,1.5456280708312988,0.2510546420295691,84.0,747.0,0.0
R,U,"[4, 10]",1.0,8.0,0.25667595863342285,1.7070109844207764,0.34122014880177404,84.0,748.0,0.0
B,L,"[4, 9]",1.0,9.0,0.2067699432373047,1.8764958381652832,0.5675231749892402,84.0,749.0,0.0
R,U,"[3, 9]",1.0,10.0,0.19837689399719238,1.9040780067443848,0.6048512183027183,84.0,750.0,0.0
,,"(6, 6)",,,,,,,,
R,U,"[5, 6]",-999.0,0.0,0.42223691940307617,2.4181790351867676,0.40659799518031914,85.0,751.0,-4.0
Y,R,"[5, 7]",-999.0,0.0,0.23903489112854004,1.57765793800354,0.2509962811980373,85.0,752.0,-4.0
Y,R,"[5, 8]",-999.0,0.0,0.22972393035888672,1.9296960830688477,0.5970808256501852,85.0,753.0,-4.0
R,U,"[4, 8]",-999.0,0.0,0.34659695625305176,1.776581048965454,0.32348052647660447,85.0,754.0,-4.0
Y,R,"[4, 9]",-2.0,0.0,1.2399868965148926,2.703943967819214,0.4279649637061517,85.0,755.0,1.0
,,"(6, 6)",,,,,,,,
R,U,"[5, 6]",1.0,1.0,0.6031560897827148,3.657564163208008,0.6353810016340407,86.0,756.0,0.0
Y,R,"[5, 7]",1.0,2.0,0.2317051887512207,1.6171140670776367,0.2861897999130365,86.0,757.0,0.0
Y,R,"[5, 8]",1.0,3.0,0.20175600051879883,1.7587640285491943,0.46101617116717974,86.0,758.0,0.0
G,D,"[6, 8]",1.0,4.0,0.2908921241760254,1.8571441173553467,0.46853044529848886,86.0,759.0,0.0
Y,R,"[6, 9]",1.0,5.0,0.20437407493591309,1.6153600215911865,0.31733749781017384,86.0,760.0,0.0
,,"(6, 6)",,,,,,,,
R,U,"[5, 6]",-999.0,0.0,0.4821619987487793,3.659674882888794,0.3439478439866673,87.0,761.0,-4.0
Y,R,"[5, 7]",-999.0,0.0,0.32068920135498047,2.043990135192871,0.637431852878652,87.0,762.0,-4.0
Y,R,"[5, 8]",-999.0,0.0,0.2088170051574707,1.5633349418640137,0.2511934133054104,87.0,763.0,-4.0
R,U,"[4, 8]",-999.0,0.0,0.602100133895874,2.265944004058838,0.5668065893179901,87.0,764.0,-4.0
Y,R,"[4, 9]",-999.0,0.0,0.4155590534210205,2.1200900077819824,0.6036167590034299,87.0,765.0,1.0
,,"(6, 6)",,,,,,,,
R,U,"[5, 6]",-999.0,0.0,0.41956186294555664,2.98344087600708,0.43719512576215824,88.0,766.0,-4.0
Y,R,"[5, 7]",-999.0,0.0,0.24928998947143555,1.9827449321746826,0.6364594911648933,88.0,767.0,-4.0
Y,R,"[5, 8]",-999.0,0.0,0.19548606872558594,1.68454909324646,0.3879199518651797,88.0,768.0,-4.0
G,D,"[6, 8]",-999.0,0.0,0.6665418148040771,2.0166821479797363,0.25488787044931077,88.0,769.0,-4.0
Y,R,"[6, 9]",-999.0,0.0,0.39021801948547363,2.1271169185638428,0.6481492461934732,88.0,770.0,-4.0
,,"(6, 6)",,,,,,,,
G,D,"[6, 9]",-999.0,0.0,0.6952009201049805,3.677907943725586,0.7426868143579672,89.0,771.0,-5.0
G,D,"[6, 9]",-999.0,0.0,0.4657289981842041,2.2570650577545166,0.6996463103139694,89.0,772.0,-5.0
G,D,"[6, 9]",-999.0,0.0,0.3414590358734131,2.118489980697632,0.6849193554033749,89.0,773.0,-5.0
B,L,"[6, 9]",-999.0,0.0,0.45368099212646484,2.2950360774993896,0.7466251562794259,89.0,774.0,-5.0
B,L,"[6, 9]",-999.0,0.0,0.22475409507751465,1.8196210861206055,0.4999208427966765,89.0,775.0,-5.0
R,U,"[6, 9]",-999.0,0.0,0.529041051864624,2.2973358631134033,0.6637671675061735,89.0,776.0,-5.0
R,U,"[6, 9]",-999.0,0.0,0.37015700340270996,2.0539910793304443,0.5844065580594582,89.0,777.0,-5.0
B,L,"[6, 9]",-999.0,0.0,0.3735058307647705,2.065025806427002,0.5995483389798182,89.0,778.0,-5.0
B,L,"[6, 9]",-999.0,0.0,0.31660890579223633,2.095526933670044,0.6782764686992928,89.0,779.0,-5.0
R,U,"[5, 9]",-999.0,0.0,0.269881010055542,1.6847460269927979,0.31342911265100093,89.0,780.0,1.0
,,"(6, 6)",,,,,,,,
R,U,"[5, 6]",1.0,1.0,0.7089829444885254,3.626207113265991,0.32301687637509396,90.0,781.0,0.0
Y,R,"[5, 7]",1.0,2.0,0.22873282432556152,1.947227954864502,0.6199297418218208,90.0,782.0,0.0
Y,R,"[5, 8]",1.0,3.0,0.20563077926635742,1.7010829448699951,0.3881675004995564,90.0,783.0,0.0
G,D,"[6, 8]",1.0,4.0,0.2465381622314453,1.6361069679260254,0.2909025918416501,90.0,784.0,0.0
Y,R,"[6, 9]",1.0,5.0,0.2158370018005371,1.6452610492706299,0.3361455123833841,90.0,785.0,0.0
Y,R,"[6, 10]",1.0,6.0,0.22182297706604004,1.9689350128173828,0.6547877862764193,90.0,786.0,0.0
R,U,"[5, 10]",1.0,7.0,0.20726895332336426,2.0268099308013916,0.714868990399807,90.0,787.0,0.0
R,U,"[4, 10]",1.0,8.0,0.21082806587219238,1.7637479305267334,0.44556736772632155,90.0,788.0,0.0
B,L,"[4, 9]",1.0,9.0,0.2210831642150879,1.5934197902679443,0.25578239008125836,90.0,789.0,0.0
R,U,"[3, 9]",1.0,10.0,0.2329730987548828,1.9669749736785889,0.6390176987651269,90.0,790.0,0.0
,,"(6, 6)",,,,,,,,
R,U,"[5, 6]",-999.0,0.0,0.40687084197998047,2.7739851474761963,0.7297173079154816,91.0,791.0,-4.0
Y,R,"[5, 7]",-999.0,0.0,0.23414111137390137,1.662410020828247,0.3258709966612392,91.0,792.0,-4.0
Y,R,"[5, 8]",-999.0,0.0,0.22516202926635742,2.0088508129119873,0.7010192841767737,91.0,793.0,-4.0
G,D,"[6, 8]",-999.0,0.0,0.4806509017944336,1.8867878913879395,0.30477525702139735,91.0,794.0,-4.0
Y,R,"[6, 9]",-999.0,0.0,0.2568349838256836,1.662928819656372,0.3178040258524993,91.0,795.0,-4.0
Y,R,"[6, 10]",-999.0,0.0,0.19568705558776855,1.6883268356323242,0.38943012249918213,91.0,796.0,-4.0
R,U,"[5, 10]",-999.0,0.0,0.3704109191894531,2.016584873199463,0.5558383532112744,91.0,797.0,-4.0
R,U,"[4, 10]",-999.0,0.0,0.3468589782714844,1.7323260307312012,0.2884145686395957,91.0,798.0,-4.0
R,U,"[3, 10]",-999.0,0.0,0.38469386100769043,2.2158820629119873,0.7372192961055967,91.0,799.0,-4.0
R,U,"[2, 10]",-999.0,0.0,0.46063709259033203,2.2309651374816895,0.668273245144843,91.0,800.0,1.0
,,"(6, 6)",,,,,,,,
R,U,"[5, 6]",1.0,1.0,0.4719510078430176,4.545145034790039,0.6133357234481334,92.0,801.0,0.0
Y,R,"[5, 7]",1.0,2.0,0.18794894218444824,1.8910801410675049,0.5880173642191592,92.0,802.0,0.0
Y,R,"[5, 8]",1.0,3.0,0.18710708618164062,1.8410630226135254,0.5626401991031292,92.0,803.0,0.0
G,D,"[6, 8]",1.0,4.0,0.44358396530151367,1.8794538974761963,0.30885169890403863,92.0,804.0,0.0
Y,R,"[6, 9]",1.0,5.0,0.23618102073669434,1.9470860958099365,0.6223025281422254,92.0,805.0,0.0
Y,R,"[6, 10]",1.0,6.0,0.19850420951843262,1.7404909133911133,0.4462651809893333,92.0,806.0,0.0
R,U,"[5, 10]",1.0,7.0,0.24312615394592285,1.9798660278320312,0.6260191362056616,92.0,807.0,0.0
R,U,"[4, 10]",1.0,8.0,0.22856593132019043,1.6198220252990723,0.2961404127345577,92.0,808.0,0.0
B,L,"[4, 9]",1.0,9.0,0.2612190246582031,1.7905950546264648,0.41990914387559675,92.0,809.0,0.0
R,U,"[3, 9]",1.0,10.0,0.2059018611907959,1.591705083847046,0.2784703906254294,92.0,810.0,0.0
,,"(6, 6)",,,,,,,,
R,U,"[5, 6]",1.0,1.0,0.4228520393371582,3.3725671768188477,0.2508417498314433,93.0,811.0,0.0
Y,R,"[5, 7]",1.0,2.0,0.3055078983306885,1.9260590076446533,0.51019703914956,93.0,812.0,0.0
Y,R,"[5, 8]",1.0,3.0,0.19086813926696777,1.7934868335723877,0.5037869620317714,93.0,813.0,0.0
G,D,"[6, 8]",1.0,4.0,0.19665193557739258,1.768338918685913,0.4720886835855804,93.0,814.0,0.0
Y,R,"[6, 9]",1.0,5.0,0.21141600608825684,1.8279109001159668,0.5167057350214306,93.0,815.0,0.0
Y,R,"[6, 10]",1.0,6.0,0.23622894287109375,1.6824588775634766,0.3493079423913733,93.0,816.0,0.0
R,U,"[5, 10]",1.0,7.0,0.21496891975402832,1.804413080215454,0.4869422668558587,93.0,817.0,0.0
R,U,"[4, 10]",1.0,8.0,0.1864168643951416,1.834718942642212,0.5550083977376823,93.0,818.0,0.0
B,L,"[4, 9]",1.0,9.0,0.17992091178894043,1.6520140171051025,0.3737960276433911,93.0,819.0,0.0
R,U,"[3, 9]",-2.0,9.0,1.653519868850708,3.232276201248169,0.5560233806101951,93.0,820.0,0.0
,,"(6, 6)",,,,,,,,
R,U,"[5, 6]",1.0,1.0,0.47748684883117676,3.1589999198913574,0.4152105046631645,94.0,821.0,0.0
Y,R,"[5, 7]",1.0,2.0,0.18792104721069336,1.5849380493164062,0.3002098106690873,94.0,822.0,0.0
Y,R,"[5, 8]",1.0,3.0,0.22957396507263184,2.048190116882324,0.7147547385631807,94.0,823.0,0.0
G,D,"[6, 8]",1.0,4.0,0.22062206268310547,2.0081350803375244,0.6728703897377796,94.0,824.0,0.0
Y,R,"[6, 9]",1.0,5.0,0.1988821029663086,1.8683769702911377,0.5746690639425918,94.0,825.0,0.0
Y,R,"[6, 10]",1.0,6.0,0.21214604377746582,1.669564962387085,0.3612433509237887,94.0,826.0,0.0
R,U,"[5, 10]",1.0,7.0,0.2314472198486328,1.861065149307251,0.5387129233647937,94.0,827.0,0.0
R,U,"[4, 10]",1.0,8.0,0.20487117767333984,1.6607561111450195,0.33302032707772045,94.0,828.0,0.0
B,L,"[4, 9]",1.0,9.0,0.23223304748535156,1.744314193725586,0.4106181051458149,94.0,829.0,0.0
R,U,"[3, 9]",1.0,10.0,0.20083093643188477,1.8752200603485107,0.5856473269601925,94.0,830.0,0.0
,,"(6, 6)",,,,,,,,
R,U,"[5, 6]",1.0,1.0,0.46000003814697266,2.7357990741729736,0.3218817651846895,95.0,831.0,0.0
Y,R,"[5, 7]",1.0,2.0,0.2064380645751953,1.582383155822754,0.27093656184252646,95.0,832.0,0.0
Y,R,"[5, 8]",1.0,3.0,0.20873689651489258,1.9861319065093994,0.673361694695833,95.0,833.0,0.0
G,D,"[6, 8]",1.0,4.0,0.21791696548461914,2.008563995361328,0.6985046203933089,95.0,834.0,0.0
Y,R,"[6, 9]",1.0,5.0,0.19927406311035156,1.9650931358337402,0.6635043826397335,95.0,835.0,0.0
Y,R,"[6, 10]",1.0,6.0,0.25365400314331055,2.011997938156128,0.6591123200880138,95.0,836.0,0.0
R,U,"[5, 10]",1.0,7.0,0.19685721397399902,1.6559898853302002,0.3654177726500187,95.0,837.0,0.0
R,U,"[4, 10]",1.0,8.0,0.22101783752441406,1.6251771450042725,0.2905636111211209,95.0,838.0,0.0
B,L,"[4, 9]",1.0,9.0,0.2245039939880371,1.8806111812591553,0.5542863921761887,95.0,839.0,0.0
R,U,"[3, 9]",1.0,10.0,0.19587111473083496,1.9368131160736084,0.6409719199271671,95.0,840.0,0.0
,,"(6, 6)",,,,,,,,
R,U,"[5, 6]",-999.0,0.0,0.40410304069519043,2.1937239170074463,0.26850839469078536,96.0,841.0,-4.0
Y,R,"[5, 7]",-999.0,0.0,0.2180490493774414,1.7134249210357666,0.39858219495338254,96.0,842.0,-4.0
Y,R,"[5, 8]",-999.0,0.0,0.20060992240905762,1.7352888584136963,0.4337116856546325,96.0,843.0,-4.0
G,D,"[6, 8]",-999.0,0.0,0.3361508846282959,2.0661768913269043,0.6331525116376255,96.0,844.0,-4.0
Y,R,"[6, 9]",-999.0,0.0,0.17862391471862793,2.0018599033355713,0.718192675283409,96.0,845.0,-4.0
Y,R,"[6, 10]",-999.0,0.0,0.18176007270812988,1.7617769241333008,0.4803014621853874,96.0,846.0,-4.0
R,U,"[5, 10]",-999.0,0.0,0.30889391899108887,1.7940571308135986,0.374421822185417,96.0,847.0,-4.0
R,U,"[4, 10]",-999.0,0.0,0.2946341037750244,1.9688920974731445,0.5765896516078199,96.0,848.0,-4.0
R,U,"[3, 10]",-999.0,0.0,0.4350299835205078,1.9425029754638672,0.4192186821015794,96.0,849.0,-4.0
R,U,"[2, 10]",-999.0,0.0,0.2372760772705078,1.6929278373718262,0.3621905897181278,96.0,850.0,1.0
,,"(6, 6)",,,,,,,,
G,D,"[2, 10]",-999.0,0.0,0.861840009689331,4.469034910202026,0.7141397011755577,97.0,851.0,-5.0
G,D,"[2, 10]",-999.0,0.0,0.26496005058288574,1.7480618953704834,0.3792673528648165,97.0,852.0,-5.0
G,D,"[2, 10]",-999.0,0.0,0.4917588233947754,2.023892879486084,0.43644658200425757,97.0,853.0,-5.0
B,L,"[2, 10]",-999.0,0.0,0.5301411151885986,2.1352310180664062,0.5049053103296983,97.0,854.0,-5.0
B,L,"[2, 10]",-999.0,0.0,0.6709380149841309,2.1474881172180176,0.38589862317065105,97.0,855.0,-5.0
R,U,"[2, 10]",-999.0,0.0,0.7710561752319336,2.3344340324401855,0.4702554951199612,97.0,856.0,-5.0
R,U,"[2, 10]",-999.0,0.0,0.3274989128112793,1.9263381958007812,0.49661150248051583,97.0,857.0,-5.0
B,L,"[2, 10]",-999.0,0.0,0.4006078243255615,1.8291149139404297,0.3259117542961848,97.0,858.0,-5.0
B,L,"[2, 10]",-999.0,0.0,0.32036805152893066,2.11718487739563,0.7094772857633966,97.0,859.0,-5.0
R,U,"[1, 10]",-999.0,0.0,0.21130681037902832,1.80845308303833,0.5013889713578283,97.0,860.0,1.0
,,"(6, 6)",,,,,,,,
G,D,"[1, 10]",-999.0,0.0,0.748945951461792,3.9539430141448975,0.6718396578659196,98.0,861.0,-5.0
G,D,"[1, 10]",-999.0,0.0,0.5288689136505127,2.0105268955230713,0.3827767522219859,98.0,862.0,-5.0
G,D,"[1, 10]",-999.0,0.0,0.2633187770843506,1.7177460193634033,0.35061131209234825,98.0,863.0,-5.0
B,L,"[1, 10]",-999.0,0.0,0.4396231174468994,2.1098361015319824,0.5768529745240281,98.0,864.0,-5.0
B,L,"[1, 10]",-999.0,0.0,0.30153799057006836,2.031949043273926,0.6420735298848106,98.0,865.0,-5.0
R,U,"[1, 10]",-999.0,0.0,0.51938796043396,1.9922270774841309,0.3846002853774642,98.0,866.0,-5.0
R,U,"[1, 10]",-999.0,0.0,0.3144872188568115,1.7663710117340088,0.3510504498216244,98.0,867.0,-5.0
B,L,"[1, 10]",-999.0,0.0,0.43988895416259766,1.872675895690918,0.3404016123805517,98.0,868.0,-5.0
B,L,"[1, 10]",-999.0,0.0,0.31640100479125977,2.13457989692688,0.7246880631084675,98.0,869.0,-5.0
R,U,"[0, 10]",-999.0,0.0,0.35000109672546387,2.0104458332061768,0.5686312841380721,98.0,870.0,1.0
,,"(6, 6)",,,,,,,,
G,D,"[0, 10]",-999.0,0.0,0.787139892578125,4.709375858306885,0.6609679227538853,99.0,871.0,-5.0
G,D,"[0, 10]",-999.0,0.0,0.36493802070617676,1.7691240310668945,0.3141048835002325,99.0,872.0,-5.0
G,D,"[0, 10]",-999.0,0.0,0.26745009422302246,2.048693895339966,0.6789908188975007,99.0,873.0,-5.0
B,L,"[0, 10]",-999.0,0.0,0.2973499298095703,1.8878538608551025,0.483693859398388,99.0,874.0,-5.0
B,L,"[0, 10]",-999.0,0.0,0.2762010097503662,1.6654250621795654,0.2826945363355483,99.0,875.0,-5.0
R,U,"[0, 10]",-999.0,0.0,0.4844210147857666,2.0171620845794678,0.4330796643075538,99.0,876.0,-5.0
R,U,"[0, 10]",-999.0,0.0,0.2520601749420166,2.0354321002960205,0.6850742420397875,99.0,877.0,-5.0
B,L,"[0, 10]",-999.0,0.0,0.3896138668060303,1.862617015838623,0.38134957840174516,99.0,878.0,-5.0
B,L,"[0, 10]",-999.0,0.0,0.30414700508117676,1.7384908199310303,0.33644077333797356,99.0,879.0,-5.0
R,U,"[0, 10]",-999.0,0.0,0.23984384536743164,1.9099280834197998,0.5628341057852644,99.0,880.0,1.0
,,"(6, 6)",,,,,,,,
R,U,"[5, 6]",1.0,1.0,0.8516421318054199,4.719225883483887,0.7485556350109961,100.0,881.0,0.0
Y,R,"[5, 7]",1.0,2.0,0.1954939365386963,2.0484519004821777,0.7469682791668972,100.0,882.0,0.0
Y,R,"[5, 8]",1.0,3.0,0.20377683639526367,1.949821949005127,0.6470546062355205,100.0,883.0,0.0
G,D,"[6, 8]",1.0,4.0,0.21887898445129395,1.6164381504058838,0.297170015657185,100.0,884.0,0.0
Y,R,"[6, 9]",1.0,5.0,0.2173631191253662,1.7206151485443115,0.4010920827117991,100.0,885.0,0.0
Y,R,"[6, 10]",1.0,6.0,0.2215290069580078,1.6271460056304932,0.2782954030565927,100.0,886.0,0.0
R,U,"[5, 10]",1.0,7.0,0.8869118690490723,2.4413390159606934,0.4695761535150755,100.0,887.0,0.0
R,U,"[4, 10]",1.0,8.0,0.23211002349853516,1.7988739013671875,0.46830394748068466,100.0,888.0,0.0
B,L,"[4, 9]",1.0,9.0,0.2259528636932373,1.9267029762268066,0.594931752723872,100.0,889.0,0.0
R,U,"[3, 9]",1.0,10.0,0.20060300827026367,1.9357647895812988,0.6472556997147618,100.0,890.0,0.0
,,"(6, 6)",,,,,,,,
R,U,"[5, 6]",-2.0,0.0,1.1032741069793701,4.051336050033569,0.38234381391715305,101.0,891.0,0.0
Y,R,"[5, 7]",1.0,1.0,0.27359795570373535,1.8064310550689697,0.4220337917840306,101.0,892.0,0.0
Y,R,"[5, 8]",1.0,2.0,0.1989750862121582,2.0004780292510986,0.705614239326771,101.0,893.0,0.0
G,D,"[6, 8]",1.0,3.0,0.1917591094970703,1.9095430374145508,0.6156572634691304,101.0,894.0,0.0
Y,R,"[6, 9]",1.0,4.0,0.15224599838256836,1.9406938552856445,0.6892093895275164,101.0,895.0,0.0
Y,R,"[6, 10]",1.0,5.0,0.17388391494750977,1.8369128704071045,0.5596482319314615,101.0,896.0,0.0
R,U,"[5, 10]",1.0,6.0,0.18076705932617188,1.5382249355316162,0.26475564003443264,101.0,897.0,0.0
R,U,"[4, 10]",1.0,7.0,0.2597849369049072,1.8190371990203857,0.4503351226718259,101.0,898.0,0.0
B,L,"[4, 9]",1.0,8.0,0.1931319236755371,2.0044641494750977,0.7045855874795375,101.0,899.0,0.0
R,U,"[3, 9]",1.0,9.0,0.19736695289611816,1.6028740406036377,0.3078326753370654,101.0,900.0,0.0
,,"(6, 6)",,,,,,,,
R,U,"[5, 6]",1.0,1.0,0.48903799057006836,2.962249994277954,0.6864233717864796,102.0,901.0,0.0
Y,R,"[5, 7]",1.0,2.0,0.2064049243927002,1.75472092628479,0.44145549418882735,102.0,902.0,0.0
Y,R,"[5, 8]",1.0,3.0,0.20859503746032715,1.7999191284179688,0.49124196846812185,102.0,903.0,0.0
G,D,"[6, 8]",1.0,4.0,0.20386099815368652,1.8903920650482178,0.5983349132057358,102.0,904.0,0.0
Y,R,"[6, 9]",1.0,5.0,0.18775606155395508,1.9312100410461426,0.6293883648499279,102.0,905.0,0.0
Y,R,"[6, 10]",1.0,6.0,0.18169283866882324,1.537872076034546,0.25097149338553043,102.0,906.0,0.0
R,U,"[5, 10]",1.0,7.0,0.20739984512329102,1.8174960613250732,0.5017793397264243,102.0,907.0,0.0
R,U,"[4, 10]",1.0,8.0,0.2216188907623291,2.0352020263671875,0.703317691264812,102.0,908.0,0.0
B,L,"[4, 9]",1.0,9.0,0.19706416130065918,1.6699790954589844,0.3736779151930932,102.0,909.0,0.0
R,U,"[3, 9]",1.0,10.0,0.21086621284484863,1.6988370418548584,0.3891668466110574,102.0,910.0,0.0
,,"(6, 6)",,,,,,,,
R,U,"[5, 6]",1.0,1.0,0.3566269874572754,2.6718108654022217,0.6273708284229376,103.0,911.0,0.0
Y,R,"[5, 7]",1.0,2.0,0.19523119926452637,1.5755741596221924,0.2867792309508951,103.0,912.0,0.0
Y,R,"[5, 8]",1.0,3.0,0.19411587715148926,1.6436810493469238,0.34693611446588174,103.0,913.0,0.0
G,D,"[6, 8]",1.0,4.0,0.18932199478149414,1.898940086364746,0.5957341429648365,103.0,914.0,0.0
Y,R,"[6, 9]",1.0,5.0,0.18320703506469727,1.9845130443572998,0.6968659070178393,103.0,915.0,0.0
Y,R,"[6, 10]",1.0,6.0,0.1788949966430664,1.926257848739624,0.6400197270298407,103.0,916.0,0.0
R,U,"[5, 10]",1.0,7.0,0.19497179985046387,1.7617578506469727,0.46845004345769903,103.0,917.0,0.0
R,U,"[4, 10]",1.0,8.0,0.2110137939453125,1.9050040245056152,0.5899634454128972,103.0,918.0,0.0
B,L,"[4, 9]",1.0,9.0,0.18670296669006348,1.537086009979248,0.2606742110746895,103.0,919.0,0.0
R,U,"[3, 9]",1.0,10.0,0.22963690757751465,1.8977720737457275,0.5748318150232649,103.0,920.0,0.0
,,"(6, 6)",,,,,,,,
R,U,"[5, 6]",1.0,1.0,0.3990151882171631,2.4266438484191895,0.2517591220154306,104.0,921.0,0.0
Y,R,"[5, 7]",1.0,2.0,0.22017598152160645,1.9355480670928955,0.6203631067988025,104.0,922.0,0.0
Y,R,"[5, 8]",1.0,3.0,0.23754501342773438,1.6490378379821777,0.3198872254549121,104.0,923.0,0.0
G,D,"[6, 8]",1.0,4.0,0.2001328468322754,1.712514877319336,0.4155336828385567,104.0,924.0,0.0
Y,R,"[6, 9]",1.0,5.0,0.17426300048828125,1.687331199645996,0.4028882161998569,104.0,925.0,0.0
Y,R,"[6, 10]",1.0,6.0,0.1770470142364502,1.584501028060913,0.3042817606165962,104.0,926.0,0.0
R,U,"[5, 10]",1.0,7.0,0.19661378860473633,1.7719199657440186,0.47600115009445393,104.0,927.0,0.0
R,U,"[4, 10]",1.0,8.0,0.21114611625671387,1.9986140727996826,0.6909679341877007,104.0,928.0,0.0
B,L,"[4, 9]",1.0,9.0,0.1874079704284668,1.9954650402069092,0.7198572165206587,104.0,929.0,0.0
R,U,"[3, 9]",1.0,10.0,0.20918607711791992,1.8728220462799072,0.5594404133305044,104.0,930.0,0.0
,,"(6, 6)",,,,,,,,
R,U,"[5, 6]",1.0,1.0,0.3312678337097168,2.6782779693603516,0.687628407535767,105.0,931.0,0.0
Y,R,"[5, 7]",1.0,2.0,0.20777106285095215,1.8839919567108154,0.571858644271759,105.0,932.0,0.0
Y,R,"[5, 8]",1.0,3.0,0.20235395431518555,1.7532668113708496,0.4580685748699169,105.0,933.0,0.0
G,D,"[6, 8]",1.0,4.0,0.23140788078308105,1.9223899841308594,0.5973797793202726,105.0,934.0,0.0
Y,R,"[6, 9]",1.0,5.0,0.1669449806213379,1.9005630016326904,0.6313571018811865,105.0,935.0,0.0
Y,R,"[6, 10]",1.0,6.0,0.19198393821716309,1.797421932220459,0.49564240202352655,105.0,936.0,0.0
R,U,"[5, 10]",1.0,7.0,0.20537900924682617,2.030054807662964,0.7254514006778825,105.0,937.0,0.0
R,U,"[4, 10]",1.0,8.0,0.18363094329833984,1.8561279773712158,0.5817692105526242,105.0,938.0,0.0
B,L,"[4, 9]",1.0,9.0,0.18682098388671875,1.851963996887207,0.5504525324133926,105.0,939.0,0.0
R,U,"[3, 9]",1.0,10.0,0.14992380142211914,1.7597289085388184,0.5100093095525704,105.0,940.0,0.0
,,"(6, 6)",,,,,,,,
R,U,"[5, 6]",1.0,1.0,0.3419830799102783,2.660867929458618,0.587643695154874,106.0,941.0,0.0
Y,R,"[5, 7]",1.0,2.0,0.2027759552001953,1.826524019241333,0.5309254525881224,106.0,942.0,0.0
Y,R,"[5, 8]",1.0,3.0,0.17860198020935059,1.9895110130310059,0.7035784995289984,106.0,943.0,0.0
G,D,"[6, 8]",-1.0,3.0,0.04078388214111328,5.594788074493408,0.4320306095480804,106.0,944.0,0.0
Y,R,"[6, 9]",1.0,4.0,0.2151789665222168,1.9139659404754639,0.5958141874868819,106.0,945.0,0.0
Y,R,"[6, 10]",1.0,5.0,0.2685081958770752,2.0512030124664307,0.6802434023348594,106.0,946.0,0.0
R,U,"[5, 10]",1.0,6.0,0.22761797904968262,1.7728919982910156,0.4368418242597617,106.0,947.0,0.0
R,U,"[4, 10]",1.0,7.0,0.2827939987182617,2.1298818588256836,0.7497116843083755,106.0,948.0,0.0
B,L,"[4, 9]",1.0,8.0,0.20871186256408691,1.7678210735321045,0.4513304954775524,106.0,949.0,0.0
R,U,"[3, 9]",1.0,9.0,0.25102806091308594,1.895216941833496,0.5463398465095244,106.0,950.0,0.0
,,"(6, 6)",,,,,,,,
R,U,"[5, 6]",1.0,1.0,0.8212509155273438,2.7606770992279053,0.29062513215604896,107.0,951.0,0.0
Y,R,"[5, 7]",1.0,2.0,0.2182760238647461,1.9871809482574463,0.677382992036415,107.0,952.0,0.0
Y,R,"[5, 8]",1.0,3.0,0.20386195182800293,1.5740540027618408,0.26855474629928183,107.0,953.0,0.0
G,D,"[6, 8]",1.0,4.0,0.21660494804382324,1.7963800430297852,0.48142125799224467,107.0,954.0,0.0
Y,R,"[6, 9]",1.0,5.0,0.20360803604125977,1.684546947479248,0.3827278110444477,107.0,955.0,0.0
Y,R,"[6, 10]",1.0,6.0,0.22437596321105957,1.7384939193725586,0.40466323556189837,107.0,956.0,0.0
R,U,"[5, 10]",1.0,7.0,0.19462299346923828,1.7639880180358887,0.4684888776702002,107.0,957.0,0.0
R,U,"[4, 10]",1.0,8.0,0.22157001495361328,1.787489891052246,0.4561655425628921,107.0,958.0,0.0
B,L,"[4, 9]",1.0,9.0,0.22118687629699707,1.990267038345337,0.6794235069022039,107.0,959.0,0.0
R,U,"[3, 9]",1.0,10.0,0.17650389671325684,2.0091681480407715,0.7218943825454066,107.0,960.0,0.0
,,"(6, 6)",,,,,,,,
R,U,"[5, 6]",1.0,1.0,0.4060540199279785,2.1165430545806885,0.28882160845962856,108.0,961.0,0.0
Y,R,"[5, 7]",1.0,2.0,0.2280101776123047,1.5881311893463135,0.26049029547414787,108.0,962.0,0.0
Y,R,"[5, 8]",1.0,3.0,0.21079611778259277,1.8010599613189697,0.49469213722524574,108.0,963.0,0.0
G,D,"[6, 8]",1.0,4.0,0.18967604637145996,1.9735989570617676,0.6846853873372204,108.0,964.0,0.0
Y,R,"[6, 9]",1.0,5.0,0.11736202239990234,1.9304449558258057,0.7151794069463251,108.0,965.0,0.0
Y,R,"[6, 10]",1.0,6.0,0.2669849395751953,2.0165839195251465,0.6484572959428689,108.0,966.0,0.0
R,U,"[5, 10]",1.0,7.0,0.23961305618286133,1.7656910419464111,0.4144529652699598,108.0,967.0,0.0
R,U,"[4, 10]",1.0,8.0,0.2877650260925293,1.9543559551239014,0.5516549770978703,108.0,968.0,0.0
B,L,"[4, 9]",1.0,9.0,0.2518770694732666,2.0146329402923584,0.6664732204202455,108.0,969.0,0.0
R,U,"[3, 9]",1.0,10.0,0.2032320499420166,2.0371389389038086,0.737009920655813,108.0,970.0,0.0
,,"(6, 6)",,,,,,,,
R,U,"[5, 6]",1.0,1.0,0.3828859329223633,2.3353259563446045,0.4059344010975914,109.0,971.0,0.0
Y,R,"[5, 7]",1.0,2.0,0.22169780731201172,1.7897758483886719,0.4623587104984151,109.0,972.0,0.0
Y,R,"[5, 8]",1.0,3.0,0.22945094108581543,1.8102898597717285,0.48935278200192295,109.0,973.0,0.0
G,D,"[6, 8]",1.0,4.0,0.21280884742736816,1.9128470420837402,0.6019910371679373,109.0,974.0,0.0
Y,R,"[6, 9]",1.0,5.0,0.19551301002502441,1.6449949741363525,0.34731200146928703,109.0,975.0,0.0
Y,R,"[6, 10]",1.0,6.0,0.22147011756896973,1.7530848979949951,0.4336965830638981,109.0,976.0,0.0
R,U,"[5, 10]",1.0,7.0,0.21834897994995117,1.6908810138702393,0.37461542008022547,109.0,977.0,0.0
R,U,"[4, 10]",1.0,8.0,0.2121140956878662,1.7268118858337402,0.41805326616144833,109.0,978.0,0.0
B,L,"[4, 9]",1.0,9.0,0.2158961296081543,1.5703380107879639,0.25513780519503915,109.0,979.0,0.0
R,U,"[3, 9]",1.0,10.0,0.9532239437103271,2.4086248874664307,0.3636284492957079,109.0,980.0,0.0
,,"(6, 6)",,,,,,,,
R,U,"[5, 6]",1.0,1.0,0.3976731300354004,3.1235649585723877,0.6871861986187514,110.0,981.0,0.0
Y,R,"[5, 7]",1.0,2.0,0.19264721870422363,1.9474890232086182,0.651344825423821,110.0,982.0,0.0
Y,R,"[5, 8]",1.0,3.0,0.22325897216796875,1.9159369468688965,0.5840476268079777,110.0,983.0,0.0
G,D,"[6, 8]",1.0,4.0,0.22046899795532227,1.9115400314331055,0.5954549412492063,110.0,984.0,0.0
Y,R,"[6, 9]",1.0,5.0,0.2047410011291504,1.8838310241699219,0.5960992617805079,110.0,985.0,0.0
Y,R,"[6, 10]",1.0,6.0,0.20258116722106934,1.763545036315918,0.4597332295372591,110.0,986.0,0.0
R,U,"[5, 10]",1.0,7.0,0.21666502952575684,1.6044600009918213,0.2976428486348896,110.0,987.0,0.0
R,U,"[4, 10]",1.0,8.0,0.24039387702941895,1.6765570640563965,0.3242866802493555,110.0,988.0,0.0
B,L,"[4, 9]",1.0,9.0,0.22644615173339844,1.680582046508789,0.35484579631998864,110.0,989.0,0.0
R,U,"[3, 9]",1.0,10.0,0.20160984992980957,1.6799089908599854,0.384797089165685,110.0,990.0,0.0
,,"(6, 6)",,,,,,,,
R,U,"[5, 6]",1.0,1.0,0.40902113914489746,2.36191987991333,0.34683133994123083,111.0,991.0,0.0
Y,R,"[5, 7]",1.0,2.0,0.17557597160339355,1.8201758861541748,0.533336523474897,111.0,992.0,0.0
Y,R,"[5, 8]",1.0,3.0,0.19192218780517578,1.7929069995880127,0.49288160479312143,111.0,993.0,0.0
G,D,"[6, 8]",1.0,4.0,0.1954050064086914,1.572922945022583,0.28280054993383974,111.0,994.0,0.0
Y,R,"[6, 9]",1.0,5.0,0.21335387229919434,1.754878044128418,0.4374838682177369,111.0,995.0,0.0
Y,R,"[6, 10]",1.0,6.0,0.2038249969482422,1.931325912475586,0.6352786929096808,111.0,996.0,0.0
R,U,"[5, 10]",1.0,7.0,0.22109603881835938,1.6559031009674072,0.32495277164194747,111.0,997.0,0.0
R,U,"[4, 10]",1.0,8.0,0.21795201301574707,1.921328067779541,0.6127618815713897,111.0,998.0,0.0
B,L,"[4, 9]",1.0,9.0,0.1956958770751953,1.736119031906128,0.4323670959219804,111.0,999.0,0.0
R,U,"[3, 9]",1.0,10.0,0.20362591743469238,1.997657060623169,0.6964807807071524,111.0,1000.0,0.0
