button_choice,action_choice,coordinate_choice,reward,cumulative_reward,rt,total_trial_time,iti,block_n,trial_n,trial_type
B,L,"[6, 5]",-2.0,0.0,1.1692829132080078,2.781883955001831,0.5826765913267472,0.0,1.0,0.0
G,D,"[7, 5]",0.0,0.0,0.2965359687805176,1.8633489608764648,0.562454709001247,0.0,2.0,0.0
R,U,"[6, 5]",0.0,0.0,0.27465081214904785,1.6560611724853516,0.3685229200278326,0.0,3.0,0.0
R,U,"[5, 5]",0.0,0.0,0.3829340934753418,1.8756170272827148,0.4941649167342613,0.0,4.0,0.0
B,L,"[5, 4]",0.0,0.0,0.4150409698486328,2.0594749450683594,0.6532183830617324,0.0,5.0,0.0
B,L,"[5, 3]",0.0,0.0,0.21939897537231445,1.495581865310669,0.2659269432298532,0.0,6.0,0.0
Y,R,"[5, 4]",0.0,0.0,0.2474961280822754,1.8959650993347168,0.6445771788026976,0.0,7.0,0.0
R,U,"[4, 4]",0.0,0.0,0.16219401359558105,1.827765941619873,0.672282686744986,0.0,8.0,0.0
Y,R,"[4, 5]",0.0,0.0,0.4569430351257324,1.9376728534698486,0.47670197520859203,0.0,9.0,0.0
Y,R,"[4, 6]",0.0,0.0,0.28362393379211426,1.6756489276885986,0.40241545211106744,0.0,10.0,0.0
,,"(6, 6)",,,,,,0.0,,
G,D,"[7, 6]",0.0,0.0,0.49106383323669434,7.2270519733428955,0.5624320190557933,,11.0,0.0
Y,R,"[7, 7]",0.0,0.0,0.11695408821105957,1.5370850563049316,0.4327301263309437,1.0,12.0,0.0
Y,R,"[7, 8]",0.0,0.0,0.1730329990386963,1.6666150093078613,0.48277025390730793,1.0,13.0,0.0
Y,R,"[7, 9]",0.0,0.0,0.12961697578430176,1.4752631187438965,0.3414642601640044,1.0,14.0,0.0
Y,R,"[7, 10]",0.0,0.0,0.34259796142578125,1.9104411602020264,0.568014654959387,1.0,15.0,0.0
R,U,"[6, 10]",1.0,1.0,0.47834300994873047,2.0184810161590576,0.5366357537689722,1.0,16.0,0.0
Y,R,"[6, 11]",0.0,1.0,0.13076496124267578,1.869400978088379,0.7390657859012127,1.0,17.0,0.0
B,L,"[6, 10]",0.0,1.0,0.3450050354003906,1.6305749416351318,0.2864934290206384,1.0,18.0,0.0
B,L,"[6, 9]",1.0,2.0,0.4676849842071533,1.7169098854064941,0.2536488188810536,1.0,19.0,0.0
G,D,"[7, 9]",0.0,2.0,0.8912310600280762,2.5086469650268555,0.6119044449543947,1.0,20.0,0.0
,,"(6, 6)",,,,,,1.0,,
B,L,"[6, 5]",0.0,0.0,0.7236027717590332,9.030120134353638,0.5414770756899374,,21.0,0.0
R,U,"[5, 5]",0.0,0.0,0.15114212036132812,1.7742030620574951,0.632183721766008,2.0,22.0,0.0
R,U,"[4, 5]",-1.0,0.0,0.02693796157836914,5.515033006668091,0.36379638023649014,2.0,23.0,0.0
R,U,"[3, 5]",0.0,0.0,0.21040797233581543,1.510162115097046,0.29061884273910255,2.0,24.0,0.0
G,D,"[4, 5]",0.0,0.0,0.2773458957672119,1.6278610229492188,0.3517172083284977,2.0,25.0,0.0
B,L,"[4, 4]",0.0,0.0,0.22037100791931152,1.5828158855438232,0.35100999341256406,2.0,26.0,0.0
B,L,"[4, 3]",0.0,0.0,0.18082714080810547,1.4617581367492676,0.27972080397092575,2.0,27.0,0.0
Y,R,"[4, 4]",0.0,0.0,0.320598840713501,2.04229998588562,0.7049190264234511,2.0,28.0,0.0
B,L,"[4, 3]",0.0,0.0,0.2331831455230713,1.5375440120697021,0.3093360082190989,2.0,29.0,0.0
G,D,"[5, 3]",0.0,0.0,0.24952387809753418,1.981276035308838,0.7401418284844816,2.0,30.0,0.0
,,"(6, 6)",,,,,,2.0,,
G,D,"[7, 6]",0.0,0.0,0.5610580444335938,5.955471992492676,0.49545681331134805,,31.0,0.0
B,L,"[7, 5]",0.0,0.0,0.20258402824401855,1.8110618591308594,0.6064226770286585,3.0,32.0,0.0
B,L,"[7, 4]",0.0,0.0,0.15918803215026855,1.899946928024292,0.7394468620386853,3.0,33.0,0.0
Y,R,"[7, 5]",0.0,0.0,0.2221240997314453,1.7596290111541748,0.5325187738646142,3.0,34.0,0.0
R,U,"[6, 5]",0.0,0.0,0.25855588912963867,1.8963730335235596,0.6285042189401997,3.0,35.0,0.0
R,U,"[5, 5]",0.0,0.0,0.3171830177307129,1.7477271556854248,0.4430021491065408,3.0,36.0,0.0
B,L,"[5, 4]",0.0,0.0,0.17322015762329102,1.8966059684753418,0.7226901873469727,3.0,37.0,0.0
Y,R,"[5, 5]",0.0,0.0,0.17725396156311035,1.5811078548431396,0.4038737329907164,3.0,38.0,0.0
G,D,"[6, 5]",0.0,0.0,0.5255780220031738,1.8482699394226074,0.3192207229507876,3.0,39.0,0.0
G,D,"[7, 5]",0.0,0.0,0.33356714248657227,1.869150161743164,0.5379580139727979,3.0,40.0,0.0
,,"(6, 6)",,,,,,3.0,,
G,D,"[7, 6]",0.0,0.0,0.9681601524353027,7.005490064620972,0.6763955843317974,,41.0,0.0
B,L,"[7, 5]",0.0,0.0,0.13706588745117188,1.4533312320709229,0.3131383298785705,4.0,42.0,0.0
Y,R,"[7, 6]",0.0,0.0,0.5170061588287354,2.260833978652954,0.7399416953722826,4.0,43.0,0.0
R,U,"[6, 6]",0.0,0.0,0.24217510223388672,1.806161880493164,0.5630524122899994,4.0,44.0,0.0
R,U,"[5, 6]",1.0,1.0,0.3726029396057129,2.072338104248047,0.6851720118469498,4.0,45.0,0.0
R,U,"[4, 6]",0.0,1.0,0.17798209190368652,1.5036451816558838,0.32232645050381087,4.0,46.0,0.0
B,L,"[4, 5]",0.0,1.0,0.21029400825500488,1.5350639820098877,0.32410332631731065,4.0,47.0,0.0
Y,R,"[4, 6]",0.0,1.0,0.2246391773223877,1.5152289867401123,0.2891204616047189,4.0,48.0,0.0
G,D,"[5, 6]",0.0,1.0,0.4379849433898926,1.815181016921997,0.3876059081544021,4.0,49.0,0.0
Y,R,"[5, 7]",1.0,2.0,0.16927599906921387,1.788654088973999,0.609359866661078,4.0,50.0,0.0
,,"(6, 6)",,,,,,4.0,,
Y,R,"[6, 7]",0.0,0.0,0.34178996086120605,6.2982940673828125,0.2743259040305234,,51.0,0.0
G,D,"[7, 7]",0.0,0.0,0.21751999855041504,1.8421669006347656,0.6326889428245479,5.0,52.0,0.0
Y,R,"[7, 8]",0.0,0.0,0.2582268714904785,1.9279448986053467,0.6606699211898179,5.0,53.0,0.0
B,L,"[7, 7]",0.0,0.0,0.4221529960632324,2.0921428203582764,0.6691964117201872,5.0,54.0,0.0
R,U,"[6, 7]",0.0,0.0,0.2619340419769287,1.7567498683929443,0.4926210447110655,5.0,55.0,0.0
B,L,"[6, 6]",0.0,0.0,0.52394700050354,1.8517699241638184,0.32777074104786996,5.0,56.0,0.0
Y,R,"[6, 7]",0.0,0.0,0.3409998416900635,1.700119972229004,0.3612453444071994,5.0,57.0,0.0
B,L,"[6, 6]",0.0,0.0,0.3882160186767578,1.8181359767913818,0.4459876387488701,5.0,58.0,0.0
G,D,"[7, 6]",0.0,0.0,0.36379194259643555,2.1103241443634033,0.7391801765212658,5.0,59.0,0.0
R,U,"[6, 6]",0.0,0.0,0.37683892250061035,2.1066179275512695,0.7288557185106816,5.0,60.0,0.0
,,"(6, 6)",,,,,,5.0,,
R,U,"[5, 6]",-2.0,0.0,1.5243871212005615,7.777735948562622,0.6729871584039658,,61.0,0.0
R,U,"[4, 6]",0.0,0.0,0.18291187286376953,1.7332911491394043,0.5397261937361568,6.0,62.0,0.0
G,D,"[5, 6]",0.0,0.0,0.16348505020141602,1.5930631160736084,0.4328636994836621,6.0,63.0,0.0
B,L,"[5, 5]",0.0,0.0,0.224686861038208,1.5610849857330322,0.32725187059766825,6.0,64.0,0.0
Y,R,"[5, 6]",0.0,0.0,0.24057292938232422,1.6773021221160889,0.4377004772814309,6.0,65.0,0.0
B,L,"[5, 5]",0.0,0.0,0.1731109619140625,1.6857881546020508,0.5066399783642208,6.0,66.0,0.0
B,L,"[5, 4]",-1.0,0.0,0.07875204086303711,5.516654014587402,0.3065985269728222,6.0,67.0,0.0
B,L,"[5, 3]",0.0,0.0,0.5675020217895508,2.301677942276001,0.7410688549563624,6.0,68.0,0.0
G,D,"[6, 3]",0.0,0.0,0.27359890937805176,1.7295918464660645,0.45429861409711464,6.0,69.0,0.0
G,D,"[7, 3]",0.0,0.0,0.4544391632080078,1.8118138313293457,0.34950068126189243,6.0,70.0,0.0
,,"(6, 6)",,,,,,6.0,,
Y,R,"[6, 7]",0.0,0.0,0.3512890338897705,6.408982992172241,0.47484324720489063,,71.0,0.0
B,L,"[6, 6]",0.0,0.0,0.40400004386901855,1.7443640232086182,0.33583894873711695,7.0,72.0,0.0
G,D,"[7, 6]",0.0,0.0,0.22415804862976074,1.6269869804382324,0.39612613128525087,7.0,73.0,0.0
R,U,"[6, 6]",0.0,0.0,0.29955601692199707,1.8885009288787842,0.5676201814045179,7.0,74.0,0.0
B,L,"[6, 5]",0.0,0.0,0.18755602836608887,1.5887258052825928,0.38975738315243535,7.0,75.0,0.0
G,D,"[7, 5]",0.0,0.0,0.28676891326904297,1.8245279788970947,0.5473740394809871,7.0,76.0,0.0
R,U,"[6, 5]",0.0,0.0,0.2210540771484375,1.6593141555786133,0.42329894724241784,7.0,77.0,0.0
R,U,"[5, 5]",0.0,0.0,0.2563600540161133,1.9040119647979736,0.6437135447764986,7.0,78.0,0.0
Y,R,"[5, 6]",1.0,1.0,0.5011100769042969,1.951422929763794,0.46180444203914606,7.0,79.0,0.0
Y,R,"[5, 7]",1.0,2.0,0.23428702354431152,1.4952740669250488,0.25720245230971855,7.0,80.0,0.0
,,"(6, 6)",,,,,,7.0,,
B,L,"[6, 5]",0.0,0.0,0.7321569919586182,4.230677127838135,0.3877486774649977,,81.0,0.0
G,D,"[7, 5]",0.0,0.0,0.2821640968322754,1.8149569034576416,0.5356108278116187,8.0,82.0,0.0
R,U,"[6, 5]",0.0,0.0,0.1664259433746338,1.474768877029419,0.310633198898296,8.0,83.0,0.0
Y,R,"[6, 6]",0.0,0.0,0.21279191970825195,1.5401458740234375,0.3339431921369029,8.0,84.0,0.0
G,D,"[7, 6]",0.0,0.0,0.21076297760009766,1.5803308486938477,0.36418880825253935,8.0,85.0,0.0
Y,R,"[7, 7]",0.0,0.0,0.15966582298278809,1.7632639408111572,0.593765885796248,8.0,86.0,0.0
B,L,"[7, 6]",-1.0,0.0,0.08452510833740234,5.596522092819214,0.39020710807239356,8.0,87.0,0.0
Y,R,"[7, 7]",0.0,0.0,0.18874311447143555,1.7875189781188965,0.5940787088426427,8.0,88.0,0.0
Y,R,"[7, 8]",0.0,0.0,0.18738889694213867,1.8255820274353027,0.6364303218214721,8.0,89.0,0.0
Y,R,"[7, 9]",0.0,0.0,0.35721802711486816,2.002933979034424,0.6390661867810594,8.0,90.0,0.0
,,"(6, 6)",,,,,,8.0,,
G,D,"[7, 6]",0.0,0.0,0.5233681201934814,5.577493906021118,0.3665960540521973,,91.0,0.0
G,D,"[8, 6]",0.0,0.0,0.1660749912261963,1.6894161701202393,0.5224873773694659,9.0,92.0,0.0
R,U,"[7, 6]",0.0,0.0,0.19079303741455078,1.8723390102386475,0.6777430870382961,9.0,93.0,0.0
G,D,"[8, 6]",0.0,0.0,0.18129396438598633,1.7449760437011719,0.5728638489824502,9.0,94.0,0.0
B,L,"[8, 5]",0.0,0.0,0.2792940139770508,1.71856689453125,0.44159831320654397,9.0,95.0,0.0
Y,R,"[8, 6]",0.0,0.0,0.3339071273803711,1.5873479843139648,0.26221718427498525,9.0,96.0,0.0
Y,R,"[8, 7]",0.0,0.0,0.7836019992828369,2.1446359157562256,0.37325706341030906,9.0,97.0,0.0
Y,R,"[8, 8]",0.0,0.0,0.7245907783508301,2.4565939903259277,0.7293124472890565,9.0,98.0,0.0
G,D,"[9, 8]",0.0,0.0,0.2588460445404053,1.8615248203277588,0.5911810955299033,9.0,99.0,0.0
B,L,"[9, 7]",0.0,0.0,0.25604987144470215,1.9222328662872314,0.6631635277404309,9.0,100.0,0.0
,,"(6, 6)",,,,,,9.0,,
R,U,"[5, 6]",-2.0,0.0,1.4889109134674072,5.547526836395264,0.7103553701789043,,101.0,0.0
G,D,"[6, 6]",0.0,0.0,0.6854920387268066,2.068850040435791,0.3793481927722284,10.0,102.0,0.0
R,U,"[5, 6]",0.0,0.0,0.20818710327148438,1.4862060546875,0.265630100510018,10.0,103.0,0.0
Y,R,"[5, 7]",1.0,1.0,0.2878689765930176,1.8544881343841553,0.5530463476548901,10.0,104.0,0.0
Y,R,"[5, 8]",1.0,2.0,0.14568400382995605,1.7354249954223633,0.588463737199006,10.0,105.0,0.0
Y,R,"[5, 9]",0.0,2.0,0.1835649013519287,1.895833969116211,0.7175386487194599,10.0,106.0,0.0
B,L,"[5, 8]",-1.0,2.0,0.040078163146972656,5.8470070362091064,0.681365851667282,10.0,107.0,0.0
B,L,"[5, 7]",0.0,2.0,0.5249991416931152,1.9478569030761719,0.41224112026745735,10.0,108.0,0.0
G,D,"[6, 7]",0.0,2.0,0.5447089672088623,1.8392670154571533,0.3014452435115136,10.0,109.0,0.0
R,U,"[5, 7]",0.0,2.0,0.3031730651855469,1.5882670879364014,0.27290417287606805,10.0,110.0,0.0
,,"(6, 6)",,,,,,10.0,,
Y,R,"[6, 7]",0.0,0.0,0.9619660377502441,4.987617015838623,0.4101585188025798,,111.0,0.0
G,D,"[7, 7]",0.0,0.0,0.19038987159729004,1.496678113937378,0.30701964039641255,11.0,112.0,0.0
B,L,"[7, 6]",0.0,0.0,0.2714118957519531,1.882822036743164,0.6225488694576631,11.0,113.0,0.0
R,U,"[6, 6]",0.0,0.0,0.29119205474853516,2.026637077331543,0.7323948838102424,11.0,114.0,0.0
Y,R,"[6, 7]",0.0,0.0,0.21114897727966309,1.6572668552398682,0.4398643723060691,11.0,115.0,0.0
G,D,"[7, 7]",0.0,0.0,0.45203590393066406,1.9235708713531494,0.47987671559788125,11.0,116.0,0.0
R,U,"[6, 7]",0.0,0.0,0.32172107696533203,1.7476699352264404,0.41095589355388124,11.0,117.0,0.0
B,L,"[6, 6]",0.0,0.0,0.29529500007629395,1.7061660289764404,0.4172498571132614,11.0,118.0,0.0
Y,R,"[6, 7]",0.0,0.0,0.24469995498657227,1.8786680698394775,0.6286360833952075,11.0,119.0,0.0
B,L,"[6, 6]",0.0,0.0,0.21011018753051758,1.9437170028686523,0.7392949727099296,11.0,120.0,0.0
,,"(6, 6)",,,,,,11.0,,
R,U,"[5, 6]",1.0,1.0,0.7825429439544678,4.938330888748169,0.4620918520075033,,121.0,0.0
R,U,"[4, 6]",0.0,1.0,0.18378591537475586,1.857217788696289,0.6862308370597263,12.0,122.0,0.0
B,L,"[4, 5]",0.0,1.0,0.1893138885498047,1.6326720714569092,0.4362698341382267,12.0,123.0,0.0
G,D,"[5, 5]",0.0,1.0,0.2193441390991211,1.7270269393920898,0.5137523241369735,12.0,124.0,0.0
Y,R,"[5, 6]",0.0,1.0,0.1719520092010498,1.5897738933563232,0.40399000672750324,12.0,125.0,0.0
Y,R,"[5, 7]",1.0,2.0,0.3697500228881836,2.0326011180877686,0.653316903078133,12.0,126.0,0.0
Y,R,"[5, 8]",1.0,3.0,0.17188787460327148,1.8094851970672607,0.6299218011810168,12.0,127.0,0.0
G,D,"[6, 8]",1.0,4.0,0.16987204551696777,1.7472319602966309,0.5613428638881999,12.0,128.0,0.0
B,L,"[6, 7]",0.0,4.0,0.20840191841125488,1.6818649768829346,0.47671955729208343,12.0,129.0,0.0
Y,R,"[6, 8]",0.0,4.0,0.32698512077331543,1.8180830478668213,0.4952129044637381,12.0,130.0,0.0
,,"(6, 6)",,,,,,12.0,,
R,U,"[5, 6]",1.0,1.0,0.6431879997253418,4.365706920623779,0.5454383422327416,,131.0,0.0
R,U,"[4, 6]",0.0,1.0,0.5089199542999268,2.1983630657196045,0.6939313066094681,13.0,132.0,0.0
G,D,"[5, 6]",0.0,1.0,0.1820991039276123,1.7288260459899902,0.5566642655189513,13.0,133.0,0.0
B,L,"[5, 5]",0.0,1.0,0.20167303085327148,1.4645359516143799,0.2719929246988262,13.0,134.0,0.0
Y,R,"[5, 6]",0.0,1.0,0.2082509994506836,1.6380219459533691,0.42669592090439074,13.0,135.0,0.0
Y,R,"[5, 7]",1.0,2.0,0.16887307167053223,1.7364530563354492,0.5798720733124056,13.0,136.0,0.0
Y,R,"[5, 8]",1.0,3.0,0.1980571746826172,1.8326730728149414,0.6300089045535249,13.0,137.0,0.0
G,D,"[6, 8]",1.0,4.0,0.1676177978515625,1.5370309352874756,0.3510327199973061,13.0,138.0,0.0
B,L,"[6, 7]",0.0,4.0,0.25430893898010254,1.6406879425048828,0.37512109153472795,13.0,139.0,0.0
R,U,"[5, 7]",0.0,4.0,0.3829669952392578,2.0311169624328613,0.6561997410327836,13.0,140.0,0.0
,,"(6, 6)",,,,,,13.0,,
R,U,"[5, 6]",1.0,1.0,0.6824939250946045,3.5483198165893555,0.3058887065351326,,141.0,0.0
B,L,"[5, 5]",0.0,1.0,0.27119922637939453,1.8886380195617676,0.611343340058569,14.0,142.0,0.0
G,D,"[6, 5]",0.0,1.0,0.2256450653076172,1.5986580848693848,0.37718461807078085,14.0,143.0,0.0
Y,R,"[6, 6]",0.0,1.0,0.24766802787780762,1.5830960273742676,0.34395114561670687,14.0,144.0,0.0
Y,R,"[6, 7]",0.0,1.0,0.36839914321899414,1.7121140956878662,0.35644721985598227,14.0,145.0,0.0
Y,R,"[6, 8]",1.0,2.0,0.27280402183532715,1.9425270557403564,0.6656235259681906,14.0,146.0,0.0
Y,R,"[6, 9]",1.0,3.0,0.17887401580810547,1.5614988803863525,0.37801493338565073,14.0,147.0,0.0
G,D,"[7, 9]",-2.0,3.0,1.2867140769958496,2.8632051944732666,0.5581665837031837,14.0,148.0,0.0
G,D,"[8, 9]",0.0,3.0,0.21662402153015137,1.739393949508667,0.5311588028165892,14.0,149.0,0.0
R,U,"[7, 9]",0.0,3.0,0.17748308181762695,1.870879888534546,0.6856401140936179,14.0,150.0,0.0
,,"(6, 6)",,,,,,14.0,,
R,U,"[5, 6]",1.0,1.0,0.5403439998626709,3.8762290477752686,0.6460399431565871,,151.0,0.0
Y,R,"[5, 7]",1.0,2.0,0.1746230125427246,1.508538007736206,0.32181970260168785,15.0,152.0,0.0
B,L,"[5, 6]",0.0,2.0,0.3215150833129883,1.9062740802764893,0.5780531713529473,15.0,153.0,0.0
G,D,"[6, 6]",0.0,2.0,0.25368189811706543,1.691025972366333,0.43626275496093214,15.0,154.0,0.0
B,L,"[6, 5]",0.0,2.0,0.5057389736175537,2.0268068313598633,0.5132566736521638,15.0,155.0,0.0
G,D,"[7, 5]",0.0,2.0,0.1887969970703125,1.8371639251708984,0.6340526082453701,15.0,156.0,0.0
R,U,"[6, 5]",0.0,2.0,0.17311501502990723,1.7717158794403076,0.5894520586949015,15.0,157.0,0.0
Y,R,"[6, 6]",-1.0,2.0,0.08551502227783203,5.883902072906494,0.6745507335149759,15.0,158.0,0.0
Y,R,"[6, 7]",0.0,2.0,0.1893329620361328,1.548994779586792,0.3575832188772076,15.0,159.0,0.0
Y,R,"[6, 8]",1.0,3.0,0.18262696266174316,1.469177007675171,0.27708917770550184,15.0,160.0,0.0
,,"(6, 6)",,,,,,15.0,,
R,U,"[5, 6]",1.0,1.0,0.5017600059509277,5.71460485458374,0.3090864321151013,,161.0,0.0
Y,R,"[5, 7]",1.0,2.0,0.215378999710083,1.891239881515503,0.6836635594961027,16.0,162.0,0.0
Y,R,"[5, 8]",1.0,3.0,0.4384129047393799,1.8979661464691162,0.4655683870095544,16.0,163.0,0.0
B,L,"[5, 7]",0.0,3.0,0.2694699764251709,1.62198805809021,0.3379280848643528,16.0,164.0,0.0
B,L,"[5, 6]",0.0,3.0,0.21272706985473633,1.6978089809417725,0.48607717289467456,16.0,165.0,0.0
G,D,"[6, 6]",0.0,3.0,0.3368089199066162,1.9484999179840088,0.6012953273372285,16.0,166.0,0.0
B,L,"[6, 5]",0.0,3.0,0.26001501083374023,1.831934928894043,0.5668438183931159,16.0,167.0,0.0
Y,R,"[6, 6]",0.0,3.0,0.16959714889526367,1.7927870750427246,0.6098003800882594,16.0,168.0,0.0
Y,R,"[6, 7]",0.0,3.0,0.1614539623260498,1.6202588081359863,0.4640013661702515,16.0,169.0,0.0
Y,R,"[6, 8]",1.0,4.0,0.18646597862243652,1.5881450176239014,0.3858477415967533,16.0,170.0,0.0
,,"(6, 6)",,,,,,16.0,,
R,U,"[5, 6]",-2.0,0.0,1.0280709266662598,4.794656038284302,0.4645898597985802,,171.0,0.0
R,U,"[4, 6]",0.0,0.0,0.20421886444091797,1.562952995300293,0.34453538409678525,17.0,172.0,0.0
Y,R,"[4, 7]",0.0,0.0,0.16914987564086914,1.556506872177124,0.38444139977024083,17.0,173.0,0.0
Y,R,"[4, 8]",0.0,0.0,0.18856000900268555,1.6885027885437012,0.4899054483168605,17.0,174.0,0.0
B,L,"[4, 7]",-1.0,0.0,0.01961517333984375,5.4584479331970215,0.31589684729095574,17.0,175.0,0.0
G,D,"[5, 7]",1.0,1.0,0.2737290859222412,1.8759219646453857,0.5918673200946984,17.0,176.0,0.0
G,D,"[6, 7]",0.0,1.0,0.20518207550048828,1.7352120876312256,0.5272975864686054,17.0,177.0,0.0
B,L,"[6, 6]",0.0,1.0,0.19495391845703125,1.7146320343017578,0.5255538167119391,17.0,178.0,0.0
R,U,"[5, 6]",0.0,1.0,0.25647997856140137,1.9611811637878418,0.7034766643885917,17.0,179.0,0.0
Y,R,"[5, 7]",0.0,1.0,0.16361212730407715,1.7800500392913818,0.617356816886142,17.0,180.0,0.0
,,"(6, 6)",,,,,,17.0,,
R,U,"[5, 6]",1.0,1.0,0.8001651763916016,4.619516134262085,0.4211569642376761,,181.0,0.0
Y,R,"[5, 7]",1.0,2.0,0.16669917106628418,1.6818161010742188,0.5031013756091949,18.0,182.0,0.0
Y,R,"[5, 8]",1.0,3.0,0.15264010429382324,1.7916929721832275,0.6281248458731042,18.0,183.0,0.0
B,L,"[5, 7]",0.0,3.0,0.15234804153442383,1.695997953414917,0.5412509085324393,18.0,184.0,0.0
G,D,"[6, 7]",0.0,3.0,0.19230890274047852,1.5658848285675049,0.37416190503314045,18.0,185.0,0.0
G,D,"[7, 7]",0.0,3.0,0.29375410079956055,1.746401071548462,0.4541654550248208,18.0,186.0,0.0
B,L,"[7, 6]",0.0,3.0,0.20153212547302246,1.940783977508545,0.7446231853811097,18.0,187.0,0.0
Y,R,"[7, 7]",0.0,3.0,0.15548491477966309,1.5056660175323486,0.3511184646194566,18.0,188.0,0.0
Y,R,"[7, 8]",0.0,3.0,0.22591710090637207,1.538640022277832,0.3067069276312845,18.0,189.0,0.0
Y,R,"[7, 9]",0.0,3.0,0.2516171932220459,1.5265378952026367,0.2835061718604106,18.0,190.0,0.0
,,"(6, 6)",,,,,,18.0,,
R,U,"[5, 6]",1.0,1.0,0.7187209129333496,3.5795280933380127,0.5625606287970664,,191.0,0.0
Y,R,"[5, 7]",1.0,2.0,0.1411130428314209,1.836205005645752,0.6825676336868944,19.0,192.0,0.0
Y,R,"[5, 8]",-1.0,2.0,0.017167091369628906,5.566652059555054,0.4170763640575832,19.0,193.0,0.0
Y,R,"[5, 9]",0.0,2.0,0.2258319854736328,1.6422250270843506,0.4093946464474424,19.0,194.0,0.0
B,L,"[5, 8]",0.0,2.0,0.17900896072387695,1.6770589351654053,0.5035592517734698,19.0,195.0,0.0
G,D,"[6, 8]",1.0,3.0,0.21924614906311035,1.5431420803070068,0.3301060687073932,19.0,196.0,0.0
G,D,"[7, 8]",0.0,3.0,0.24608683586120605,1.6500029563903809,0.3969422351316709,19.0,197.0,0.0
Y,R,"[7, 9]",0.0,3.0,0.2339460849761963,1.5777380466461182,0.34154510630006113,19.0,198.0,0.0
R,U,"[6, 9]",1.0,4.0,0.3492288589477539,1.7077391147613525,0.333078001635968,19.0,199.0,0.0
R,U,"[5, 9]",0.0,4.0,0.24588489532470703,1.8942170143127441,0.6437237159712121,19.0,200.0,0.0
,,"(6, 6)",,,,,,19.0,,
R,U,"[5, 6]",1.0,1.0,0.7784919738769531,7.8305041790008545,0.7086342252043498,,201.0,0.0
Y,R,"[5, 7]",1.0,2.0,0.14633584022521973,1.7916529178619385,0.650451682025328,20.0,202.0,0.0
Y,R,"[5, 8]",1.0,3.0,0.1294698715209961,1.4739689826965332,0.34159582600670746,20.0,203.0,0.0
B,L,"[5, 7]",0.0,3.0,0.3287620544433594,1.731727123260498,0.406702770143796,20.0,204.0,0.0
B,L,"[5, 6]",0.0,3.0,0.2217271327972412,1.643193006515503,0.43337110339938206,20.0,205.0,0.0
Y,R,"[5, 7]",0.0,3.0,0.365476131439209,1.852165937423706,0.4856843707071016,20.0,206.0,0.0
R,U,"[4, 7]",0.0,3.0,0.14577102661132812,1.8733150959014893,0.7254980727794703,20.0,207.0,0.0
R,U,"[3, 7]",0.0,3.0,0.20205402374267578,1.7889580726623535,0.5982500700422784,20.0,208.0,0.0
G,D,"[4, 7]",0.0,3.0,0.1890261173248291,1.5555140972137451,0.37084824200274924,20.0,209.0,0.0
Y,R,"[4, 8]",0.0,3.0,0.2048959732055664,1.6398439407348633,0.42735771756163454,20.0,210.0,0.0
,,"(6, 6)",,,,,,20.0,,
R,U,"[5, 6]",1.0,1.0,0.9532701969146729,3.775614023208618,0.47008267108762763,,211.0,0.0
Y,R,"[5, 7]",1.0,2.0,0.2054901123046875,1.9440360069274902,0.7473405683010925,21.0,212.0,0.0
Y,R,"[5, 8]",1.0,3.0,0.1487560272216797,1.707123041152954,0.554953479724618,21.0,213.0,0.0
G,D,"[6, 8]",1.0,4.0,0.23255300521850586,1.6266310214996338,0.3818629763991935,21.0,214.0,0.0
G,D,"[7, 8]",0.0,4.0,0.27669787406921387,1.7489299774169922,0.4642809204048265,21.0,215.0,0.0
B,L,"[7, 7]",0.0,4.0,0.26259684562683105,1.8703010082244873,0.6012833196174987,21.0,216.0,0.0
Y,R,"[7, 8]",0.0,4.0,0.20291495323181152,1.5035028457641602,0.28861385945517765,21.0,217.0,0.0
R,U,"[6, 8]",0.0,4.0,0.3469090461730957,1.8429858684539795,0.49828398086077963,21.0,218.0,0.0
R,U,"[5, 8]",0.0,4.0,0.17074012756347656,1.739001989364624,0.5539868618399673,21.0,219.0,0.0
R,U,"[4, 8]",0.0,4.0,0.18244385719299316,1.6249489784240723,0.44584441537345054,21.0,220.0,0.0
,,"(6, 6)",,,,,,21.0,,
R,U,"[5, 6]",-2.0,0.0,1.1036880016326904,3.8258919715881348,0.5886602308360722,,221.0,0.0
Y,R,"[5, 7]",1.0,1.0,0.17389988899230957,1.4635450839996338,0.28594523574813113,22.0,222.0,0.0
Y,R,"[5, 8]",1.0,2.0,0.22853302955627441,1.713487148284912,0.48284694156661034,22.0,223.0,0.0
G,D,"[6, 8]",1.0,3.0,0.25776004791259766,1.6714320182800293,0.40443326493403375,22.0,224.0,0.0
B,L,"[6, 7]",0.0,3.0,0.21486496925354004,1.5673019886016846,0.35537150391424144,22.0,225.0,0.0
R,U,"[5, 7]",0.0,3.0,0.2943689823150635,1.827759027481079,0.5330888528186617,22.0,226.0,0.0
Y,R,"[5, 8]",0.0,3.0,0.17168116569519043,1.6745870113372803,0.49108953254459187,22.0,227.0,0.0
R,U,"[4, 8]",-1.0,3.0,0.009855985641479492,5.680814027786255,0.5557763034614992,22.0,228.0,0.0
R,U,"[3, 8]",0.0,3.0,0.34755682945251465,2.0640180110931396,0.7198978386353814,22.0,229.0,0.0
Y,R,"[3, 9]",1.0,4.0,0.1847071647644043,1.6131188869476318,0.41672134639960423,22.0,230.0,0.0
,,"(6, 6)",,,,,,22.0,,
R,U,"[5, 6]",1.0,1.0,0.881817102432251,5.298026084899902,0.33192997427707355,,231.0,0.0
Y,R,"[5, 7]",1.0,2.0,0.19574403762817383,1.8662259578704834,0.6647114187954415,23.0,232.0,0.0
Y,R,"[5, 8]",-1.0,2.0,0.08396792411804199,5.825374126434326,0.6071724015100355,23.0,233.0,0.0
G,D,"[6, 8]",-2.0,2.0,1.616204023361206,3.219149112701416,0.5766635482770541,23.0,234.0,0.0
Y,R,"[6, 9]",1.0,3.0,0.20189595222473145,1.5971441268920898,0.39077248497728867,23.0,235.0,0.0
Y,R,"[6, 10]",1.0,4.0,0.23476696014404297,1.991016149520874,0.7483695158152417,23.0,236.0,0.0
Y,R,"[6, 11]",0.0,4.0,0.17700886726379395,1.8808650970458984,0.6962943542884563,23.0,237.0,0.0
Y,R,"[6, 12]",-3.0,4.0,0.3847808837890625,1.767091989517212,0.38036894462327686,23.0,238.0,0.0
R,U,"[6, 11]",0.0,4.0,0.4038569927215576,1.843430995941162,0.423928487532845,23.0,239.0,0.0
G,D,"[7, 11]",0.0,4.0,0.3606131076812744,1.853018045425415,0.4937210016839623,23.0,240.0,0.0
,,"(6, 6)",,,,,,23.0,,
R,U,"[5, 6]",1.0,1.0,0.8761389255523682,7.10781192779541,0.6184842063266034,,241.0,0.0
Y,R,"[5, 7]",1.0,2.0,0.13536596298217773,1.3995249271392822,0.2684151737986777,24.0,242.0,0.0
Y,R,"[5, 8]",1.0,3.0,0.30639100074768066,2.0156590938568115,0.7005386599273555,24.0,243.0,0.0
G,D,"[6, 8]",1.0,4.0,0.16979479789733887,1.865727186203003,0.683083178326719,24.0,244.0,0.0
Y,R,"[6, 9]",1.0,5.0,0.16829204559326172,1.904176950454712,0.7205998910282784,24.0,245.0,0.0
R,U,"[5, 9]",0.0,5.0,0.16326403617858887,1.9077918529510498,0.7451903340610377,24.0,246.0,0.0
G,D,"[6, 9]",0.0,5.0,0.16757512092590332,1.6850841045379639,0.5307170021136928,24.0,247.0,0.0
Y,R,"[6, 10]",1.0,6.0,0.22322893142700195,1.5784289836883545,0.3429423783391048,24.0,248.0,0.0
Y,R,"[6, 11]",0.0,6.0,0.2798771858215332,1.7520480155944824,0.4782787213527452,24.0,249.0,0.0
G,D,"[7, 11]",0.0,6.0,0.8669259548187256,2.262421131134033,0.40736932727605557,24.0,250.0,0.0
,,"(6, 6)",,,,,,24.0,,
R,U,"[5, 6]",-2.0,0.0,1.0505478382110596,5.7272820472717285,0.7347706744511822,,251.0,0.0
Y,R,"[5, 7]",1.0,1.0,0.17008185386657715,1.7998480796813965,0.6182310610928519,25.0,252.0,0.0
Y,R,"[5, 8]",1.0,2.0,0.16136598587036133,1.6495461463928223,0.4846154718631391,25.0,253.0,0.0
G,D,"[6, 8]",1.0,3.0,0.23518610000610352,1.9693660736083984,0.7204940057618567,25.0,254.0,0.0
Y,R,"[6, 9]",1.0,4.0,0.18451809883117676,1.938474178314209,0.7425145585895846,25.0,255.0,0.0
R,U,"[5, 9]",0.0,4.0,0.17228293418884277,1.450165033340454,0.27665113305364436,25.0,256.0,0.0
B,L,"[5, 8]",0.0,4.0,0.33928394317626953,1.9122490882873535,0.5888003175629739,25.0,257.0,0.0
Y,R,"[5, 9]",0.0,4.0,0.3377530574798584,1.895522117614746,0.5675872342454671,25.0,258.0,0.0
R,U,"[4, 9]",1.0,5.0,0.21993803977966309,1.6674220561981201,0.4353300867002858,25.0,259.0,0.0
R,U,"[3, 9]",1.0,6.0,0.35219788551330566,1.6736719608306885,0.30914631909666407,25.0,260.0,0.0
,,"(6, 6)",,,,,,25.0,,
R,U,"[5, 6]",1.0,1.0,0.7608418464660645,3.6956191062927246,0.35508851967127725,,261.0,0.0
Y,R,"[5, 7]",1.0,2.0,0.34770798683166504,1.9672141075134277,0.5887331260285371,26.0,262.0,0.0
Y,R,"[5, 8]",1.0,3.0,0.21120691299438477,1.838447093963623,0.6274231953171473,26.0,263.0,0.0
G,D,"[6, 8]",1.0,4.0,0.20593690872192383,1.8957290649414062,0.6897644349340505,26.0,264.0,0.0
Y,R,"[6, 9]",1.0,5.0,0.2730269432067871,1.9330081939697266,0.6562846890664084,26.0,265.0,0.0
B,L,"[6, 8]",0.0,5.0,0.215576171875,1.7406749725341797,0.5303510455605955,26.0,266.0,0.0
G,D,"[7, 8]",0.0,5.0,0.31485509872436523,1.618149995803833,0.2989405372867365,26.0,267.0,0.0
Y,R,"[7, 9]",0.0,5.0,0.30127906799316406,1.600679874420166,0.2996587696865642,26.0,268.0,0.0
R,U,"[6, 9]",0.0,5.0,0.2563009262084961,1.6245388984680176,0.3575392206009185,26.0,269.0,0.0
Y,R,"[6, 10]",1.0,6.0,0.24048113822937012,1.8975839614868164,0.655072461028163,26.0,270.0,0.0
,,"(6, 6)",,,,,,26.0,,
R,U,"[5, 6]",1.0,1.0,0.9009289741516113,3.721190929412842,0.3434559458366118,,271.0,0.0
Y,R,"[5, 7]",1.0,2.0,0.4921689033508301,1.8290178775787354,0.3392472357052798,27.0,272.0,0.0
Y,R,"[5, 8]",1.0,3.0,0.2218489646911621,1.9115228652954102,0.7004002781377889,27.0,273.0,0.0
G,D,"[6, 8]",1.0,4.0,0.1603560447692871,1.4765379428863525,0.3107359707012104,27.0,274.0,0.0
Y,R,"[6, 9]",1.0,5.0,0.28156495094299316,1.7874741554260254,0.4814892076562724,27.0,275.0,0.0
B,L,"[6, 8]",0.0,5.0,0.20467877388000488,1.7543129920959473,0.5525419074684645,27.0,276.0,0.0
G,D,"[7, 8]",0.0,5.0,0.2186570167541504,1.579944133758545,0.36605384355252063,27.0,277.0,0.0
Y,R,"[7, 9]",0.0,5.0,0.24738383293151855,1.6617820262908936,0.4114393952838836,27.0,278.0,0.0
Y,R,"[7, 10]",0.0,5.0,0.41637301445007324,2.063467025756836,0.657815347710897,27.0,279.0,0.0
Y,R,"[7, 11]",0.0,5.0,0.21975302696228027,1.9408299922943115,0.6987722144137036,27.0,280.0,0.0
,,"(6, 6)",,,,,,27.0,,
R,U,"[5, 6]",1.0,1.0,0.7547650337219238,3.6407840251922607,0.4900453438151172,,281.0,0.0
Y,R,"[5, 7]",1.0,2.0,0.20964980125427246,1.6059339046478271,0.39605095094847453,28.0,282.0,0.0
Y,R,"[5, 8]",1.0,3.0,0.25716495513916016,1.7284879684448242,0.45819423530945014,28.0,283.0,0.0
G,D,"[6, 8]",1.0,4.0,0.22345995903015137,1.8124210834503174,0.5869378165675754,28.0,284.0,0.0
B,L,"[6, 7]",0.0,4.0,0.26053786277770996,1.7262070178985596,0.4632750852073771,28.0,285.0,0.0
Y,R,"[6, 8]",0.0,4.0,0.2824718952178955,1.6085238456726074,0.32213856254312734,28.0,286.0,0.0
R,U,"[5, 8]",0.0,4.0,0.3735840320587158,2.0384719371795654,0.6604255430666326,28.0,287.0,0.0
G,D,"[6, 8]",0.0,4.0,0.2872960567474365,1.612548828125,0.32338202054394233,28.0,288.0,0.0
R,U,"[5, 8]",0.0,4.0,0.20243000984191895,1.497053861618042,0.30377875724821346,28.0,289.0,0.0
R,U,"[4, 8]",0.0,4.0,0.3774590492248535,2.104290008544922,0.7246556272565196,28.0,290.0,0.0
,,"(6, 6)",,,,,,28.0,,
R,U,"[5, 6]",1.0,1.0,0.7699029445648193,4.5873870849609375,0.5458079797139213,,291.0,0.0
Y,R,"[5, 7]",1.0,2.0,0.21091890335083008,1.515275001525879,0.31134789781502314,29.0,292.0,0.0
Y,R,"[5, 8]",1.0,3.0,0.3101308345794678,1.9400608539581299,0.6343548142383957,29.0,293.0,0.0
G,D,"[6, 8]",1.0,4.0,0.20596885681152344,1.6810338497161865,0.4655630761286061,29.0,294.0,0.0
R,U,"[5, 8]",0.0,4.0,0.39527201652526855,1.6977488994598389,0.29692085567853904,29.0,295.0,0.0
Y,R,"[5, 9]",0.0,4.0,0.40617799758911133,1.8297460079193115,0.409976332580309,29.0,296.0,0.0
G,D,"[6, 9]",1.0,5.0,0.5162160396575928,2.006377935409546,0.4830733510251307,29.0,297.0,0.0
G,D,"[7, 9]",0.0,5.0,0.31998205184936523,1.8128669261932373,0.47936275600928907,29.0,298.0,0.0
Y,R,"[7, 10]",0.0,5.0,0.3250868320465088,1.8444709777832031,0.5073436966136571,29.0,299.0,0.0
R,U,"[6, 10]",1.0,6.0,0.22086787223815918,1.5074129104614258,0.28171348705250787,29.0,300.0,0.0
,,"(6, 6)",,,,,,29.0,,
R,U,"[5, 6]",1.0,1.0,0.7010509967803955,4.252441883087158,0.6339886467060107,,301.0,0.0
Y,R,"[5, 7]",1.0,2.0,0.19433283805847168,1.5507628917694092,0.35161159084422794,30.0,302.0,0.0
Y,R,"[5, 8]",1.0,3.0,0.2823808193206787,2.00307297706604,0.7209324520590142,30.0,303.0,0.0
G,D,"[6, 8]",1.0,4.0,0.21952295303344727,1.8231279850006104,0.5943179657964711,30.0,304.0,0.0
Y,R,"[6, 9]",1.0,5.0,0.20288991928100586,1.907977819442749,0.70229713358592,30.0,305.0,0.0
G,D,"[7, 9]",0.0,5.0,0.4591701030731201,2.1854140758514404,0.7210035609447574,30.0,306.0,0.0
G,D,"[8, 9]",0.0,5.0,0.6370010375976562,2.020430088043213,0.3754758598273473,30.0,307.0,0.0
G,D,"[9, 9]",0.0,5.0,0.3174140453338623,1.713670015335083,0.4055509458303284,30.0,308.0,0.0
B,L,"[9, 8]",0.0,5.0,0.23771214485168457,1.708380937576294,0.46407608460520094,30.0,309.0,0.0
Y,R,"[9, 9]",0.0,5.0,0.21135401725769043,1.6043269634246826,0.38519815099556015,30.0,310.0,0.0
,,"(6, 6)",,,,,,30.0,,
R,U,"[5, 6]",1.0,1.0,0.8257880210876465,3.431774854660034,0.350467513025311,,311.0,0.0
Y,R,"[5, 7]",1.0,2.0,0.21089386940002441,1.5243549346923828,0.30820392837856403,31.0,312.0,0.0
Y,R,"[5, 8]",1.0,3.0,0.31034398078918457,2.05505108833313,0.74627006028995,31.0,313.0,0.0
G,D,"[6, 8]",1.0,4.0,0.23087310791015625,1.8598461151123047,0.5896901209134409,31.0,314.0,0.0
Y,R,"[6, 9]",1.0,5.0,0.1938180923461914,1.692080020904541,0.4986010773358445,31.0,315.0,0.0
Y,R,"[6, 10]",1.0,6.0,0.21306705474853516,1.9502489566802979,0.7321499136293763,31.0,316.0,0.0
R,U,"[5, 10]",1.0,7.0,0.18620896339416504,1.7224960327148438,0.5215393291969648,31.0,317.0,0.0
B,L,"[5, 9]",0.0,7.0,0.28395986557006836,2.025244951248169,0.7464339640433616,31.0,318.0,0.0
Y,R,"[5, 10]",-2.0,7.0,1.187088966369629,2.749224901199341,0.5294566115127549,31.0,319.0,0.0
Y,R,"[5, 11]",0.0,7.0,0.5281860828399658,2.235811233520508,0.6983524495683547,31.0,320.0,0.0
,,"(6, 6)",,,,,,31.0,,
R,U,"[5, 6]",1.0,1.0,0.6976120471954346,3.621854066848755,0.37077405200213337,,321.0,0.0
Y,R,"[5, 7]",1.0,2.0,0.23114991188049316,1.9284751415252686,0.6823351403252802,32.0,322.0,0.0
Y,R,"[5, 8]",1.0,3.0,0.16704702377319336,1.7557320594787598,0.5714473808918699,32.0,323.0,0.0
G,D,"[6, 8]",1.0,4.0,0.19117999076843262,1.566965103149414,0.3720863742363082,32.0,324.0,0.0
Y,R,"[6, 9]",1.0,5.0,0.21365118026733398,1.640523910522461,0.429158931496113,32.0,325.0,0.0
Y,R,"[6, 10]",1.0,6.0,0.22942805290222168,1.6516680717468262,0.4142713786944135,32.0,326.0,0.0
R,U,"[5, 10]",1.0,7.0,0.2016739845275879,1.6397409439086914,0.42077651676079,32.0,327.0,0.0
R,U,"[4, 10]",1.0,8.0,0.18901991844177246,1.8118739128112793,0.6157374647079548,32.0,328.0,0.0
Y,R,"[4, 11]",0.0,8.0,0.18389081954956055,1.898132085800171,0.7141268609222022,32.0,329.0,0.0
Y,R,"[4, 12]",-3.0,8.0,0.16877412796020508,1.8368761539459229,0.6675808285859739,32.0,330.0,0.0
,,"(6, 6)",,,,,,32.0,,
R,U,"[5, 6]",1.0,1.0,0.7387690544128418,5.09749698638916,0.6652269883093049,,331.0,0.0
Y,R,"[5, 7]",1.0,2.0,0.1757349967956543,1.4482808113098145,0.2638532672181166,33.0,332.0,0.0
Y,R,"[5, 8]",1.0,3.0,0.26504087448120117,1.57246994972229,0.28631540520619697,33.0,333.0,0.0
G,D,"[6, 8]",1.0,4.0,0.21166706085205078,1.6080691814422607,0.3943450671019429,33.0,334.0,0.0
Y,R,"[6, 9]",1.0,5.0,0.201308012008667,1.899935007095337,0.6941645482324448,33.0,335.0,0.0
Y,R,"[6, 10]",1.0,6.0,0.10139799118041992,1.3658850193023682,0.26057642506860595,33.0,336.0,0.0
R,U,"[5, 10]",1.0,7.0,0.2585868835449219,1.9102749824523926,0.6536308651336671,33.0,337.0,0.0
R,U,"[4, 10]",1.0,8.0,0.1628110408782959,1.6880691051483154,0.5252484963244786,33.0,338.0,0.0
B,L,"[4, 9]",1.0,9.0,0.22066497802734375,1.5085070133209229,0.28407973321601715,33.0,339.0,0.0
B,L,"[4, 8]",0.0,9.0,0.2740519046783447,1.5624620914459229,0.27987792984556514,33.0,340.0,0.0
,,"(6, 6)",,,,,,33.0,,
R,U,"[5, 6]",1.0,1.0,0.7062110900878906,3.5389959812164307,0.5355474973782426,,341.0,0.0
Y,R,"[5, 7]",1.0,2.0,0.18639612197875977,1.7052009105682373,0.5239715861079042,34.0,342.0,0.0
Y,R,"[5, 8]",1.0,3.0,0.19242000579833984,1.4882898330688477,0.29582511226358577,34.0,343.0,0.0
G,D,"[6, 8]",1.0,4.0,0.27121996879577637,1.9771230220794678,0.6726076330667512,34.0,344.0,0.0
Y,R,"[6, 9]",1.0,5.0,0.17377591133117676,1.8715190887451172,0.6943519528852122,34.0,345.0,0.0
Y,R,"[6, 10]",1.0,6.0,0.1623060703277588,1.5536909103393555,0.39821670886391003,34.0,346.0,0.0
R,U,"[5, 10]",1.0,7.0,0.22571802139282227,1.6866109371185303,0.4515066214352407,34.0,347.0,0.0
B,L,"[5, 9]",0.0,7.0,0.34938693046569824,1.6358308792114258,0.2875935579591305,34.0,348.0,0.0
B,L,"[5, 8]",0.0,7.0,0.31614184379577637,2.041546106338501,0.7286582373732674,34.0,349.0,0.0
G,D,"[6, 8]",0.0,7.0,0.6607038974761963,1.9081320762634277,0.2541513214221242,34.0,350.0,0.0
,,"(6, 6)",,,,,,34.0,,
R,U,"[5, 6]",1.0,1.0,0.7177231311798096,3.526215076446533,0.5634351780578453,,351.0,0.0
Y,R,"[5, 7]",1.0,2.0,0.21396303176879883,1.506631851196289,0.27044092979213513,35.0,352.0,0.0
Y,R,"[5, 8]",1.0,3.0,0.24377703666687012,1.748291015625,0.5018359280582023,35.0,353.0,0.0
G,D,"[6, 8]",1.0,4.0,0.22607684135437012,1.8021240234375,0.5707375409840966,35.0,354.0,0.0
Y,R,"[6, 9]",1.0,5.0,0.18892192840576172,1.9310591220855713,0.7348367707927479,35.0,355.0,0.0
Y,R,"[6, 10]",1.0,6.0,0.12212681770324707,1.4737069606781006,0.3423349187865653,35.0,356.0,0.0
R,U,"[5, 10]",1.0,7.0,0.23134994506835938,1.6815710067749023,0.4405544683887259,35.0,357.0,0.0
R,U,"[4, 10]",1.0,8.0,0.21193599700927734,1.8532419204711914,0.6434195966670495,35.0,358.0,0.0
B,L,"[4, 9]",1.0,9.0,0.2079300880432129,1.8323779106140137,0.6258192311631088,35.0,359.0,0.0
Y,R,"[4, 10]",0.0,9.0,0.41681504249572754,2.019604206085205,0.6123258811451573,35.0,360.0,0.0
,,"(6, 6)",,,,,,35.0,,
R,U,"[5, 6]",1.0,1.0,0.9430510997772217,3.585777997970581,0.39827904231444183,,361.0,0.0
Y,R,"[5, 7]",1.0,2.0,0.2181839942932129,1.693079948425293,0.4581616394751356,36.0,362.0,0.0
Y,R,"[5, 8]",1.0,3.0,0.20297503471374512,1.8950631618499756,0.6861492828094007,36.0,363.0,0.0
G,D,"[6, 8]",1.0,4.0,0.19109606742858887,1.7004189491271973,0.5034480078330708,36.0,364.0,0.0
Y,R,"[6, 9]",1.0,5.0,0.2089240550994873,1.5058259963989258,0.292696025686367,36.0,365.0,0.0
Y,R,"[6, 10]",1.0,6.0,0.2740800380706787,1.9934592247009277,0.7192705315267633,36.0,366.0,0.0
R,U,"[5, 10]",1.0,7.0,0.2373638153076172,1.5025651454925537,0.2556465218114746,36.0,367.0,0.0
R,U,"[4, 10]",1.0,8.0,0.2761988639831543,1.8910510540008545,0.6131094710449052,36.0,368.0,0.0
B,L,"[4, 9]",1.0,9.0,0.2694270610809326,1.9803440570831299,0.6933712319357698,36.0,369.0,0.0
R,U,"[3, 9]",1.0,10.0,0.21691107749938965,1.8293819427490234,0.6064730923018813,36.0,370.0,0.0
,,"(6, 6)",,,,,,36.0,,
R,U,"[5, 6]",1.0,1.0,0.730363130569458,4.284188985824585,0.740450645059791,,371.0,0.0
Y,R,"[5, 7]",1.0,2.0,0.17518186569213867,1.475003957748413,0.29905613759461686,37.0,372.0,0.0
Y,R,"[5, 8]",1.0,3.0,0.1763908863067627,1.8557260036468506,0.6712321488664574,37.0,373.0,0.0
G,D,"[6, 8]",1.0,4.0,0.17978119850158691,1.6593859195709229,0.464377552524649,37.0,374.0,0.0
Y,R,"[6, 9]",1.0,5.0,0.21843385696411133,1.4926729202270508,0.25700200045362,37.0,375.0,0.0
Y,R,"[6, 10]",1.0,6.0,0.23405814170837402,1.9335238933563232,0.6901220977752751,37.0,376.0,0.0
R,U,"[5, 10]",1.0,7.0,0.20080804824829102,1.5904722213745117,0.3810028317328267,37.0,377.0,0.0
R,U,"[4, 10]",1.0,8.0,0.16693806648254395,1.6388130187988281,0.4530007853482216,37.0,378.0,0.0
B,L,"[4, 9]",1.0,9.0,0.2455911636352539,1.7866711616516113,0.5396110574204909,37.0,379.0,0.0
R,U,"[3, 9]",1.0,10.0,0.18155598640441895,1.6130990982055664,0.43615714645118125,37.0,380.0,0.0
,,"(6, 6)",,,,,,37.0,,
R,U,"[5, 6]",1.0,1.0,0.8147878646850586,3.681756019592285,0.5512799491870632,,381.0,0.0
Y,R,"[5, 7]",-1.0,1.0,0.09208202362060547,5.650102138519287,0.4181870909250311,38.0,382.0,0.0
R,U,"[4, 7]",0.0,1.0,0.28583812713623047,1.9267370700836182,0.628078821849811,38.0,383.0,0.0
Y,R,"[4, 8]",-2.0,1.0,1.144110918045044,2.4411568641662598,0.2698098081579912,38.0,384.0,0.0
Y,R,"[4, 9]",1.0,2.0,0.37328505516052246,1.870607852935791,0.4900993314761611,38.0,385.0,0.0
G,D,"[5, 9]",0.0,2.0,0.24776697158813477,1.8308038711547852,0.5875140116041256,38.0,386.0,0.0
B,L,"[5, 8]",1.0,3.0,0.20965194702148438,1.9275429248809814,0.7149505914605614,38.0,387.0,0.0
R,U,"[4, 8]",0.0,3.0,0.16906309127807617,1.5729138851165771,0.4048531413370179,38.0,388.0,0.0
Y,R,"[4, 9]",0.0,3.0,0.25840091705322266,1.656775951385498,0.3950879307320954,38.0,389.0,0.0
Y,R,"[4, 10]",1.0,4.0,0.4024488925933838,1.85784912109375,0.452805340196533,38.0,390.0,0.0
,,"(6, 6)",,,,,,38.0,,
R,U,"[5, 6]",1.0,1.0,0.7206120491027832,3.644942045211792,0.5975380435960439,,391.0,0.0
Y,R,"[5, 7]",1.0,2.0,0.20809507369995117,1.6409838199615479,0.42221467868382795,39.0,392.0,0.0
Y,R,"[5, 8]",1.0,3.0,0.2066788673400879,1.6125969886779785,0.40132882759035665,39.0,393.0,0.0
G,D,"[6, 8]",1.0,4.0,0.2181260585784912,1.483185052871704,0.2515633141952132,39.0,394.0,0.0
Y,R,"[6, 9]",1.0,5.0,0.22886013984680176,1.8844108581542969,0.6523572546308459,39.0,395.0,0.0
Y,R,"[6, 10]",1.0,6.0,0.12304210662841797,1.455833911895752,0.32492652717843895,39.0,396.0,0.0
R,U,"[5, 10]",1.0,7.0,0.25655412673950195,1.9526348114013672,0.6943874550287724,39.0,397.0,0.0
R,U,"[4, 10]",1.0,8.0,0.1506190299987793,1.6944289207458496,0.5386446897220012,39.0,398.0,0.0
B,L,"[4, 9]",1.0,9.0,0.19777894020080566,1.870915174484253,0.676468532609626,39.0,399.0,0.0
R,U,"[3, 9]",1.0,10.0,0.25305795669555664,1.545295000076294,0.2884041647079277,39.0,400.0,0.0
,,"(6, 6)",,,,,,39.0,,
R,U,"[5, 6]",1.0,1.0,0.6568279266357422,3.085019826889038,0.38997129295894606,,401.0,0.0
Y,R,"[5, 7]",1.0,2.0,0.23099398612976074,1.7336008548736572,0.49020950013340653,40.0,402.0,0.0
Y,R,"[5, 8]",1.0,3.0,0.18470406532287598,1.5300509929656982,0.33705090505447544,40.0,403.0,0.0
G,D,"[6, 8]",1.0,4.0,0.3022279739379883,1.775712013244629,0.46271190545044255,40.0,404.0,0.0
Y,R,"[6, 9]",1.0,5.0,0.22906994819641113,1.5632741451263428,0.3260525605592111,40.0,405.0,0.0
Y,R,"[6, 10]",1.0,6.0,0.23616600036621094,1.6968050003051758,0.4562078602765206,40.0,406.0,0.0
R,U,"[5, 10]",1.0,7.0,0.24959301948547363,1.7506258487701416,0.490054389312518,40.0,407.0,0.0
R,U,"[4, 10]",1.0,8.0,0.2091820240020752,1.6036019325256348,0.3935893936385017,40.0,408.0,0.0
B,L,"[4, 9]",1.0,9.0,0.2612590789794922,1.5477662086486816,0.29176627888859274,40.0,409.0,0.0
R,U,"[3, 9]",1.0,10.0,0.29840898513793945,1.6387810707092285,0.34702394887949145,40.0,410.0,0.0
,,"(6, 6)",,,,,,40.0,,
R,U,"[5, 6]",1.0,1.0,0.7164778709411621,3.5845470428466797,0.5312925704066276,,411.0,0.0
Y,R,"[5, 7]",1.0,2.0,0.17629504203796387,1.602086067199707,0.4169589282418396,41.0,412.0,0.0
Y,R,"[5, 8]",1.0,3.0,0.21120309829711914,1.6544930934906006,0.43813134227648004,41.0,413.0,0.0
G,D,"[6, 8]",1.0,4.0,0.27207112312316895,1.8162841796875,0.5375660539595448,41.0,414.0,0.0
Y,R,"[6, 9]",1.0,5.0,0.2096271514892578,1.6521849632263184,0.43987349899987044,41.0,415.0,0.0
Y,R,"[6, 10]",1.0,6.0,0.22924113273620605,1.7193849086761475,0.49256719143347133,41.0,416.0,0.0
R,U,"[5, 10]",1.0,7.0,0.32604193687438965,1.7184958457946777,0.3944559029678219,41.0,417.0,0.0
R,U,"[4, 10]",1.0,8.0,0.22949719429016113,1.525528907775879,0.30338853106182995,41.0,418.0,0.0
B,L,"[4, 9]",1.0,9.0,0.2616591453552246,1.6296908855438232,0.36639086718735153,41.0,419.0,0.0
R,U,"[3, 9]",1.0,10.0,0.20041799545288086,1.542348861694336,0.3254193358483496,41.0,420.0,0.0
,,"(6, 6)",,,,,,41.0,,
R,U,"[5, 6]",1.0,1.0,0.9656598567962646,3.2254250049591064,0.46731789869122137,,421.0,0.0
Y,R,"[5, 7]",1.0,2.0,0.18749618530273438,1.827476978302002,0.6281093470240475,42.0,422.0,0.0
Y,R,"[5, 8]",1.0,3.0,0.16570711135864258,1.86639404296875,0.694437701632654,42.0,423.0,0.0
G,D,"[6, 8]",1.0,4.0,0.21753406524658203,1.5184478759765625,0.29670530251759236,42.0,424.0,0.0
Y,R,"[6, 9]",1.0,5.0,0.206190824508667,1.8079969882965088,0.5877151521351993,42.0,425.0,0.0
Y,R,"[6, 10]",1.0,6.0,0.1837599277496338,1.602531909942627,0.40718854682470873,42.0,426.0,0.0
R,U,"[5, 10]",1.0,7.0,0.6380698680877686,2.3606419563293457,0.7173991042780927,42.0,427.0,0.0
R,U,"[4, 10]",1.0,8.0,0.18961119651794434,1.5845139026641846,0.3856315772541998,42.0,428.0,0.0
B,L,"[4, 9]",1.0,9.0,0.25316596031188965,1.889646053314209,0.6250403815839001,42.0,429.0,0.0
R,U,"[3, 9]",1.0,10.0,0.18787908554077148,1.6430678367614746,0.4515774429379869,42.0,430.0,0.0
,,"(6, 6)",,,,,,42.0,,
R,U,"[5, 6]",1.0,1.0,0.7581779956817627,2.9180588722229004,0.28673047876986707,,431.0,0.0
Y,R,"[5, 7]",1.0,2.0,0.19930195808410645,1.8491928577423096,0.6353717538831045,43.0,432.0,0.0
Y,R,"[5, 8]",1.0,3.0,0.14089107513427734,1.8570959568023682,0.7090389909583119,43.0,433.0,0.0
G,D,"[6, 8]",1.0,4.0,0.22136497497558594,1.8657140731811523,0.6414743909368347,43.0,434.0,0.0
Y,R,"[6, 9]",1.0,5.0,0.19186902046203613,1.4549531936645508,0.2634403054439874,43.0,435.0,0.0
Y,R,"[6, 10]",1.0,6.0,0.24122095108032227,1.6406440734863281,0.38734862549886895,43.0,436.0,0.0
R,U,"[5, 10]",1.0,7.0,0.24483513832092285,1.7075691223144531,0.4615047517270424,43.0,437.0,0.0
R,U,"[4, 10]",1.0,8.0,0.19532299041748047,1.5202970504760742,0.3320337464177827,43.0,438.0,0.0
B,L,"[4, 9]",1.0,9.0,0.22098898887634277,1.8290269374847412,0.5941371546967296,43.0,439.0,0.0
R,U,"[3, 9]",1.0,10.0,0.1772618293762207,1.7499480247497559,0.5774433167193025,43.0,440.0,0.0
,,"(6, 6)",,,,,,43.0,,
R,U,"[5, 6]",1.0,1.0,0.6315910816192627,3.9000258445739746,0.544080288619024,,441.0,0.0
Y,R,"[5, 7]",1.0,2.0,0.21456193923950195,1.9206788539886475,0.7146812871499058,44.0,442.0,0.0
Y,R,"[5, 8]",1.0,3.0,0.12747788429260254,1.8675830364227295,0.7322527835507182,44.0,443.0,0.0
G,D,"[6, 8]",1.0,4.0,0.20247793197631836,1.9544920921325684,0.7366287397313678,44.0,444.0,0.0
Y,R,"[6, 9]",1.0,5.0,0.18548011779785156,1.881028175354004,0.6845517634531971,44.0,445.0,0.0
Y,R,"[6, 10]",1.0,6.0,0.20787692070007324,1.5872130393981934,0.37192782368053134,44.0,446.0,0.0
R,U,"[5, 10]",1.0,7.0,0.2701280117034912,1.9192919731140137,0.6409491436526811,44.0,447.0,0.0
R,U,"[4, 10]",1.0,8.0,0.2033829689025879,1.681107997894287,0.4722847082164774,44.0,448.0,0.0
B,L,"[4, 9]",1.0,9.0,0.2241201400756836,1.4822649955749512,0.2547037813648362,44.0,449.0,0.0
R,U,"[3, 9]",1.0,10.0,0.28472399711608887,1.6766469478607178,0.381331599849305,44.0,450.0,0.0
,,"(6, 6)",,,,,,44.0,,
R,U,"[5, 6]",1.0,1.0,0.6883690357208252,3.0276520252227783,0.35899796483885316,,451.0,0.0
Y,R,"[5, 7]",1.0,2.0,0.240034818649292,1.8215270042419434,0.5804034216528031,45.0,452.0,0.0
Y,R,"[5, 8]",1.0,3.0,0.20868992805480957,1.6886911392211914,0.46932670334485016,45.0,453.0,0.0
G,D,"[6, 8]",1.0,4.0,0.22150087356567383,1.523301124572754,0.29280604480003875,45.0,454.0,0.0
Y,R,"[6, 9]",1.0,5.0,0.23984193801879883,1.634505033493042,0.39358811667424,45.0,455.0,0.0
Y,R,"[6, 10]",1.0,6.0,0.21252703666687012,1.9281580448150635,0.7213201274225183,45.0,456.0,0.0
R,U,"[5, 10]",1.0,7.0,0.24535703659057617,1.8184959888458252,0.5734817417926328,45.0,457.0,0.0
R,U,"[4, 10]",1.0,8.0,0.1856698989868164,1.566303014755249,0.3735186571082415,45.0,458.0,0.0
B,L,"[4, 9]",1.0,9.0,0.21206212043762207,1.6242270469665527,0.41441973811665694,45.0,459.0,0.0
R,U,"[3, 9]",1.0,10.0,0.20482587814331055,1.6572761535644531,0.43835542821511986,45.0,460.0,0.0
,,"(6, 6)",,,,,,45.0,,
R,U,"[5, 6]",1.0,1.0,0.651129961013794,3.114629030227661,0.3029018960177237,,461.0,0.0
Y,R,"[5, 7]",1.0,2.0,0.21847200393676758,1.9079411029815674,0.6770849869714717,46.0,462.0,0.0
Y,R,"[5, 8]",1.0,3.0,0.16018104553222656,1.4958300590515137,0.33979816622651376,46.0,463.0,0.0
G,D,"[6, 8]",1.0,4.0,0.30132389068603516,1.8242590427398682,0.5139463984799123,46.0,464.0,0.0
Y,R,"[6, 9]",1.0,5.0,0.23723793029785156,1.518599033355713,0.2661393489139736,46.0,465.0,0.0
Y,R,"[6, 10]",1.0,6.0,0.2564661502838135,1.730700969696045,0.46325516953584656,46.0,466.0,0.0
R,U,"[5, 10]",1.0,7.0,0.22802019119262695,1.8044328689575195,0.5675681244736632,46.0,467.0,0.0
R,U,"[4, 10]",1.0,8.0,0.167464017868042,1.4751458168029785,0.2930780414414429,46.0,468.0,0.0
B,L,"[4, 9]",1.0,9.0,0.2838399410247803,1.561479091644287,0.27122001612901764,46.0,469.0,0.0
R,U,"[3, 9]",1.0,10.0,0.21217083930969238,1.772028923034668,0.5596934945973506,46.0,470.0,0.0
,,"(6, 6)",,,,,,46.0,,
R,U,"[5, 6]",1.0,1.0,0.6922941207885742,3.5806260108947754,0.5404192655384339,,471.0,0.0
Y,R,"[5, 7]",1.0,2.0,0.19710803031921387,1.6329081058502197,0.43993727171236996,47.0,472.0,0.0
Y,R,"[5, 8]",1.0,3.0,0.24182891845703125,1.6713709831237793,0.4281544809837695,47.0,473.0,0.0
G,D,"[6, 8]",1.0,4.0,0.22825002670288086,1.894709825515747,0.6726732733575957,47.0,474.0,0.0
R,U,"[5, 8]",0.0,4.0,0.13355112075805664,1.7609219551086426,0.63367076005357,47.0,475.0,0.0
Y,R,"[5, 9]",0.0,4.0,0.21780085563659668,1.4727799892425537,0.2567513142271431,47.0,476.0,0.0
R,U,"[4, 9]",1.0,5.0,0.33612489700317383,2.0480451583862305,0.7042593616268916,47.0,477.0,0.0
B,L,"[4, 8]",0.0,5.0,0.23113203048706055,1.9475071430206299,0.7184488315866813,47.0,478.0,0.0
B,L,"[4, 7]",0.0,5.0,0.24644899368286133,1.7830619812011719,0.534855450936091,47.0,479.0,0.0
R,U,"[3, 7]",0.0,5.0,0.19513702392578125,1.7136142253875732,0.515096887263697,47.0,480.0,0.0
,,"(6, 6)",,,,,,47.0,,
R,U,"[5, 6]",1.0,1.0,0.7303130626678467,3.7013399600982666,0.6664181320223437,,481.0,0.0
Y,R,"[5, 7]",1.0,2.0,0.20853090286254883,1.61043381690979,0.3936506081805276,48.0,482.0,0.0
Y,R,"[5, 8]",1.0,3.0,0.2105879783630371,1.853456974029541,0.6469751671690867,48.0,483.0,0.0
G,D,"[6, 8]",1.0,4.0,0.23223209381103516,1.9256980419158936,0.6727318007348797,48.0,484.0,0.0
Y,R,"[6, 9]",1.0,5.0,0.18742609024047852,1.8084039688110352,0.6144217777972374,48.0,485.0,0.0
Y,R,"[6, 10]",1.0,6.0,0.20675897598266602,1.8133280277252197,0.5944415384319812,48.0,486.0,0.0
R,U,"[5, 10]",1.0,7.0,0.19899392127990723,1.5731730461120605,0.3843669237112097,48.0,487.0,0.0
R,U,"[4, 10]",1.0,8.0,0.23176288604736328,1.8426918983459473,0.6101634950762826,48.0,488.0,0.0
B,L,"[4, 9]",1.0,9.0,0.213486909866333,1.4845330715179443,0.278373461797642,48.0,489.0,0.0
R,U,"[3, 9]",1.0,10.0,0.2681889533996582,1.639611005783081,0.36785413780588033,48.0,490.0,0.0
,,"(6, 6)",,,,,,48.0,,
R,U,"[5, 6]",1.0,1.0,0.778878927230835,3.628268003463745,0.5626621546389523,,491.0,0.0
Y,R,"[5, 7]",1.0,2.0,0.20380115509033203,1.7556169033050537,0.5517926977941277,49.0,492.0,0.0
Y,R,"[5, 8]",1.0,3.0,0.19827699661254883,1.4976370334625244,0.29942427111749087,49.0,493.0,0.0
G,D,"[6, 8]",1.0,4.0,0.2519049644470215,1.976391077041626,0.7255646373730149,49.0,494.0,0.0
Y,R,"[6, 9]",1.0,5.0,0.20689082145690918,1.5967910289764404,0.38940073160185656,49.0,495.0,0.0
Y,R,"[6, 10]",1.0,6.0,0.19702577590942383,1.503237009048462,0.309468848938993,49.0,496.0,0.0
R,U,"[5, 10]",1.0,7.0,0.22742605209350586,1.887653112411499,0.6631585940242999,49.0,497.0,0.0
R,U,"[4, 10]",1.0,8.0,0.18039202690124512,1.6430449485778809,0.4565863219647947,49.0,498.0,0.0
B,L,"[4, 9]",1.0,9.0,0.24930620193481445,1.6328659057617188,0.3729489743019136,49.0,499.0,0.0
R,U,"[3, 9]",1.0,10.0,0.21926212310791016,1.9043090343475342,0.6768638913712355,49.0,500.0,0.0
,,"(6, 6)",,,,,,49.0,,
R,U,"[5, 6]",1.0,1.0,0.7110381126403809,3.3332679271698,0.6599180393536772,,501.0,0.0
Y,R,"[5, 7]",1.0,2.0,0.19674921035766602,1.6331679821014404,0.4432343495488968,50.0,502.0,0.0
Y,R,"[5, 8]",1.0,3.0,0.22061586380004883,1.969994068145752,0.7462975900794029,50.0,503.0,0.0
G,D,"[6, 8]",1.0,4.0,0.2051699161529541,1.6218459606170654,0.4019293318691757,50.0,504.0,0.0
Y,R,"[6, 9]",1.0,5.0,0.2497870922088623,1.7870919704437256,0.522176659357771,50.0,505.0,0.0
Y,R,"[6, 10]",1.0,6.0,0.19034600257873535,1.6085820198059082,0.41426266379582766,50.0,506.0,0.0
R,U,"[5, 10]",1.0,7.0,0.28959083557128906,1.634984016418457,0.3326767109290189,50.0,507.0,0.0
R,U,"[4, 10]",1.0,8.0,0.18041205406188965,1.716076135635376,0.5317801100165815,50.0,508.0,0.0
B,L,"[4, 9]",1.0,9.0,0.23991703987121582,1.9093849658966064,0.6576722043947154,50.0,509.0,0.0
R,U,"[3, 9]",1.0,10.0,0.23395180702209473,1.627182960510254,0.3851161773964045,50.0,510.0,0.0
,,"(6, 6)",,,,,,50.0,,
R,U,"[5, 6]",1.0,1.0,0.6961700916290283,3.719417095184326,0.28832403679458224,,511.0,0.0
Y,R,"[5, 7]",1.0,2.0,0.8209140300750732,2.453610897064209,0.6412226483214021,51.0,512.0,0.0
Y,R,"[5, 8]",1.0,3.0,0.17913293838500977,1.7352449893951416,0.560094661141691,51.0,513.0,0.0
G,D,"[6, 8]",1.0,4.0,0.24588298797607422,1.9146780967712402,0.6747524346499418,51.0,514.0,0.0
Y,R,"[6, 9]",1.0,5.0,0.24723386764526367,1.984943151473999,0.7424841205307653,51.0,515.0,0.0
Y,R,"[6, 10]",1.0,6.0,0.20295310020446777,1.7451870441436768,0.5545806435411289,51.0,516.0,0.0
R,U,"[5, 10]",1.0,7.0,0.214339017868042,1.7051961421966553,0.4766045726660076,51.0,517.0,0.0
R,U,"[4, 10]",1.0,8.0,0.1926579475402832,1.5333940982818604,0.343430754958542,51.0,518.0,0.0
B,L,"[4, 9]",1.0,9.0,0.2317819595336914,1.9059789180755615,0.6656791353876602,51.0,519.0,0.0
R,U,"[3, 9]",1.0,10.0,0.18220996856689453,1.6931259632110596,0.4923478437154948,51.0,520.0,0.0
,,"(6, 6)",,,,,,51.0,,
R,U,"[5, 6]",1.0,1.0,0.7221579551696777,3.5218780040740967,0.614282867965784,,521.0,0.0
Y,R,"[5, 7]",1.0,2.0,0.1956620216369629,1.5033578872680664,0.300992959259951,52.0,522.0,0.0
Y,R,"[5, 8]",1.0,3.0,0.2039649486541748,1.924731969833374,0.7086220054046022,52.0,523.0,0.0
G,D,"[6, 8]",1.0,4.0,0.20829105377197266,1.4662561416625977,0.2587904444930876,52.0,524.0,0.0
Y,R,"[6, 9]",1.0,5.0,0.25454211235046387,1.574782133102417,0.31697013407978114,52.0,525.0,0.0
Y,R,"[6, 10]",1.0,6.0,0.2132282257080078,1.9518580436706543,0.7349319061273983,52.0,526.0,0.0
R,U,"[5, 10]",1.0,7.0,0.2984340190887451,1.6299159526824951,0.3320658463777433,52.0,527.0,0.0
R,U,"[4, 10]",1.0,8.0,0.20718789100646973,1.794234037399292,0.5758296719349383,52.0,528.0,0.0
B,L,"[4, 9]",1.0,9.0,0.22976112365722656,1.5841851234436035,0.3602511622617295,52.0,529.0,0.0
R,U,"[3, 9]",1.0,10.0,0.27762889862060547,1.9071550369262695,0.6335827598831081,52.0,530.0,0.0
,,"(6, 6)",,,,,,52.0,,
R,U,"[5, 6]",1.0,1.0,0.731187105178833,2.846620798110962,0.3974064288163828,,531.0,0.0
Y,R,"[5, 7]",1.0,2.0,0.2142939567565918,1.5009510517120361,0.28150963043857324,53.0,532.0,0.0
Y,R,"[5, 8]",1.0,3.0,0.21515703201293945,1.7002010345458984,0.48176793120351596,53.0,533.0,0.0
G,D,"[6, 8]",1.0,4.0,0.22927093505859375,1.9684991836547852,0.7332608290400381,53.0,534.0,0.0
Y,R,"[6, 9]",1.0,5.0,0.2126760482788086,1.940713882446289,0.7241054271581883,53.0,535.0,0.0
Y,R,"[6, 10]",1.0,6.0,0.21238398551940918,1.57865309715271,0.3695242629696363,53.0,536.0,0.0
R,U,"[5, 10]",1.0,7.0,0.22301697731018066,1.6633141040802002,0.432662115580333,53.0,537.0,0.0
R,U,"[4, 10]",1.0,8.0,0.19337797164916992,1.4780659675598145,0.2776466251665256,53.0,538.0,0.0
B,L,"[4, 9]",1.0,9.0,0.25066304206848145,1.8588650226593018,0.6029756432559942,53.0,539.0,0.0
R,U,"[3, 9]",1.0,10.0,0.2180781364440918,1.8817181587219238,0.6514333770067708,53.0,540.0,0.0
,,"(6, 6)",,,,,,53.0,,
R,U,"[5, 6]",1.0,1.0,0.7479259967803955,3.259286880493164,0.3440314705247512,,541.0,0.0
Y,R,"[5, 7]",1.0,2.0,0.24094295501708984,1.680556058883667,0.44122325350592007,54.0,542.0,0.0
Y,R,"[5, 8]",1.0,3.0,0.22679901123046875,1.611802101135254,0.386250889715754,54.0,543.0,0.0
G,D,"[6, 8]",1.0,4.0,0.24109816551208496,1.7193341255187988,0.47219502211793324,54.0,544.0,0.0
Y,R,"[6, 9]",1.0,5.0,0.31246495246887207,1.9635140895843506,0.6521234152276907,54.0,545.0,0.0
Y,R,"[6, 10]",1.0,6.0,0.17483997344970703,1.7593789100646973,0.578269270139194,54.0,546.0,0.0
R,U,"[5, 10]",1.0,7.0,0.22287392616271973,1.877241849899292,0.6554041582568308,54.0,547.0,0.0
R,U,"[4, 10]",1.0,8.0,0.2017500400543213,1.7423288822174072,0.5311421430774219,54.0,548.0,0.0
B,L,"[4, 9]",1.0,9.0,0.2668430805206299,1.8180909156799316,0.5326605737884684,54.0,549.0,0.0
R,U,"[3, 9]",1.0,10.0,0.2830219268798828,1.7589430809020996,0.4583632779856182,54.0,550.0,0.0
,,"(6, 6)",,,,,,54.0,,
R,U,"[5, 6]",1.0,1.0,0.8445818424224854,3.412081003189087,0.5869332049933977,,551.0,0.0
Y,R,"[5, 7]",1.0,2.0,0.2006549835205078,1.6174769401550293,0.40462615565480864,55.0,552.0,0.0
Y,R,"[5, 8]",1.0,3.0,0.20583486557006836,1.5045998096466064,0.29251840757208325,55.0,553.0,0.0
G,D,"[6, 8]",1.0,4.0,0.3031461238861084,1.6891520023345947,0.38169293840580465,55.0,554.0,0.0
Y,R,"[6, 9]",1.0,5.0,0.2100989818572998,1.515882968902588,0.29766824145106596,55.0,555.0,0.0
Y,R,"[6, 10]",1.0,6.0,0.2434070110321045,1.986638069152832,0.7337948057992187,55.0,556.0,0.0
R,U,"[5, 10]",1.0,7.0,0.21021294593811035,1.6518609523773193,0.4360305999522235,55.0,557.0,0.0
R,U,"[4, 10]",1.0,8.0,0.19054102897644043,1.606539011001587,0.4091078036351834,55.0,558.0,0.0
B,L,"[4, 9]",1.0,9.0,0.20127511024475098,1.7641949653625488,0.5565452679363734,55.0,559.0,0.0
R,U,"[3, 9]",1.0,10.0,0.204664945602417,1.5064349174499512,0.2965070744767066,55.0,560.0,0.0
,,"(6, 6)",,,,,,55.0,,
R,U,"[5, 6]",1.0,1.0,0.6252679824829102,3.2497990131378174,0.5459794499821669,,561.0,0.0
Y,R,"[5, 7]",1.0,2.0,0.19628500938415527,1.8307650089263916,0.6266336786958717,56.0,562.0,0.0
Y,R,"[5, 8]",1.0,3.0,0.16260695457458496,1.6072471141815186,0.45084967881520227,56.0,563.0,0.0
G,D,"[6, 8]",1.0,4.0,0.1982100009918213,1.489687204360962,0.290622629463224,56.0,564.0,0.0
Y,R,"[6, 9]",1.0,5.0,0.22761011123657227,1.6226730346679688,0.3964533793943445,56.0,565.0,0.0
Y,R,"[6, 10]",1.0,6.0,0.20635604858398438,1.5575110912322998,0.3374096928473836,56.0,566.0,0.0
R,U,"[5, 10]",1.0,7.0,0.23484587669372559,1.6260111331939697,0.38001579330125934,56.0,567.0,0.0
R,U,"[4, 10]",1.0,8.0,0.17928504943847656,1.8773140907287598,0.6903560966918768,56.0,568.0,0.0
B,L,"[4, 9]",1.0,9.0,0.19753313064575195,1.6346850395202637,0.4418938969215036,56.0,569.0,0.0
R,U,"[3, 9]",1.0,10.0,0.17547202110290527,1.5249288082122803,0.35017663487613065,56.0,570.0,0.0
,,"(6, 6)",,,,,,56.0,,
R,U,"[5, 6]",1.0,1.0,0.6868197917938232,3.09871506690979,0.5487477792146374,,571.0,0.0
Y,R,"[5, 7]",1.0,2.0,0.2000138759613037,1.603924036026001,0.38619992582238666,57.0,572.0,0.0
Y,R,"[5, 8]",1.0,3.0,0.2231748104095459,1.6052100658416748,0.37430166204114745,57.0,573.0,0.0
G,D,"[6, 8]",1.0,4.0,0.23313593864440918,1.852919101715088,0.6107569443863547,57.0,574.0,0.0
Y,R,"[6, 9]",1.0,5.0,0.18047809600830078,1.5007550716400146,0.32853309161731614,57.0,575.0,0.0
Y,R,"[6, 10]",1.0,6.0,0.20128703117370605,1.544739007949829,0.3398515760516673,57.0,576.0,0.0
R,U,"[5, 10]",1.0,7.0,0.5323760509490967,1.8911149501800537,0.3474699082706971,57.0,577.0,0.0
R,U,"[4, 10]",1.0,8.0,0.18039417266845703,1.9352171421051025,0.732275274604986,57.0,578.0,0.0
B,L,"[4, 9]",1.0,9.0,0.2261369228363037,1.911255121231079,0.6769001598522661,57.0,579.0,0.0
R,U,"[3, 9]",1.0,10.0,0.17441487312316895,1.5988140106201172,0.42597578723489377,57.0,580.0,0.0
,,"(6, 6)",,,,,,57.0,,
R,U,"[5, 6]",1.0,1.0,0.588299036026001,3.6722309589385986,0.43180572548220286,,581.0,0.0
Y,R,"[5, 7]",1.0,2.0,0.2250831127166748,1.7500379085540771,0.5148663361289989,58.0,582.0,0.0
Y,R,"[5, 8]",1.0,3.0,0.20413804054260254,1.9077978134155273,0.6890420336157839,58.0,583.0,0.0
G,D,"[6, 8]",1.0,4.0,0.1935579776763916,1.5910248756408691,0.39684939838483063,58.0,584.0,0.0
Y,R,"[6, 9]",1.0,5.0,0.20928597450256348,1.6927998065948486,0.47310345663375863,58.0,585.0,0.0
Y,R,"[6, 10]",1.0,6.0,0.19101190567016602,1.9144220352172852,0.7204850544747714,58.0,586.0,0.0
R,U,"[5, 10]",1.0,7.0,0.18795180320739746,1.4496970176696777,0.27094317857652833,58.0,587.0,0.0
R,U,"[4, 10]",1.0,8.0,0.20234298706054688,1.4969408512115479,0.3008662142312459,58.0,588.0,0.0
B,L,"[4, 9]",1.0,9.0,0.21046900749206543,1.9345309734344482,0.7182707613003179,58.0,589.0,0.0
R,U,"[3, 9]",1.0,10.0,0.20003294944763184,1.6839759349822998,0.4691308172728107,58.0,590.0,0.0
,,"(6, 6)",,,,,,58.0,,
R,U,"[5, 6]",-2.0,0.0,1.0758090019226074,3.5696699619293213,0.3057056085139846,,591.0,0.0
Y,R,"[5, 7]",1.0,1.0,0.1764841079711914,1.6745190620422363,0.4964498411405695,59.0,592.0,0.0
Y,R,"[5, 8]",1.0,2.0,0.1900498867034912,1.5803251266479492,0.37714277773236,59.0,593.0,0.0
G,D,"[6, 8]",1.0,3.0,0.20545387268066406,1.6423721313476562,0.4361309874846424,59.0,594.0,0.0
Y,R,"[6, 9]",1.0,4.0,0.1954488754272461,1.7299120426177979,0.5327004783503148,59.0,595.0,0.0
Y,R,"[6, 10]",1.0,5.0,0.18129992485046387,1.648677110671997,0.44797830563578894,59.0,596.0,0.0
R,U,"[5, 10]",1.0,6.0,0.18848013877868652,1.5011861324310303,0.29944720818472315,59.0,597.0,0.0
R,U,"[4, 10]",1.0,7.0,0.15054893493652344,1.9029700756072998,0.7350202700004309,59.0,598.0,0.0
B,L,"[4, 9]",1.0,8.0,0.19437789916992188,1.7250590324401855,0.5268973573378275,59.0,599.0,0.0
R,U,"[3, 9]",-1.0,8.0,0.049041032791137695,5.544114828109741,0.37114594138901585,59.0,600.0,0.0
,,"(6, 6)",,,,,,59.0,,
R,U,"[5, 6]",1.0,1.0,0.6095919609069824,5.268962860107422,0.2737084750688019,,601.0,0.0
Y,R,"[5, 7]",1.0,2.0,0.23445415496826172,1.7993249893188477,0.5558197583295295,60.0,602.0,0.0
Y,R,"[5, 8]",1.0,3.0,0.14048314094543457,1.8757669925689697,0.731475213453225,60.0,603.0,0.0
G,D,"[6, 8]",1.0,4.0,0.17622900009155273,1.622879981994629,0.4379600430056821,60.0,604.0,0.0
Y,R,"[6, 9]",1.0,5.0,0.19943499565124512,1.7914390563964844,0.5792432279578745,60.0,605.0,0.0
Y,R,"[6, 10]",1.0,6.0,0.15267086029052734,1.9146649837493896,0.7438750733260837,60.0,606.0,0.0
R,U,"[5, 10]",1.0,7.0,0.16087603569030762,1.8426470756530762,0.6863173915951957,60.0,607.0,0.0
R,U,"[4, 10]",1.0,8.0,0.16678500175476074,1.4737539291381836,0.2939415088134223,60.0,608.0,0.0
B,L,"[4, 9]",1.0,9.0,0.32517480850219727,1.6914498805999756,0.3684474324034263,60.0,609.0,0.0
R,U,"[3, 9]",1.0,10.0,0.2053070068359375,1.5595710277557373,0.3448120109029931,60.0,610.0,0.0
,,"(6, 6)",,,,,,60.0,,
R,U,"[5, 6]",1.0,1.0,0.6077671051025391,3.7886860370635986,0.4000764748041044,,611.0,0.0
Y,R,"[5, 7]",1.0,2.0,0.21067190170288086,1.5127410888671875,0.29608358944550117,61.0,612.0,0.0
Y,R,"[5, 8]",1.0,3.0,0.1900157928466797,1.457144021987915,0.2533310348096539,61.0,613.0,0.0
G,D,"[6, 8]",1.0,4.0,0.2867460250854492,1.772913932800293,0.47604825369564113,61.0,614.0,0.0
Y,R,"[6, 9]",1.0,5.0,0.22320103645324707,1.5728700160980225,0.34891014553733135,61.0,615.0,0.0
Y,R,"[6, 10]",1.0,6.0,0.21545791625976562,1.6258509159088135,0.3915716091677133,61.0,616.0,0.0
R,U,"[5, 10]",1.0,7.0,0.23075604438781738,1.5796129703521729,0.3543410312044481,61.0,617.0,0.0
R,U,"[4, 10]",1.0,8.0,0.16003894805908203,1.5200490951538086,0.35774392207621863,61.0,618.0,0.0
B,L,"[4, 9]",1.0,9.0,0.29648399353027344,1.6691651344299316,0.37680862407876226,61.0,619.0,0.0
R,U,"[3, 9]",1.0,10.0,0.2208390235900879,1.5033810138702393,0.2970665767182811,61.0,620.0,0.0
,,"(6, 6)",,,,,,61.0,,
R,U,"[5, 6]",1.0,1.0,0.7916231155395508,3.3649752140045166,0.5948748037583369,,621.0,0.0
Y,R,"[5, 7]",1.0,2.0,0.1836109161376953,1.9238510131835938,0.7351530685506156,62.0,622.0,0.0
Y,R,"[5, 8]",1.0,3.0,0.21130585670471191,1.8144521713256836,0.5998177475200134,62.0,623.0,0.0
G,D,"[6, 8]",1.0,4.0,0.22076201438903809,1.847217082977295,0.6136065159853681,62.0,624.0,0.0
Y,R,"[6, 9]",1.0,5.0,0.1905498504638672,1.7400941848754883,0.537118532143191,62.0,625.0,0.0
Y,R,"[6, 10]",1.0,6.0,0.21658706665039062,1.9705541133880615,0.7405171749089801,62.0,626.0,0.0
R,U,"[5, 10]",1.0,7.0,0.20365500450134277,1.5942599773406982,0.4021450768265323,62.0,627.0,0.0
R,U,"[4, 10]",1.0,8.0,0.19172000885009766,1.4694108963012695,0.2717170115599756,62.0,628.0,0.0
B,L,"[4, 9]",1.0,9.0,0.23007893562316895,1.6436140537261963,0.41540010427512153,62.0,629.0,0.0
R,U,"[3, 9]",1.0,10.0,0.21310210227966309,1.891737937927246,0.6737807453999347,62.0,630.0,0.0
,,"(6, 6)",,,,,,62.0,,
R,U,"[5, 6]",1.0,1.0,0.5733699798583984,3.924133062362671,0.6146155768720958,,631.0,0.0
Y,R,"[5, 7]",1.0,2.0,0.2008218765258789,1.7559587955474854,0.5377040221872966,63.0,632.0,0.0
Y,R,"[5, 8]",1.0,3.0,0.21519684791564941,1.927290916442871,0.6983615071690097,63.0,633.0,0.0
G,D,"[6, 8]",1.0,4.0,0.15073919296264648,1.5068800449371338,0.3389026014471306,63.0,634.0,0.0
Y,R,"[6, 9]",1.0,5.0,0.25264501571655273,1.9328789710998535,0.671514703267587,63.0,635.0,0.0
Y,R,"[6, 10]",1.0,6.0,0.19237208366394043,1.7451422214508057,0.5503535264519377,63.0,636.0,0.0
R,U,"[5, 10]",1.0,7.0,0.20429277420043945,1.4852049350738525,0.269079490713748,63.0,637.0,0.0
R,U,"[4, 10]",1.0,8.0,0.21892309188842773,1.7018918991088867,0.47086349681252476,63.0,638.0,0.0
B,L,"[4, 9]",1.0,9.0,0.2269129753112793,1.7052960395812988,0.47619849956545535,63.0,639.0,0.0
R,U,"[3, 9]",1.0,10.0,0.15396499633789062,1.7251958847045898,0.5684435669291208,63.0,640.0,0.0
,,"(6, 6)",,,,,,63.0,,
R,U,"[5, 6]",1.0,1.0,0.48468899726867676,2.5434601306915283,0.34538784444212034,,641.0,0.0
Y,R,"[5, 7]",1.0,2.0,0.22771596908569336,1.8455171585083008,0.6238891929603818,64.0,642.0,0.0
Y,R,"[5, 8]",1.0,3.0,0.15264892578125,1.506417989730835,0.3473065300181984,64.0,643.0,0.0
G,D,"[6, 8]",1.0,4.0,0.22100615501403809,1.9172749519348145,0.6810815759581554,64.0,644.0,0.0
Y,R,"[6, 9]",1.0,5.0,0.18225812911987305,1.7743420600891113,0.572307335145456,64.0,645.0,0.0
Y,R,"[6, 10]",1.0,6.0,0.21418499946594238,1.6735291481018066,0.46270087783727676,64.0,646.0,0.0
R,U,"[5, 10]",1.0,7.0,0.24380707740783691,1.6250851154327393,0.3712119698642405,64.0,647.0,0.0
R,U,"[4, 10]",1.0,8.0,0.18564701080322266,1.5738110542297363,0.378426094879741,64.0,648.0,0.0
B,L,"[4, 9]",1.0,9.0,0.25032806396484375,1.7825279235839844,0.5275534268103254,64.0,649.0,0.0
R,U,"[3, 9]",1.0,10.0,0.17223811149597168,1.5957751274108887,0.42355185623923836,64.0,650.0,0.0
,,"(6, 6)",,,,,,64.0,,
R,U,"[5, 6]",1.0,1.0,0.4642789363861084,2.221076011657715,0.32843837438856477,,651.0,0.0
Y,R,"[5, 7]",1.0,2.0,0.1934947967529297,1.5616071224212646,0.3731150150860313,65.0,652.0,0.0
Y,R,"[5, 8]",1.0,3.0,0.20632410049438477,1.4466640949249268,0.2531884356333189,65.0,653.0,0.0
G,D,"[6, 8]",1.0,4.0,0.21492910385131836,1.4873239994049072,0.25744431845397014,65.0,654.0,0.0
Y,R,"[6, 9]",1.0,5.0,0.2575979232788086,1.5200259685516357,0.2609925141596085,65.0,655.0,0.0
Y,R,"[6, 10]",1.0,6.0,0.18802213668823242,1.5642030239105225,0.3751322485209735,65.0,656.0,0.0
R,U,"[5, 10]",1.0,7.0,0.20328402519226074,1.7695209980010986,0.5611385304853076,65.0,657.0,0.0
R,U,"[4, 10]",1.0,8.0,0.16490697860717773,1.7195367813110352,0.5640807455381112,65.0,658.0,0.0
B,L,"[4, 9]",1.0,9.0,0.14849090576171875,1.7781188488006592,0.6256461411169582,65.0,659.0,0.0
R,U,"[3, 9]",1.0,10.0,0.23689794540405273,1.5990500450134277,0.35819115884655195,65.0,660.0,0.0
,,"(6, 6)",,,,,,65.0,,
R,U,"[5, 6]",1.0,1.0,0.605604887008667,2.686124086380005,0.6611132034424025,,661.0,0.0
Y,R,"[5, 7]",1.0,2.0,0.18987417221069336,1.682927131652832,0.4941605169321342,66.0,662.0,0.0
Y,R,"[5, 8]",1.0,3.0,0.1907498836517334,1.8234879970550537,0.6344984811348283,66.0,663.0,0.0
G,D,"[6, 8]",1.0,4.0,0.2172529697418213,1.9532630443572998,0.7210832069309516,66.0,664.0,0.0
Y,R,"[6, 9]",1.0,5.0,0.1859579086303711,1.7375378608703613,0.5422599186029657,66.0,665.0,0.0
Y,R,"[6, 10]",1.0,6.0,0.1970062255859375,1.7388567924499512,0.5477927702658241,66.0,666.0,0.0
R,U,"[5, 10]",1.0,7.0,0.17820096015930176,1.7572109699249268,0.5715266400786689,66.0,667.0,0.0
R,U,"[4, 10]",1.0,8.0,0.17855405807495117,1.8417329788208008,0.6634850364944922,66.0,668.0,0.0
B,L,"[4, 9]",1.0,9.0,0.20119094848632812,1.6316359043121338,0.41215639579379126,66.0,669.0,0.0
R,U,"[3, 9]",1.0,10.0,0.1796741485595703,1.773716926574707,0.6024640179112484,66.0,670.0,0.0
,,"(6, 6)",,,,,,66.0,,
R,U,"[5, 6]",1.0,1.0,0.4593188762664795,2.186875104904175,0.2897177655376781,,671.0,0.0
Y,R,"[5, 7]",1.0,2.0,0.19337081909179688,1.5118451118469238,0.31817029098462934,67.0,672.0,0.0
Y,R,"[5, 8]",1.0,3.0,0.2755768299102783,1.9498341083526611,0.6677847627400129,67.0,673.0,0.0
G,D,"[6, 8]",-1.0,3.0,0.0780179500579834,5.552260160446167,0.33740625276084824,67.0,674.0,0.0
R,U,"[5, 8]",0.0,3.0,0.22335290908813477,1.919111967086792,0.6892894579014839,67.0,675.0,0.0
R,U,"[4, 8]",0.0,3.0,0.21400117874145508,1.6249580383300781,0.41462160236308826,67.0,676.0,0.0
B,L,"[4, 7]",0.0,3.0,0.4166688919067383,2.0422980785369873,0.6235746751698175,67.0,677.0,0.0
B,L,"[4, 6]",0.0,3.0,0.19050002098083496,1.799455165863037,0.6231252810220873,67.0,678.0,0.0
B,L,"[4, 5]",0.0,3.0,0.48776888847351074,1.9380860328674316,0.44468085830847826,67.0,679.0,0.0
B,L,"[4, 4]",0.0,3.0,0.3981900215148926,2.1379451751708984,0.7490608791084823,67.0,680.0,0.0
,,"(6, 6)",,,,,,67.0,,
R,U,"[5, 6]",1.0,1.0,0.8850431442260742,3.665440082550049,0.28190017786834876,,681.0,0.0
Y,R,"[5, 7]",1.0,2.0,0.27574801445007324,1.7036819458007812,0.4188083130743034,68.0,682.0,0.0
Y,R,"[5, 8]",1.0,3.0,0.23784494400024414,1.5931200981140137,0.3452855908708068,68.0,683.0,0.0
G,D,"[6, 8]",1.0,4.0,0.3635249137878418,1.955786943435669,0.6012960313017486,68.0,684.0,0.0
Y,R,"[6, 9]",1.0,5.0,0.19095110893249512,1.5909860134124756,0.3923198358844775,68.0,685.0,0.0
Y,R,"[6, 10]",1.0,6.0,0.27452898025512695,1.7017500400543213,0.42740453479123675,68.0,686.0,0.0
R,U,"[5, 10]",1.0,7.0,0.24080705642700195,1.7322430610656738,0.49313841593041036,68.0,687.0,0.0
R,U,"[4, 10]",1.0,8.0,0.21258902549743652,1.4949710369110107,0.28852403331435733,68.0,688.0,0.0
B,L,"[4, 9]",1.0,9.0,0.2429521083831787,1.5827717781066895,0.33798064208402706,68.0,689.0,0.0
R,U,"[3, 9]",1.0,10.0,0.275709867477417,1.9370229244232178,0.6580448139365422,68.0,690.0,0.0
,,"(6, 6)",,,,,,68.0,,
R,U,"[5, 6]",1.0,1.0,0.7106220722198486,2.889446973800659,0.39771706794743594,,691.0,0.0
Y,R,"[5, 7]",1.0,2.0,0.21914911270141602,1.904344081878662,0.6685076607050917,69.0,692.0,0.0
Y,R,"[5, 8]",1.0,3.0,0.20712590217590332,1.870837926864624,0.6561914605926837,69.0,693.0,0.0
G,D,"[6, 8]",1.0,4.0,0.21210193634033203,1.608062982559204,0.39785223925586655,69.0,694.0,0.0
Y,R,"[6, 9]",1.0,5.0,0.22182893753051758,1.6638610363006592,0.4285432322529457,69.0,695.0,0.0
Y,R,"[6, 10]",1.0,6.0,0.27915501594543457,1.655116081237793,0.38365817486875226,69.0,696.0,0.0
R,U,"[5, 10]",1.0,7.0,0.4593181610107422,2.2057840824127197,0.739086059125909,69.0,697.0,0.0
R,U,"[4, 10]",1.0,8.0,0.2194349765777588,1.5792291164398193,0.3521798509138168,69.0,698.0,0.0
B,L,"[4, 9]",1.0,9.0,0.4642300605773926,1.9093539714813232,0.4449894269907253,69.0,699.0,0.0
R,U,"[3, 9]",1.0,10.0,0.2982161045074463,1.9949438571929932,0.7062138648009412,69.0,700.0,0.0
,,"(6, 6)",,,,,,69.0,,
R,U,"[5, 6]",1.0,1.0,0.5145008563995361,2.46309494972229,0.28659175985724117,,701.0,0.0
Y,R,"[5, 7]",1.0,2.0,0.2315981388092041,1.693246841430664,0.46327124409372133,70.0,702.0,0.0
Y,R,"[5, 8]",1.0,3.0,0.28113698959350586,1.6558220386505127,0.36892122150567697,70.0,703.0,0.0
G,D,"[6, 8]",1.0,4.0,0.40276503562927246,1.833280086517334,0.41901725163775566,70.0,704.0,0.0
Y,R,"[6, 9]",1.0,5.0,0.2875239849090576,1.856550931930542,0.5588121415637616,70.0,705.0,0.0
Y,R,"[6, 10]",1.0,6.0,0.2007601261138916,1.505052089691162,0.2976887502193306,70.0,706.0,0.0
R,U,"[5, 10]",1.0,7.0,0.2551910877227783,1.854119062423706,0.5847046510566053,70.0,707.0,0.0
R,U,"[4, 10]",1.0,8.0,0.16118693351745605,1.8563668727874756,0.6912093859552535,70.0,708.0,0.0
B,L,"[4, 9]",1.0,9.0,0.33693504333496094,2.0414299964904785,0.7165506695011907,70.0,709.0,0.0
R,U,"[3, 9]",1.0,10.0,0.16919994354248047,1.9282450675964355,0.7444504906204382,70.0,710.0,0.0
,,"(6, 6)",,,,,,70.0,,
R,U,"[5, 6]",1.0,1.0,0.6184170246124268,2.718719959259033,0.5468332679213248,,711.0,0.0
Y,R,"[5, 7]",1.0,2.0,0.2982931137084961,1.6725678443908691,0.3696202352567446,71.0,712.0,0.0
Y,R,"[5, 8]",1.0,3.0,0.3156599998474121,1.6748859882354736,0.32812118299522824,71.0,713.0,0.0
G,D,"[6, 8]",1.0,4.0,0.39106011390686035,1.8482580184936523,0.459500450964381,71.0,714.0,0.0
Y,R,"[6, 9]",1.0,5.0,0.20621800422668457,1.4822351932525635,0.27520121264467395,71.0,715.0,0.0
Y,R,"[6, 10]",1.0,6.0,0.24286293983459473,1.958894968032837,0.7172871832425787,71.0,716.0,0.0
R,U,"[5, 10]",1.0,7.0,0.2072129249572754,1.5358450412750244,0.31997019727759235,71.0,717.0,0.0
R,U,"[4, 10]",1.0,8.0,0.3278210163116455,1.8316030502319336,0.5014899294062847,71.0,718.0,0.0
B,L,"[4, 9]",1.0,9.0,0.24985599517822266,1.7596020698547363,0.4944339850594317,71.0,719.0,0.0
R,U,"[3, 9]",1.0,10.0,0.27873802185058594,1.806152105331421,0.533965924976314,71.0,720.0,0.0
,,"(6, 6)",,,,,,71.0,,
R,U,"[5, 6]",1.0,1.0,0.5537071228027344,2.437386989593506,0.3717104603952329,,721.0,0.0
B,L,"[5, 5]",0.0,1.0,0.27982091903686523,1.9705150127410889,0.6919645315361004,72.0,722.0,0.0
Y,R,"[5, 6]",0.0,1.0,0.20939421653747559,1.5683338642120361,0.3607895818935658,72.0,723.0,0.0
G,D,"[6, 6]",0.0,1.0,0.4660370349884033,1.797368049621582,0.34167296608624426,72.0,724.0,0.0
Y,R,"[6, 7]",-2.0,1.0,1.0209031105041504,2.7474231719970703,0.7053889179135834,72.0,725.0,0.0
Y,R,"[6, 8]",1.0,2.0,0.1829378604888916,1.832932949066162,0.6384788456035907,72.0,726.0,0.0
R,U,"[5, 8]",1.0,3.0,0.2556309700012207,1.834972858428955,0.5736089635253843,72.0,727.0,0.0
R,U,"[4, 8]",0.0,3.0,0.23380303382873535,1.9194610118865967,0.6930722750690321,72.0,728.0,0.0
B,L,"[4, 7]",0.0,3.0,0.4247610569000244,2.1330270767211914,0.7093292345008582,72.0,729.0,0.0
R,U,"[3, 7]",0.0,3.0,0.10452985763549805,1.7695181369781494,0.6624283264790363,72.0,730.0,0.0
,,"(6, 6)",,,,,,72.0,,
R,U,"[5, 6]",1.0,1.0,0.46143007278442383,3.502202033996582,0.44821083874507117,,731.0,0.0
Y,R,"[5, 7]",1.0,2.0,0.18921804428100586,1.8109309673309326,0.6092065465349087,73.0,732.0,0.0
Y,R,"[5, 8]",1.0,3.0,0.15037107467651367,1.5345079898834229,0.3771564142790636,73.0,733.0,0.0
G,D,"[6, 8]",1.0,4.0,0.26590704917907715,1.629931926727295,0.35719164766669237,73.0,734.0,0.0
Y,R,"[6, 9]",1.0,5.0,0.23189187049865723,1.4949841499328613,0.26903886641206154,73.0,735.0,0.0
Y,R,"[6, 10]",1.0,6.0,0.4058339595794678,1.866631031036377,0.45221484504385584,73.0,736.0,0.0
R,U,"[5, 10]",1.0,7.0,0.3841521739959717,1.9539189338684082,0.5726647108500655,73.0,737.0,0.0
R,U,"[4, 10]",1.0,8.0,0.19661903381347656,1.5517680644989014,0.3579775935453158,73.0,738.0,0.0
B,L,"[4, 9]",1.0,9.0,0.251162052154541,1.9474968910217285,0.6885878489049793,73.0,739.0,0.0
R,U,"[3, 9]",1.0,10.0,0.18931794166564941,1.8137431144714355,0.6192134504165294,73.0,740.0,0.0
,,"(6, 6)",,,,,,73.0,,
R,U,"[5, 6]",1.0,1.0,0.534168004989624,2.6959519386291504,0.7485012248762688,,741.0,0.0
Y,R,"[5, 7]",1.0,2.0,0.18005895614624023,1.455138921737671,0.27075326900573254,74.0,742.0,0.0
Y,R,"[5, 8]",1.0,3.0,0.2959940433502197,1.6211400032043457,0.30860094306371255,74.0,743.0,0.0
G,D,"[6, 8]",1.0,4.0,0.2902388572692871,2.008635997772217,0.716889521218574,74.0,744.0,0.0
Y,R,"[6, 9]",1.0,5.0,0.20688080787658691,1.6582598686218262,0.4421753934017083,74.0,745.0,0.0
Y,R,"[6, 10]",1.0,6.0,0.2736639976501465,1.7782888412475586,0.5037938475219612,74.0,746.0,0.0
R,U,"[5, 10]",1.0,7.0,0.27541112899780273,1.7130749225616455,0.43375543670731836,74.0,747.0,0.0
R,U,"[4, 10]",-1.0,7.0,0.08380007743835449,5.932591915130615,0.7161498749097697,74.0,748.0,0.0
G,D,"[5, 10]",0.0,7.0,0.19307994842529297,1.4765591621398926,0.27656055076376335,74.0,749.0,0.0
Y,R,"[5, 11]",0.0,7.0,0.2461550235748291,1.6294260025024414,0.38921268821027755,74.0,750.0,0.0
,,"(6, 6)",,,,,,74.0,,
R,U,"[5, 6]",1.0,1.0,0.7980999946594238,3.6257989406585693,0.36540903223384796,,751.0,0.0
Y,R,"[5, 7]",1.0,2.0,0.19887495040893555,1.9574170112609863,0.7391010361144337,75.0,752.0,0.0
Y,R,"[5, 8]",1.0,3.0,0.20208001136779785,1.616102933883667,0.40546174441600596,75.0,753.0,0.0
G,D,"[6, 8]",1.0,4.0,0.3050098419189453,1.9816968441009521,0.670343984688833,75.0,754.0,0.0
Y,R,"[6, 9]",1.0,5.0,0.186506986618042,1.6397929191589355,0.4437140431888853,75.0,755.0,0.0
Y,R,"[6, 10]",1.0,6.0,0.20847392082214355,1.8340950012207031,0.6277612225033432,75.0,756.0,0.0
R,U,"[5, 10]",1.0,7.0,0.23829889297485352,1.8456389904022217,0.6067944647229926,75.0,757.0,0.0
R,U,"[4, 10]",1.0,8.0,0.24917984008789062,1.8731491565704346,0.6134052598843375,75.0,758.0,0.0
B,L,"[4, 9]",1.0,9.0,0.24421095848083496,1.6039671897888184,0.35104658724644644,75.0,759.0,0.0
R,U,"[3, 9]",1.0,10.0,0.24400687217712402,1.6351978778839111,0.38626036116785456,75.0,760.0,0.0
,,"(6, 6)",,,,,,75.0,,
R,U,"[5, 6]",1.0,1.0,0.7411041259765625,2.7077078819274902,0.4105847002981427,,761.0,0.0
Y,R,"[5, 7]",1.0,2.0,0.16300177574157715,1.518873929977417,0.36283865530381143,76.0,762.0,0.0
Y,R,"[5, 8]",1.0,3.0,0.3006470203399658,1.716968059539795,0.39648127502653846,76.0,763.0,0.0
G,D,"[6, 8]",1.0,4.0,0.2923851013183594,1.7944660186767578,0.4910257231133558,76.0,764.0,0.0
Y,R,"[6, 9]",1.0,5.0,0.22582602500915527,1.488396167755127,0.2629892971852516,76.0,765.0,0.0
Y,R,"[6, 10]",1.0,6.0,0.4458029270172119,2.0828070640563965,0.6288660242403408,76.0,766.0,0.0
R,U,"[5, 10]",1.0,7.0,0.26453495025634766,1.6450269222259521,0.39075730226310196,76.0,767.0,0.0
R,U,"[4, 10]",1.0,8.0,0.2661759853363037,1.9344069957733154,0.6584365197871329,76.0,768.0,0.0
B,L,"[4, 9]",1.0,9.0,0.20490217208862305,1.7143118381500244,0.5061120417893752,76.0,769.0,0.0
R,U,"[3, 9]",1.0,10.0,0.18727898597717285,1.5677690505981445,0.3741562612639596,76.0,770.0,0.0
,,"(6, 6)",,,,,,76.0,,
R,U,"[5, 6]",1.0,1.0,0.7442219257354736,3.190324068069458,0.4645200964686382,,771.0,0.0
Y,R,"[5, 7]",1.0,2.0,0.19762396812438965,1.9317939281463623,0.7294121135637844,77.0,772.0,0.0
Y,R,"[5, 8]",1.0,3.0,0.22753405570983887,1.9015288352966309,0.6644106893018399,77.0,773.0,0.0
G,D,"[6, 8]",1.0,4.0,0.22095799446105957,1.5944898128509521,0.3592255815674929,77.0,774.0,0.0
Y,R,"[6, 9]",1.0,5.0,0.2702810764312744,1.87648606300354,0.6022434123421869,77.0,775.0,0.0
Y,R,"[6, 10]",1.0,6.0,0.26519203186035156,1.985093116760254,0.7040108958791655,77.0,776.0,0.0
R,U,"[5, 10]",1.0,7.0,0.2564120292663574,1.9259071350097656,0.663254290845579,77.0,777.0,0.0
R,U,"[4, 10]",1.0,8.0,0.19337701797485352,1.6958858966827393,0.4924991445455981,77.0,778.0,0.0
B,L,"[4, 9]",1.0,9.0,0.23318195343017578,1.5415430068969727,0.3013063424587943,77.0,779.0,0.0
R,U,"[3, 9]",1.0,10.0,0.24431109428405762,1.7033109664916992,0.45440157219383537,77.0,780.0,0.0
,,"(6, 6)",,,,,,77.0,,
R,U,"[5, 6]",1.0,1.0,0.5459649562835693,4.330137014389038,0.6178308064643514,,781.0,0.0
Y,R,"[5, 7]",1.0,2.0,0.25626492500305176,1.5403389930725098,0.2750521161051536,78.0,782.0,0.0
Y,R,"[5, 8]",1.0,3.0,0.3447909355163574,1.9834978580474854,0.6414744920028335,78.0,783.0,0.0
G,D,"[6, 8]",1.0,4.0,0.35355591773986816,1.8617591857910156,0.503493733946562,78.0,784.0,0.0
Y,R,"[6, 9]",1.0,5.0,0.21253609657287598,1.7156341075897217,0.5026048778130283,78.0,785.0,0.0
Y,R,"[6, 10]",1.0,6.0,0.18538784980773926,1.7195091247558594,0.5388121209698087,78.0,786.0,0.0
R,U,"[5, 10]",1.0,7.0,0.2587590217590332,1.606774091720581,0.34594672521443653,78.0,787.0,0.0
R,U,"[4, 10]",1.0,8.0,0.20197391510009766,1.5991570949554443,0.3616209562993025,78.0,788.0,0.0
B,L,"[4, 9]",1.0,9.0,0.23886489868164062,1.672287940979004,0.43374214866239996,78.0,789.0,0.0
R,U,"[3, 9]",1.0,10.0,0.16875982284545898,1.5545117855072021,0.3717900440167061,78.0,790.0,0.0
,,"(6, 6)",,,,,,78.0,,
R,U,"[5, 6]",1.0,1.0,0.9688708782196045,2.818053960800171,0.25697389913766805,,791.0,0.0
Y,R,"[5, 7]",1.0,2.0,0.19704103469848633,1.7483389377593994,0.5547899725408052,79.0,792.0,0.0
Y,R,"[5, 8]",1.0,3.0,0.1650850772857666,1.6504721641540527,0.4721205541398751,79.0,793.0,0.0
G,D,"[6, 8]",1.0,4.0,0.24945497512817383,1.9770679473876953,0.7157227726176493,79.0,794.0,0.0
Y,R,"[6, 9]",1.0,5.0,0.2308809757232666,1.6121759414672852,0.37848701662026757,79.0,795.0,0.0
Y,R,"[6, 10]",1.0,6.0,0.23796582221984863,1.9779689311981201,0.7393150243163635,79.0,796.0,0.0
R,U,"[5, 10]",1.0,7.0,0.22864103317260742,1.5930490493774414,0.36584014730497655,79.0,797.0,0.0
R,U,"[4, 10]",1.0,8.0,0.2778298854827881,1.998013973236084,0.714374535443651,79.0,798.0,0.0
B,L,"[4, 9]",1.0,9.0,0.221923828125,1.8935401439666748,0.65733752307351,79.0,799.0,0.0
R,U,"[3, 9]",1.0,10.0,0.21439504623413086,1.6856250762939453,0.4764715005315468,79.0,800.0,0.0
,,"(6, 6)",,,,,,79.0,,
R,U,"[5, 6]",1.0,1.0,0.6212048530578613,2.6441359519958496,0.4707146028221346,,801.0,0.0
Y,R,"[5, 7]",1.0,2.0,0.2262248992919922,1.958940029144287,0.7294106175366315,80.0,802.0,0.0
Y,R,"[5, 8]",1.0,3.0,0.21777796745300293,1.562575101852417,0.3260238704208566,80.0,803.0,0.0
G,D,"[6, 8]",1.0,4.0,0.26682400703430176,1.933793067932129,0.6599887739663992,80.0,804.0,0.0
Y,R,"[6, 9]",1.0,5.0,0.20270013809204102,1.8191981315612793,0.6120181085365365,80.0,805.0,0.0
Y,R,"[6, 10]",1.0,6.0,0.2649118900299072,1.6925971508026123,0.4216951623431034,80.0,806.0,0.0
R,U,"[5, 10]",1.0,7.0,0.31598591804504395,1.733139991760254,0.40477235147528096,80.0,807.0,0.0
R,U,"[4, 10]",1.0,8.0,0.24143695831298828,1.6145029067993164,0.36941085612549285,80.0,808.0,0.0
B,L,"[4, 9]",1.0,9.0,0.23316717147827148,1.654435157775879,0.4072621438876783,80.0,809.0,0.0
R,U,"[3, 9]",1.0,10.0,0.25504302978515625,1.5330870151519775,0.2737512622597612,80.0,810.0,0.0
,,"(6, 6)",,,,,,80.0,,
R,U,"[5, 6]",1.0,1.0,0.6153039932250977,2.6712658405303955,0.39490828832363517,,811.0,0.0
Y,R,"[5, 7]",1.0,2.0,0.27354884147644043,1.9651198387145996,0.6930314140867176,81.0,812.0,0.0
Y,R,"[5, 8]",1.0,3.0,0.1888439655303955,1.7146379947662354,0.5245464705853405,81.0,813.0,0.0
G,D,"[6, 8]",1.0,4.0,0.23525190353393555,1.7859411239624023,0.5438449749126757,81.0,814.0,0.0
Y,R,"[6, 9]",1.0,5.0,0.1967639923095703,1.790480136871338,0.6012000433723667,81.0,815.0,0.0
Y,R,"[6, 10]",1.0,6.0,0.21073603630065918,1.5876429080963135,0.37237633240215556,81.0,816.0,0.0
R,U,"[5, 10]",1.0,7.0,0.3567008972167969,1.862210988998413,0.5011963057232922,81.0,817.0,0.0
R,U,"[4, 10]",1.0,8.0,0.20195603370666504,1.5896110534667969,0.37438827545952413,81.0,818.0,0.0
B,L,"[4, 9]",1.0,9.0,0.23896121978759766,1.5615971088409424,0.31937877316866964,81.0,819.0,0.0
R,U,"[3, 9]",1.0,10.0,0.2051229476928711,1.489109992980957,0.2752518243294834,81.0,820.0,0.0
,,"(6, 6)",,,,,,81.0,,
R,U,"[5, 6]",1.0,1.0,0.5236351490020752,2.6815600395202637,0.35678169745941224,,821.0,0.0
Y,R,"[5, 7]",1.0,2.0,0.21293187141418457,1.924057960510254,0.7137986258267384,82.0,822.0,0.0
Y,R,"[5, 8]",1.0,3.0,0.18343615531921387,1.5617809295654297,0.359407231734335,82.0,823.0,0.0
G,D,"[6, 8]",1.0,4.0,0.3023569583892822,1.7402081489562988,0.43287461809930344,82.0,824.0,0.0
Y,R,"[6, 9]",1.0,5.0,0.19051694869995117,1.6123631000518799,0.4119355329929557,82.0,825.0,0.0
Y,R,"[6, 10]",1.0,6.0,0.2545769214630127,1.839717149734497,0.5849534414686353,82.0,826.0,0.0
R,U,"[5, 10]",1.0,7.0,0.2137928009033203,1.5084679126739502,0.29368221403539374,82.0,827.0,0.0
R,U,"[4, 10]",1.0,8.0,0.2675631046295166,1.9224770069122314,0.6492541539110472,82.0,828.0,0.0
B,L,"[4, 9]",1.0,9.0,0.21744704246520996,1.82059907913208,0.5865252227540767,82.0,829.0,0.0
R,U,"[3, 9]",1.0,10.0,0.22271490097045898,1.5105721950531006,0.28086121108730794,82.0,830.0,0.0
,,"(6, 6)",,,,,,82.0,,
R,U,"[5, 6]",1.0,1.0,0.5756559371948242,2.8524279594421387,0.5994115709627519,,831.0,0.0
B,L,"[5, 5]",0.0,1.0,0.2161099910736084,1.6600110530853271,0.4429939948015482,83.0,832.0,0.0
Y,R,"[5, 6]",0.0,1.0,0.24158191680908203,1.679917812347412,0.4395460271856273,83.0,833.0,0.0
G,D,"[6, 6]",0.0,1.0,0.24810791015625,1.663527011871338,0.4197441046652224,83.0,834.0,0.0
G,D,"[7, 6]",0.0,1.0,0.21776914596557617,1.7753140926361084,0.5616598921203273,83.0,835.0,0.0
Y,R,"[7, 7]",0.0,1.0,0.20783495903015137,1.7928431034088135,0.5879052743942302,83.0,836.0,0.0
R,U,"[6, 7]",0.0,1.0,0.22780203819274902,1.6522791385650635,0.4240175634368091,83.0,837.0,0.0
R,U,"[5, 7]",1.0,2.0,0.28102993965148926,1.645385980606079,0.369421903845186,83.0,838.0,0.0
G,D,"[6, 7]",0.0,2.0,0.332690954208374,1.8118681907653809,0.48126800261586816,83.0,839.0,0.0
R,U,"[5, 7]",0.0,2.0,0.3123459815979004,2.0398240089416504,0.7208648515653465,83.0,840.0,0.0
,,"(6, 6)",,,,,,83.0,,
R,U,"[5, 6]",1.0,1.0,0.6793990135192871,3.396028995513916,0.2837549761811012,,841.0,0.0
Y,R,"[5, 7]",1.0,2.0,0.2510709762573242,1.7405259609222412,0.47424029263706924,84.0,842.0,0.0
Y,R,"[5, 8]",1.0,3.0,0.25488805770874023,1.6808969974517822,0.42190472272145174,84.0,843.0,0.0
G,D,"[6, 8]",1.0,4.0,0.24665093421936035,1.6415479183197021,0.39699964067920823,84.0,844.0,0.0
Y,R,"[6, 9]",1.0,5.0,0.23360896110534668,1.662513017654419,0.4094457836061065,84.0,845.0,0.0
Y,R,"[6, 10]",1.0,6.0,0.2618129253387451,1.703402042388916,0.44593152604316644,84.0,846.0,0.0
R,U,"[5, 10]",1.0,7.0,0.2810091972351074,1.7209467887878418,0.4337169575815483,84.0,847.0,0.0
R,U,"[4, 10]",1.0,8.0,0.23592686653137207,1.7435200214385986,0.5105106044087324,84.0,848.0,0.0
B,L,"[4, 9]",1.0,9.0,0.23020100593566895,1.5615010261535645,0.3222201001805173,84.0,849.0,0.0
R,U,"[3, 9]",1.0,10.0,0.3284790515899658,1.931062936782837,0.6033536103047505,84.0,850.0,0.0
,,"(6, 6)",,,,,,84.0,,
R,U,"[5, 6]",1.0,1.0,0.5198311805725098,3.925732135772705,0.4624665142993563,,851.0,0.0
Y,R,"[5, 7]",1.0,2.0,0.20372486114501953,1.5553860664367676,0.3514729740464331,85.0,852.0,0.0
Y,R,"[5, 8]",1.0,3.0,0.1893310546875,1.8324081897735596,0.6336699226794629,85.0,853.0,0.0
G,D,"[6, 8]",1.0,4.0,0.22079110145568848,1.962204933166504,0.7290377540297301,85.0,854.0,0.0
Y,R,"[6, 9]",1.0,5.0,0.20566391944885254,1.659986972808838,0.43906905566651894,85.0,855.0,0.0
Y,R,"[6, 10]",1.0,6.0,0.24926495552062988,1.615126132965088,0.3544027379883819,85.0,856.0,0.0
R,U,"[5, 10]",1.0,7.0,0.23976612091064453,1.9200479984283447,0.6741551256142594,85.0,857.0,0.0
R,U,"[4, 10]",1.0,8.0,0.21426701545715332,1.716130018234253,0.5072698768456204,85.0,858.0,0.0
B,L,"[4, 9]",1.0,9.0,0.2502741813659668,1.538444995880127,0.27911089012833257,85.0,859.0,0.0
R,U,"[3, 9]",1.0,10.0,0.3130378723144531,1.7206449508666992,0.41647096679987544,85.0,860.0,0.0
,,"(6, 6)",,,,,,85.0,,
R,U,"[5, 6]",1.0,1.0,0.6017439365386963,2.821924924850464,0.2718488037736462,,861.0,0.0
B,L,"[5, 5]",0.0,1.0,0.24358201026916504,1.5512537956237793,0.30642042117161794,86.0,862.0,0.0
Y,R,"[5, 6]",0.0,1.0,0.2745368480682373,1.8340568542480469,0.5570583844312229,86.0,863.0,0.0
Y,R,"[5, 7]",1.0,2.0,0.2183971405029297,1.7973530292510986,0.5878239294688885,86.0,864.0,0.0
Y,R,"[5, 8]",1.0,3.0,0.2788419723510742,1.7307920455932617,0.452105927071255,86.0,865.0,0.0
G,D,"[6, 8]",1.0,4.0,0.3187987804412842,1.7914061546325684,0.4601257017705194,86.0,866.0,0.0
Y,R,"[6, 9]",1.0,5.0,0.23466706275939941,1.6532361507415771,0.4133453042016234,86.0,867.0,0.0
Y,R,"[6, 10]",1.0,6.0,0.18505406379699707,1.7499639987945557,0.5467135345935504,86.0,868.0,0.0
R,U,"[5, 10]",1.0,7.0,0.2300281524658203,1.8816101551055908,0.6447736302037073,86.0,869.0,0.0
R,U,"[4, 10]",1.0,8.0,0.23025989532470703,1.783095121383667,0.5613581145721389,86.0,870.0,0.0
,,"(6, 6)",,,,,,86.0,,
R,U,"[5, 6]",1.0,1.0,0.5299971103668213,4.18915319442749,0.717046086767311,,871.0,0.0
Y,R,"[5, 7]",1.0,2.0,0.1683061122894287,1.5339698791503906,0.35155795225578224,87.0,872.0,0.0
Y,R,"[5, 8]",1.0,3.0,0.2780790328979492,1.773313045501709,0.49128575280324016,87.0,873.0,0.0
G,D,"[6, 8]",1.0,4.0,0.3394439220428467,1.6630749702453613,0.32136954192751815,87.0,874.0,0.0
Y,R,"[6, 9]",1.0,5.0,0.1808791160583496,1.9285378456115723,0.749358093543493,87.0,875.0,0.0
Y,R,"[6, 10]",1.0,6.0,0.18447399139404297,1.6039068698883057,0.403596282124748,87.0,876.0,0.0
R,U,"[5, 10]",1.0,7.0,0.31437015533447266,2.064828872680664,0.734867397017163,87.0,877.0,0.0
R,U,"[4, 10]",1.0,8.0,0.1929759979248047,1.5896430015563965,0.3915652285034643,87.0,878.0,0.0
B,L,"[4, 9]",1.0,9.0,0.4959900379180908,1.8780808448791504,0.3864497789862006,87.0,879.0,0.0
R,U,"[3, 9]",1.0,10.0,0.18771600723266602,1.9244940280914307,0.7271865136673716,87.0,880.0,0.0
,,"(6, 6)",,,,,,87.0,,
R,U,"[5, 6]",1.0,1.0,0.5587990283966064,2.690845012664795,0.7180553286608875,,881.0,0.0
Y,R,"[5, 7]",1.0,2.0,0.1770470142364502,1.6910200119018555,0.5093518487742963,88.0,882.0,0.0
Y,R,"[5, 8]",1.0,3.0,0.2528531551361084,1.5743448734283447,0.3173183576679236,88.0,883.0,0.0
G,D,"[6, 8]",1.0,4.0,0.27333498001098633,1.832509994506836,0.5495341898753883,88.0,884.0,0.0
Y,R,"[6, 9]",1.0,5.0,0.1910719871520996,1.729438066482544,0.5291190431118373,88.0,885.0,0.0
Y,R,"[6, 10]",1.0,6.0,0.20649504661560059,1.9202890396118164,0.7159235680612366,88.0,886.0,0.0
R,U,"[5, 10]",1.0,7.0,0.19431519508361816,1.7504098415374756,0.5498587880970054,88.0,887.0,0.0
R,U,"[4, 10]",1.0,8.0,0.20048809051513672,1.9395208358764648,0.7225687378744539,88.0,888.0,0.0
B,L,"[4, 9]",1.0,9.0,0.29438304901123047,1.6495459079742432,0.35585077187551684,88.0,889.0,0.0
R,U,"[3, 9]",1.0,10.0,0.22705817222595215,1.5191709995269775,0.2916863472129611,88.0,890.0,0.0
,,"(6, 6)",,,,,,88.0,,
R,U,"[5, 6]",1.0,1.0,0.5687429904937744,2.8937180042266846,0.4186691322267421,,891.0,0.0
Y,R,"[5, 7]",1.0,2.0,0.1745898723602295,1.534383773803711,0.3531963216452214,89.0,892.0,0.0
Y,R,"[5, 8]",1.0,3.0,0.2348039150238037,1.7688770294189453,0.5218765820896957,89.0,893.0,0.0
G,D,"[6, 8]",1.0,4.0,0.20967698097229004,1.6965460777282715,0.48480655650065785,89.0,894.0,0.0
Y,R,"[6, 9]",1.0,5.0,0.20987510681152344,1.8810780048370361,0.6660799845962174,89.0,895.0,0.0
Y,R,"[6, 10]",1.0,6.0,0.23363518714904785,1.8598430156707764,0.6093635469816469,89.0,896.0,0.0
R,U,"[5, 10]",1.0,7.0,0.22664213180541992,1.8765051364898682,0.6523939300329666,89.0,897.0,0.0
R,U,"[4, 10]",1.0,8.0,0.10738515853881836,1.5030500888824463,0.38919103745371025,89.0,898.0,0.0
G,D,"[5, 10]",0.0,8.0,0.31849098205566406,1.7976081371307373,0.486807688613982,89.0,899.0,0.0
B,L,"[5, 9]",0.0,8.0,0.641197919845581,2.3712480068206787,0.7245342964528934,89.0,900.0,0.0
,,"(6, 6)",,,,,,89.0,,
R,U,"[5, 6]",1.0,1.0,0.6522560119628906,3.1394031047821045,0.41425382756685714,,901.0,0.0
Y,R,"[5, 7]",1.0,2.0,0.20076990127563477,1.5479309558868408,0.3289945445689727,90.0,902.0,0.0
Y,R,"[5, 8]",1.0,3.0,0.22866415977478027,1.9253299236297607,0.7038647292401732,90.0,903.0,0.0
G,D,"[6, 8]",1.0,4.0,0.24625802040100098,1.561147928237915,0.3154666878087335,90.0,904.0,0.0
Y,R,"[6, 9]",1.0,5.0,0.2416689395904541,1.9594268798828125,0.7077814846569919,90.0,905.0,0.0
Y,R,"[6, 10]",1.0,6.0,0.21584296226501465,1.7608129978179932,0.5355612838443069,90.0,906.0,0.0
R,U,"[5, 10]",1.0,7.0,0.22413992881774902,1.7916779518127441,0.5606797553044609,90.0,907.0,0.0
R,U,"[4, 10]",1.0,8.0,0.212738037109375,1.6990411281585693,0.4931106186459478,90.0,908.0,0.0
B,L,"[4, 9]",1.0,9.0,0.23578906059265137,1.6390790939331055,0.3990158944095891,90.0,909.0,0.0
R,U,"[3, 9]",1.0,10.0,0.11699700355529785,1.5313949584960938,0.39694438825387746,90.0,910.0,0.0
,,"(6, 6)",,,,,,90.0,,
R,U,"[5, 6]",1.0,1.0,0.5645020008087158,2.7145988941192627,0.744560624371116,,911.0,0.0
Y,R,"[5, 7]",1.0,2.0,0.10398602485656738,1.728605031967163,0.6234319879947134,91.0,912.0,0.0
Y,R,"[5, 8]",1.0,3.0,0.22062110900878906,1.5830049514770508,0.3566630929598556,91.0,913.0,0.0
G,D,"[6, 8]",1.0,4.0,0.24115991592407227,1.9466729164123535,0.7029961412091944,91.0,914.0,0.0
Y,R,"[6, 9]",1.0,5.0,0.20818495750427246,1.8761730194091797,0.6625382001142528,91.0,915.0,0.0
Y,R,"[6, 10]",1.0,6.0,0.22397518157958984,1.6725459098815918,0.435338987171435,91.0,916.0,0.0
R,U,"[5, 10]",1.0,7.0,0.31140995025634766,1.8561961650848389,0.5416429775161529,91.0,917.0,0.0
R,U,"[4, 10]",1.0,8.0,0.18643498420715332,1.4954960346221924,0.3039556449654361,91.0,918.0,0.0
Y,R,"[4, 11]",0.0,8.0,0.23422598838806152,1.6862411499023438,0.4567459869540572,91.0,919.0,0.0
B,L,"[4, 10]",0.0,8.0,0.2943730354309082,1.6190500259399414,0.3258620260308747,91.0,920.0,0.0
,,"(6, 6)",,,,,,91.0,,
R,U,"[5, 6]",1.0,1.0,0.5555858612060547,3.1716887950897217,0.29772607127184075,,921.0,0.0
Y,R,"[5, 7]",1.0,2.0,0.21362090110778809,1.8519809246063232,0.6327326836713099,92.0,922.0,0.0
Y,R,"[5, 8]",1.0,3.0,0.22735190391540527,1.5272691249847412,0.2937773959520399,92.0,923.0,0.0
G,D,"[6, 8]",1.0,4.0,0.26780009269714355,1.8185169696807861,0.5621008691078417,92.0,924.0,0.0
Y,R,"[6, 9]",1.0,5.0,0.2303478717803955,1.6015598773956299,0.3803880415169153,92.0,925.0,0.0
Y,R,"[6, 10]",1.0,6.0,0.2355048656463623,1.7331640720367432,0.4803330793455427,92.0,926.0,0.0
R,U,"[5, 10]",1.0,7.0,0.2466428279876709,1.5935559272766113,0.34067287751814823,92.0,927.0,0.0
R,U,"[4, 10]",1.0,8.0,0.31009697914123535,1.767690896987915,0.45814055816934907,92.0,928.0,0.0
B,L,"[4, 9]",1.0,9.0,0.2034769058227539,1.4635419845581055,0.25528434446104953,92.0,929.0,0.0
R,U,"[3, 9]",1.0,10.0,0.24284100532531738,1.746135950088501,0.5011679729893876,92.0,930.0,0.0
,,"(6, 6)",,,,,,92.0,,
R,U,"[5, 6]",1.0,1.0,0.6246411800384521,2.4336190223693848,0.3515929469756163,,931.0,0.0
Y,R,"[5, 7]",1.0,2.0,0.20973801612854004,1.759221076965332,0.5443603492398597,93.0,932.0,0.0
Y,R,"[5, 8]",1.0,3.0,0.2208099365234375,1.5873908996582031,0.3650916601012761,93.0,933.0,0.0
G,D,"[6, 8]",1.0,4.0,0.26775503158569336,1.9130969047546387,0.6278512362656627,93.0,934.0,0.0
Y,R,"[6, 9]",1.0,5.0,0.2060379981994629,1.5028657913208008,0.29757789757726705,93.0,935.0,0.0
Y,R,"[6, 10]",1.0,6.0,0.2842710018157959,1.964108943939209,0.6615562346399806,93.0,936.0,0.0
R,U,"[5, 10]",1.0,7.0,0.19123387336730957,1.5122599601745605,0.32402806326777844,93.0,937.0,0.0
R,U,"[4, 10]",1.0,8.0,0.22959184646606445,1.569087028503418,0.3428957522790596,93.0,938.0,0.0
B,L,"[4, 9]",1.0,9.0,0.2409510612487793,1.6024541854858398,0.36212595301176476,93.0,939.0,0.0
R,U,"[3, 9]",1.0,10.0,0.20920205116271973,1.5496909618377686,0.34538187511819735,93.0,940.0,0.0
,,"(6, 6)",,,,,,93.0,,
R,U,"[5, 6]",1.0,1.0,0.35556888580322266,3.4947381019592285,0.48990913446215173,,941.0,0.0
Y,R,"[5, 7]",1.0,2.0,0.233367919921875,1.9269640445709229,0.6833718452358166,94.0,942.0,0.0
Y,R,"[5, 8]",1.0,3.0,0.18021202087402344,1.7112879753112793,0.5279910340386016,94.0,943.0,0.0
G,D,"[6, 8]",1.0,4.0,0.20241403579711914,1.6133360862731934,0.4082177920239044,94.0,944.0,0.0
Y,R,"[6, 9]",1.0,5.0,0.14345598220825195,1.6039299964904785,0.4620990590757909,94.0,945.0,0.0
Y,R,"[6, 10]",1.0,6.0,0.22047901153564453,1.9017529487609863,0.6805607640765092,94.0,946.0,0.0
R,U,"[5, 10]",1.0,7.0,0.1920480728149414,1.7682271003723145,0.565566946516812,94.0,947.0,0.0
R,U,"[4, 10]",1.0,8.0,0.19123411178588867,1.8745381832122803,0.6733175228365555,94.0,948.0,0.0
B,L,"[4, 9]",1.0,9.0,0.2117757797241211,1.6656970977783203,0.45578823322422474,94.0,949.0,0.0
R,U,"[3, 9]",1.0,10.0,0.2531888484954834,1.6769180297851562,0.4161165849744079,94.0,950.0,0.0
,,"(6, 6)",,,,,,94.0,,
R,U,"[5, 6]",1.0,1.0,0.6883509159088135,2.747176170349121,0.5132888142072063,,951.0,0.0
Y,R,"[5, 7]",1.0,2.0,0.20479297637939453,1.5396990776062012,0.3198967377954648,95.0,952.0,0.0
Y,R,"[5, 8]",1.0,3.0,0.22172808647155762,1.7854959964752197,0.5550572355455871,95.0,953.0,0.0
G,D,"[6, 8]",1.0,4.0,0.23734092712402344,1.6859409809112549,0.44110157047141163,95.0,954.0,0.0
Y,R,"[6, 9]",1.0,5.0,0.27222204208374023,1.8463490009307861,0.5707198750879587,95.0,955.0,0.0
Y,R,"[6, 10]",1.0,6.0,0.2121129035949707,1.611341953277588,0.39893323829720095,95.0,956.0,0.0
R,U,"[5, 10]",1.0,7.0,0.2588939666748047,1.5770759582519531,0.30945806805475695,95.0,957.0,0.0
R,U,"[4, 10]",1.0,8.0,0.2340238094329834,1.7336900234222412,0.493120584691492,95.0,958.0,0.0
B,L,"[4, 9]",1.0,9.0,0.17674803733825684,1.4695911407470703,0.2961697754079934,95.0,959.0,0.0
R,U,"[3, 9]",1.0,10.0,0.27024388313293457,1.6329519748687744,0.3456618038483407,95.0,960.0,0.0
,,"(6, 6)",,,,,,95.0,,
R,U,"[5, 6]",1.0,1.0,0.6246931552886963,2.7412238121032715,0.6532916197294323,,961.0,0.0
Y,R,"[5, 7]",1.0,2.0,0.17771697044372559,1.7229578495025635,0.5430675673229034,96.0,962.0,0.0
Y,R,"[5, 8]",1.0,3.0,0.20632100105285645,1.8373470306396484,0.6303967014318254,96.0,963.0,0.0
G,D,"[6, 8]",1.0,4.0,0.2093050479888916,1.5518379211425781,0.3325706989780166,96.0,964.0,0.0
Y,R,"[6, 9]",1.0,5.0,0.2712070941925049,1.7112998962402344,0.42716074010177263,96.0,965.0,0.0
Y,R,"[6, 10]",1.0,6.0,0.2352919578552246,1.6985719203948975,0.4589002060228065,96.0,966.0,0.0
R,U,"[5, 10]",1.0,7.0,0.19536399841308594,1.9232769012451172,0.732056133637699,96.0,967.0,0.0
R,U,"[4, 10]",1.0,8.0,0.16827702522277832,1.5300209522247314,0.3458307445253641,96.0,968.0,0.0
B,L,"[4, 9]",1.0,9.0,0.3824179172515869,2.0089640617370605,0.6376463708520875,96.0,969.0,0.0
R,U,"[3, 9]",1.0,10.0,0.1869039535522461,1.7899830341339111,0.5945313612118861,96.0,970.0,0.0
,,"(6, 6)",,,,,,96.0,,
R,U,"[5, 6]",1.0,1.0,0.5927820205688477,2.6930060386657715,0.6873598191630774,,971.0,0.0
Y,R,"[5, 7]",1.0,2.0,0.1734609603881836,1.7573208808898926,0.5782459472999272,97.0,972.0,0.0
Y,R,"[5, 8]",1.0,3.0,0.21872401237487793,1.5489270687103271,0.3273563177662555,97.0,973.0,0.0
G,D,"[6, 8]",1.0,4.0,0.2319960594177246,1.663585901260376,0.42417992070818605,97.0,974.0,0.0
Y,R,"[6, 9]",1.0,5.0,0.21127915382385254,1.53895902633667,0.3299415339295546,97.0,975.0,0.0
Y,R,"[6, 10]",1.0,6.0,0.2694978713989258,1.904175043106079,0.6171535430775259,97.0,976.0,0.0
R,U,"[5, 10]",1.0,7.0,0.24727296829223633,1.7139570713043213,0.464720401998252,97.0,977.0,0.0
R,U,"[4, 10]",1.0,8.0,0.2038881778717041,1.868513822555542,0.6497304982913815,97.0,978.0,0.0
B,L,"[4, 9]",1.0,9.0,0.19223499298095703,1.9239869117736816,0.7236622961793762,97.0,979.0,0.0
R,U,"[3, 9]",1.0,10.0,0.1946430206298828,1.842029094696045,0.6490136424650683,97.0,980.0,0.0
,,"(6, 6)",,,,,,97.0,,
R,U,"[5, 6]",1.0,1.0,0.6610949039459229,2.843238115310669,0.4924449007904829,,981.0,0.0
Y,R,"[5, 7]",1.0,2.0,0.20128107070922852,1.8711111545562744,0.6633538139915361,98.0,982.0,0.0
Y,R,"[5, 8]",1.0,3.0,0.21608591079711914,1.6030609607696533,0.36680005091980794,98.0,983.0,0.0
G,D,"[6, 8]",1.0,4.0,0.2550210952758789,1.6316099166870117,0.36522979434050823,98.0,984.0,0.0
Y,R,"[6, 9]",1.0,5.0,0.19080615043640137,1.811689853668213,0.6099097745601068,98.0,985.0,0.0
Y,R,"[6, 10]",1.0,6.0,0.2033250331878662,1.8646049499511719,0.6578383563727535,98.0,986.0,0.0
R,U,"[5, 10]",1.0,7.0,0.17342400550842285,1.7777957916259766,0.6023056427688251,98.0,987.0,0.0
R,U,"[4, 10]",1.0,8.0,0.19235801696777344,1.6130788326263428,0.4157133839971793,98.0,988.0,0.0
B,L,"[4, 9]",1.0,9.0,0.23559093475341797,1.7690489292144775,0.5180285486805051,98.0,989.0,0.0
R,U,"[3, 9]",1.0,10.0,0.20206499099731445,1.8354809284210205,0.6200521622449964,98.0,990.0,0.0
,,"(6, 6)",,,,,,98.0,,
R,U,"[5, 6]",1.0,1.0,0.5522210597991943,2.1716580390930176,0.2753788071190014,,991.0,0.0
Y,R,"[5, 7]",1.0,2.0,0.249924898147583,1.8303899765014648,0.5724220950940635,99.0,992.0,0.0
Y,R,"[5, 8]",1.0,3.0,0.24164104461669922,1.5841689109802246,0.3400094485988393,99.0,993.0,0.0
G,D,"[6, 8]",1.0,4.0,0.23661208152770996,1.7570178508758545,0.5300574784953915,99.0,994.0,0.0
Y,R,"[6, 9]",1.0,5.0,0.19471406936645508,1.9163188934326172,0.7129323688187306,99.0,995.0,0.0
Y,R,"[6, 10]",-1.0,5.0,0.060311079025268555,5.894607067108154,0.6909993606321336,99.0,996.0,0.0
Y,R,"[6, 11]",0.0,5.0,0.21525311470031738,1.6192049980163574,0.41039278017297093,99.0,997.0,0.0
R,U,"[5, 11]",0.0,5.0,0.40535807609558105,1.837087869644165,0.43085652534859215,99.0,998.0,0.0
R,U,"[4, 11]",0.0,5.0,0.25344395637512207,1.8871009349822998,0.6179101769808871,99.0,999.0,0.0
R,U,"[3, 11]",0.0,5.0,0.3031809329986572,1.952869176864624,0.6372972020063465,99.0,1000.0,0.0
