button_choice,action_choice,coordinate_choice,reward,cumulative_reward,rt,total_trial_time,iti,block_n,trial_n,trial_type
B,L,"[6, 5]",-2.0,0.0,1.8154218196868896,3.216719150543213,0.36753795625242663,0.0,1.0,0.0
B,L,"[6, 4]",0.0,0.0,0.7329399585723877,2.1869449615478516,0.3544721039019711,0.0,2.0,0.0
G,D,"[7, 4]",0.0,0.0,0.5085830688476562,2.2889938354492188,0.676481777803845,0.0,3.0,0.0
R,U,"[6, 4]",-2.0,0.0,1.0513999462127686,2.637643814086914,0.5644374493503712,0.0,4.0,0.0
R,U,"[5, 4]",-2.0,0.0,4.456712007522583,5.9464709758758545,0.44437802354064954,0.0,5.0,0.0
R,U,"[4, 4]",0.0,0.0,0.2664308547973633,2.096450090408325,0.7406675261684815,0.0,6.0,0.0
Y,R,"[4, 5]",0.0,0.0,0.3545811176300049,2.1897671222686768,0.7469532868825066,0.0,7.0,0.0
B,L,"[4, 4]",0.0,0.0,0.3324699401855469,2.0273780822753906,0.5913277530595953,0.0,8.0,0.0
G,D,"[5, 4]",0.0,0.0,0.21287798881530762,1.6286580562591553,0.32008700544615004,0.0,9.0,0.0
Y,R,"[5, 5]",0.0,0.0,0.2316880226135254,1.663144826889038,0.33324649876173135,0.0,10.0,0.0
,,"(6, 6)",,,,,,,,
Y,R,"[6, 7]",0.0,0.0,0.4541311264038086,6.602558851242065,0.552541095960705,1.0,11.0,0.0
R,U,"[5, 7]",1.0,1.0,0.4614739418029785,1.8755440711975098,0.31151034070703487,1.0,12.0,0.0
R,U,"[4, 7]",0.0,1.0,0.3328671455383301,1.863534927368164,0.44170725161962004,1.0,13.0,0.0
G,D,"[5, 7]",0.0,1.0,0.27321410179138184,1.6982488632202148,0.3233266550828847,1.0,14.0,0.0
B,L,"[5, 6]",1.0,2.0,0.22402501106262207,1.9556219577789307,0.6286766881164298,1.0,15.0,0.0
G,D,"[6, 6]",0.0,2.0,0.3140580654144287,1.9163169860839844,0.5118363879142869,1.0,16.0,0.0
Y,R,"[6, 7]",0.0,2.0,0.21761512756347656,1.5955688953399658,0.29090999515267296,1.0,17.0,0.0
R,U,"[5, 7]",-2.0,2.0,1.432424783706665,2.7657699584960938,0.3067724247857241,1.0,18.0,0.0
R,U,"[4, 7]",0.0,2.0,0.25092005729675293,2.0359761714935303,0.692648973585424,1.0,19.0,0.0
B,L,"[4, 6]",0.0,2.0,0.20070481300354004,1.7042720317840576,0.41337255284874497,1.0,20.0,0.0
,,"(6, 6)",,,,,,,,
R,U,"[5, 6]",1.0,1.0,0.420881986618042,5.14865517616272,0.7288292091906148,2.0,21.0,0.0
B,L,"[5, 5]",0.0,1.0,0.2079181671142578,1.724457025527954,0.420247830089124,2.0,22.0,0.0
G,D,"[6, 5]",0.0,1.0,0.34368395805358887,1.8662731647491455,0.4197327823999429,2.0,23.0,0.0
Y,R,"[6, 6]",0.0,1.0,0.2511591911315918,1.6488730907440186,0.30212304202647444,2.0,24.0,0.0
R,U,"[5, 6]",0.0,1.0,0.2284688949584961,1.753345012664795,0.42210580098961714,2.0,25.0,0.0
Y,R,"[5, 7]",1.0,2.0,0.18534588813781738,1.5697660446166992,0.2920059220588316,2.0,26.0,0.0
G,D,"[6, 7]",0.0,2.0,0.267841100692749,2.099975109100342,0.7415696913910494,2.0,27.0,0.0
Y,R,"[6, 8]",1.0,3.0,0.21945619583129883,1.809169054031372,0.500899352350521,2.0,28.0,0.0
B,L,"[6, 7]",0.0,3.0,0.21845698356628418,1.9023840427398682,0.5866538422195584,2.0,29.0,0.0
G,D,"[7, 7]",0.0,3.0,0.19027996063232422,1.6719927787780762,0.37551986995539716,2.0,30.0,0.0
,,"(6, 6)",,,,,,,,
Y,R,"[6, 7]",0.0,0.0,0.8715901374816895,4.121855020523071,0.44743108488055644,3.0,31.0,0.0
R,U,"[5, 7]",1.0,1.0,0.20339202880859375,1.6739790439605713,0.37146223397715006,3.0,32.0,0.0
Y,R,"[5, 8]",1.0,2.0,0.20999503135681152,1.9395570755004883,0.6273726028768027,3.0,33.0,0.0
G,D,"[6, 8]",1.0,3.0,0.28662800788879395,1.8069159984588623,0.43438486199247356,3.0,34.0,0.0
B,L,"[6, 7]",0.0,3.0,0.22076201438903809,1.609739065170288,0.29459662058339986,3.0,35.0,0.0
R,U,"[5, 7]",-2.0,3.0,1.2398688793182373,2.7328450679779053,0.46048044533378246,3.0,36.0,0.0
R,U,"[4, 7]",0.0,3.0,0.22890996932983398,1.7530691623687744,0.4303726287507172,3.0,37.0,0.0
Y,R,"[4, 8]",0.0,3.0,0.1862030029296875,1.5547690391540527,0.26859806231584826,3.0,38.0,0.0
G,D,"[5, 8]",0.0,3.0,0.2520129680633545,1.9521799087524414,0.6037388861230575,3.0,39.0,0.0
B,L,"[5, 7]",0.0,3.0,0.3667759895324707,2.13601016998291,0.6732311551693431,3.0,40.0,0.0
,,"(6, 6)",,,,,,,,
R,U,"[5, 6]",1.0,1.0,0.3036520481109619,3.568056106567383,0.6079226287486293,4.0,41.0,0.0
Y,R,"[5, 7]",1.0,2.0,0.1852879524230957,1.6830189228057861,0.40788148300481747,4.0,42.0,0.0
G,D,"[6, 7]",0.0,2.0,0.2570621967315674,1.760650873184204,0.40178295038338147,4.0,43.0,0.0
B,L,"[6, 6]",0.0,2.0,0.3044099807739258,1.7868578433990479,0.3887451057758881,4.0,44.0,0.0
R,U,"[5, 6]",0.0,2.0,0.1423039436340332,1.778454065322876,0.5337562368609713,4.0,45.0,0.0
Y,R,"[5, 7]",0.0,2.0,0.10509896278381348,1.75819993019104,0.5420243502663289,4.0,46.0,0.0
B,L,"[5, 6]",0.0,2.0,0.1433579921722412,1.821476936340332,0.5799075759004158,4.0,47.0,0.0
G,D,"[6, 6]",-1.0,2.0,0.009917020797729492,5.589909076690674,0.4535421216025433,4.0,48.0,0.0
G,D,"[7, 6]",0.0,2.0,0.25610899925231934,1.9576761722564697,0.5944519986433142,4.0,49.0,0.0
B,L,"[7, 5]",0.0,2.0,0.2844228744506836,1.8439970016479492,0.4718837344568344,4.0,50.0,0.0
,,"(6, 6)",,,,,,,,
R,U,"[5, 6]",1.0,1.0,0.566709041595459,6.130945205688477,0.3031872032427526,5.0,51.0,0.0
Y,R,"[5, 7]",1.0,2.0,0.2690739631652832,1.7119810581207275,0.34840193352203375,5.0,52.0,0.0
G,D,"[6, 7]",0.0,2.0,0.5549721717834473,2.1516480445861816,0.499993206111311,5.0,53.0,0.0
R,U,"[5, 7]",0.0,2.0,0.6428461074829102,2.255976915359497,0.5058921125332532,5.0,54.0,0.0
B,L,"[5, 6]",0.0,2.0,0.4051859378814697,2.177872896194458,0.6837294725456183,5.0,55.0,0.0
G,D,"[6, 6]",0.0,2.0,0.22891902923583984,1.8898248672485352,0.5570656273898308,5.0,56.0,0.0
R,U,"[5, 6]",0.0,2.0,0.18166208267211914,1.9737579822540283,0.69728522108195,5.0,57.0,0.0
Y,R,"[5, 7]",0.0,2.0,0.2121419906616211,1.7940669059753418,0.47498707920185534,5.0,58.0,0.0
B,L,"[5, 6]",0.0,2.0,0.17147111892700195,1.9272959232330322,0.668818046161171,5.0,59.0,0.0
G,D,"[6, 6]",-1.0,2.0,0.07518601417541504,5.482131004333496,0.26785879141931696,5.0,60.0,0.0
,,"(6, 6)",,,,,,,,
R,U,"[5, 6]",1.0,1.0,0.5250298976898193,4.169297933578491,0.3539143461186316,6.0,61.0,0.0
Y,R,"[5, 7]",1.0,2.0,0.282501220703125,1.9929358959197998,0.6132831834295634,6.0,62.0,0.0
B,L,"[5, 6]",0.0,2.0,0.2948899269104004,2.0280399322509766,0.6247921244533103,6.0,63.0,0.0
G,D,"[6, 6]",0.0,2.0,0.22762799263000488,1.587162971496582,0.2622584871372146,6.0,64.0,0.0
R,U,"[5, 6]",0.0,2.0,0.33138012886047363,1.9656729698181152,0.5443470493646239,6.0,65.0,0.0
R,U,"[4, 6]",0.0,2.0,0.2135460376739502,1.633514165878296,0.3280521597924094,6.0,66.0,0.0
Y,R,"[4, 7]",0.0,2.0,0.23251819610595703,1.700361967086792,0.37845350897415436,6.0,67.0,0.0
G,D,"[5, 7]",0.0,2.0,0.2713141441345215,2.096207857131958,0.7409463998148377,6.0,68.0,0.0
B,L,"[5, 6]",0.0,2.0,0.18952107429504395,1.9592070579528809,0.6670233435039954,6.0,69.0,0.0
B,L,"[5, 5]",0.0,2.0,0.21379613876342773,1.952265977859497,0.6358560895632005,6.0,70.0,0.0
,,"(6, 6)",,,,,,,,
R,U,"[5, 6]",1.0,1.0,0.4594390392303467,3.7326550483703613,0.33550911942739764,7.0,71.0,0.0
Y,R,"[5, 7]",1.0,2.0,0.25466179847717285,1.7860889434814453,0.4382623150228778,7.0,72.0,0.0
R,U,"[4, 7]",0.0,2.0,0.24161887168884277,1.7544291019439697,0.4093445890448305,7.0,73.0,0.0
R,U,"[3, 7]",0.0,2.0,0.23740816116333008,1.824263095855713,0.48354416352072566,7.0,74.0,0.0
G,D,"[4, 7]",0.0,2.0,0.27532315254211426,1.9262731075286865,0.543221136507317,7.0,75.0,0.0
B,L,"[4, 6]",0.0,2.0,0.21877503395080566,1.9454782009124756,0.6386525058744904,7.0,76.0,0.0
Y,R,"[4, 7]",0.0,2.0,0.18363595008850098,1.5740399360656738,0.29633521406116126,7.0,77.0,0.0
Y,R,"[4, 8]",0.0,2.0,0.364469051361084,2.1577517986297607,0.6869987856413374,7.0,78.0,0.0
B,L,"[4, 7]",0.0,2.0,0.2291431427001953,1.6942799091339111,0.36498736321198305,7.0,79.0,0.0
G,D,"[5, 7]",0.0,2.0,0.22744107246398926,1.9626479148864746,0.6275786504998957,7.0,80.0,0.0
,,"(6, 6)",,,,,,,,
Y,R,"[6, 7]",0.0,0.0,0.4234199523925781,3.8786840438842773,0.7059374051749352,8.0,81.0,0.0
R,U,"[5, 7]",1.0,1.0,0.21836304664611816,1.8454668521881104,0.5351019242369288,8.0,82.0,0.0
Y,R,"[5, 8]",1.0,2.0,0.19577312469482422,1.7687840461730957,0.47070886934031486,8.0,83.0,0.0
Y,R,"[5, 9]",0.0,2.0,0.3634769916534424,2.0891830921173096,0.6263712183261064,8.0,84.0,0.0
G,D,"[6, 9]",1.0,3.0,0.4196910858154297,2.073599100112915,0.5666694950016852,8.0,85.0,0.0
B,L,"[6, 8]",1.0,4.0,0.31537413597106934,2.1373729705810547,0.7206741580484839,8.0,86.0,0.0
G,D,"[7, 8]",0.0,4.0,0.2955780029296875,2.0627901554107666,0.6668450213776729,8.0,87.0,0.0
B,L,"[7, 7]",0.0,4.0,0.19840407371520996,1.791024923324585,0.491434916851719,8.0,88.0,0.0
R,U,"[6, 7]",0.0,4.0,0.2001180648803711,1.823063850402832,0.5311654524077014,8.0,89.0,0.0
Y,R,"[6, 8]",0.0,4.0,0.21687984466552734,2.058738946914673,0.7397291148289884,8.0,90.0,0.0
,,"(6, 6)",,,,,,,,
Y,R,"[6, 7]",0.0,0.0,0.44109606742858887,3.6288111209869385,0.4521705290839459,9.0,91.0,0.0
R,U,"[5, 7]",1.0,1.0,0.2556917667388916,1.9190418720245361,0.5545493788221783,9.0,92.0,0.0
Y,R,"[5, 8]",1.0,2.0,0.2176198959350586,1.8628828525543213,0.5506982754724115,9.0,93.0,0.0
G,D,"[6, 8]",1.0,3.0,0.33734798431396484,1.7821578979492188,0.34971442104348827,9.0,94.0,0.0
B,L,"[6, 7]",0.0,3.0,0.4295358657836914,2.141573905944824,0.6077196605645998,9.0,95.0,0.0
G,D,"[7, 7]",0.0,3.0,0.2421720027923584,2.035187005996704,0.692976589819498,9.0,96.0,0.0
Y,R,"[7, 8]",0.0,3.0,0.5028269290924072,2.3100838661193848,0.7197489853756215,9.0,97.0,0.0
R,U,"[6, 8]",0.0,3.0,0.2920699119567871,1.9263319969177246,0.5295812406513263,9.0,98.0,0.0
G,D,"[7, 8]",0.0,3.0,0.5972309112548828,2.2862441539764404,0.5823464543202905,9.0,99.0,0.0
B,L,"[7, 7]",0.0,3.0,0.3375730514526367,1.843756914138794,0.40979400445465247,9.0,100.0,0.0
,,"(6, 6)",,,,,,,,
R,U,"[5, 6]",1.0,1.0,0.6501529216766357,4.467270851135254,0.4270565945065075,10.0,101.0,0.0
Y,R,"[5, 7]",1.0,2.0,0.2137889862060547,1.6478338241577148,0.3417364983048709,10.0,102.0,0.0
G,D,"[6, 7]",0.0,2.0,0.41277503967285156,1.928184986114502,0.4197348748307282,10.0,103.0,0.0
B,L,"[6, 6]",0.0,2.0,0.6339099407196045,2.078540086746216,0.3484394243288933,10.0,104.0,0.0
G,D,"[7, 6]",0.0,2.0,0.30729103088378906,1.8594281673431396,0.4410692431031321,10.0,105.0,0.0
B,L,"[7, 5]",0.0,2.0,0.18251490592956543,1.8223168849945068,0.5467534673910668,10.0,106.0,0.0
G,D,"[8, 5]",0.0,2.0,0.19326114654541016,1.6629559993743896,0.35989026125122914,10.0,107.0,0.0
B,L,"[8, 4]",0.0,2.0,0.2859959602355957,1.6674630641937256,0.2940079825578691,10.0,108.0,0.0
G,D,"[9, 4]",0.0,2.0,0.2664809226989746,2.084372043609619,0.7279872910705845,10.0,109.0,0.0
B,L,"[9, 3]",0.0,2.0,0.39321017265319824,2.16788387298584,0.6793377174630999,10.0,110.0,0.0
,,"(6, 6)",,,,,,,,
Y,R,"[6, 7]",-2.0,0.0,1.0772480964660645,4.673053026199341,0.4194262137136909,11.0,111.0,0.0
Y,R,"[6, 8]",1.0,1.0,0.5654129981994629,2.2840969562530518,0.619909209250748,11.0,112.0,0.0
R,U,"[5, 8]",1.0,2.0,0.2081129550933838,1.8711121082305908,0.5577568694976003,11.0,113.0,0.0
Y,R,"[5, 9]",0.0,2.0,0.24558615684509277,1.5930030345916748,0.2511008595966446,11.0,114.0,0.0
B,L,"[5, 8]",0.0,2.0,0.41565704345703125,2.1596269607543945,0.6438082441854935,11.0,115.0,0.0
G,D,"[6, 8]",0.0,2.0,0.2460489273071289,2.03729510307312,0.6976115023468537,11.0,116.0,0.0
R,U,"[5, 8]",0.0,2.0,0.41330504417419434,1.9133551120758057,0.3946326829554057,11.0,117.0,0.0
Y,R,"[5, 9]",0.0,2.0,0.22697687149047852,1.6201419830322266,0.2983570211056274,11.0,118.0,0.0
R,U,"[4, 9]",1.0,3.0,0.3047177791595459,1.8593180179595947,0.4574448571524876,11.0,119.0,0.0
Y,R,"[4, 10]",1.0,4.0,0.603553056716919,2.2709460258483887,0.5782754204668917,11.0,120.0,0.0
,,"(6, 6)",,,,,,,,
Y,R,"[6, 7]",0.0,0.0,0.5622889995574951,3.5014100074768066,0.2634176407339784,12.0,121.0,0.0
R,U,"[5, 7]",1.0,1.0,0.28661108016967773,1.8144829273223877,0.41109914059700675,12.0,122.0,0.0
Y,R,"[5, 8]",1.0,2.0,0.2697908878326416,1.6311960220336914,0.2759498816422772,12.0,123.0,0.0
G,D,"[6, 8]",1.0,3.0,0.42926597595214844,1.8772358894348145,0.352806900344968,12.0,124.0,0.0
B,L,"[6, 7]",0.0,3.0,0.35294604301452637,2.0287768840789795,0.5815861551841048,12.0,125.0,0.0
R,U,"[5, 7]",0.0,3.0,0.9597430229187012,2.522165060043335,0.45376688976952645,12.0,126.0,0.0
Y,R,"[5, 8]",0.0,3.0,0.22719907760620117,1.9112379550933838,0.5817593087295707,12.0,127.0,0.0
G,D,"[6, 8]",0.0,3.0,0.13563990592956543,1.9286410808563232,0.6938353810793221,12.0,128.0,0.0
B,L,"[6, 7]",-1.0,3.0,0.04015207290649414,5.793691158294678,0.6373975137623353,12.0,129.0,0.0
B,L,"[6, 6]",0.0,3.0,0.48415112495422363,2.1367599964141846,0.5575301873135976,12.0,130.0,0.0
,,"(6, 6)",,,,,,,,
R,U,"[5, 6]",1.0,1.0,0.6555159091949463,3.8215179443359375,0.545986958452663,13.0,131.0,0.0
Y,R,"[5, 7]",1.0,2.0,0.44985103607177734,1.9451639652252197,0.3913763250306712,13.0,132.0,0.0
G,D,"[6, 7]",0.0,2.0,0.41941094398498535,2.234968900680542,0.7258382347894479,13.0,133.0,0.0
B,L,"[6, 6]",0.0,2.0,0.19813108444213867,1.872675895690918,0.5821339960460853,13.0,134.0,0.0
G,D,"[7, 6]",0.0,2.0,0.49483299255371094,2.003197193145752,0.40212224492211784,13.0,135.0,0.0
B,L,"[7, 5]",0.0,2.0,0.23027300834655762,1.9418599605560303,0.6105655649866224,13.0,136.0,0.0
Y,R,"[7, 6]",0.0,2.0,0.2368299961090088,1.8468928337097168,0.5241205255199142,13.0,137.0,0.0
R,U,"[6, 6]",0.0,2.0,0.2617321014404297,1.9491169452667236,0.5898494697668801,13.0,138.0,0.0
R,U,"[5, 6]",0.0,2.0,0.28072690963745117,1.8745691776275635,0.49796886803004253,13.0,139.0,0.0
Y,R,"[5, 7]",0.0,2.0,0.2104790210723877,1.6275660991668701,0.3089942154659643,13.0,140.0,0.0
,,"(6, 6)",,,,,,,,
R,U,"[5, 6]",1.0,1.0,0.659412145614624,4.786384105682373,0.27869225282780147,14.0,141.0,0.0
Y,R,"[5, 7]",1.0,2.0,0.4829568862915039,1.9690730571746826,0.39787714104961025,14.0,142.0,0.0
G,D,"[6, 7]",0.0,2.0,0.25762510299682617,1.8375890254974365,0.468677583883075,14.0,143.0,0.0
B,L,"[6, 6]",0.0,2.0,0.18616580963134766,1.958540916442871,0.6770021613072772,14.0,144.0,0.0
R,U,"[5, 6]",0.0,2.0,0.436229944229126,2.060631036758423,0.5378440338560166,14.0,145.0,0.0
Y,R,"[5, 7]",0.0,2.0,0.383026123046875,1.7663328647613525,0.2877680111328817,14.0,146.0,0.0
G,D,"[6, 7]",0.0,2.0,0.625669002532959,2.0167438983917236,0.28785804798968334,14.0,147.0,0.0
B,L,"[6, 6]",0.0,2.0,0.47617197036743164,2.0440430641174316,0.4650552854068536,14.0,148.0,0.0
R,U,"[5, 6]",0.0,2.0,0.274493932723999,1.659153938293457,0.2744728925713497,14.0,149.0,0.0
Y,R,"[5, 7]",0.0,2.0,0.27282118797302246,2.0097291469573975,0.6339240820838323,14.0,150.0,0.0
,,"(6, 6)",,,,,,,,
R,U,"[5, 6]",1.0,1.0,0.5550098419189453,11.054524898529053,0.6884863619837986,15.0,151.0,0.0
Y,R,"[5, 7]",1.0,2.0,0.34246182441711426,2.0919830799102783,0.6471812518216686,15.0,152.0,0.0
B,L,"[5, 6]",-2.0,2.0,1.136436939239502,2.5600810050964355,0.39097491902721115,15.0,153.0,0.0
B,L,"[5, 5]",0.0,2.0,0.2734818458557129,1.7213850021362305,0.34558003230488593,15.0,154.0,0.0
G,D,"[6, 5]",0.0,2.0,0.22208094596862793,2.0438079833984375,0.7224728835762891,15.0,155.0,0.0
B,L,"[6, 4]",0.0,2.0,0.3449440002441406,2.0599629878997803,0.6158784443520242,15.0,156.0,0.0
Y,R,"[6, 5]",0.0,2.0,0.19033217430114746,1.9803979396820068,0.6797047545297968,15.0,157.0,0.0
R,U,"[5, 5]",0.0,2.0,0.22310113906860352,1.9934780597686768,0.6730734700036187,15.0,158.0,0.0
R,U,"[4, 5]",0.0,2.0,0.2520899772644043,2.051346778869629,0.7077146324012131,15.0,159.0,0.0
R,U,"[3, 5]",0.0,2.0,0.2288680076599121,1.997534990310669,0.6718976248853126,15.0,160.0,0.0
,,"(6, 6)",,,,,,,,
R,U,"[5, 6]",1.0,1.0,0.5671751499176025,3.552866220474243,0.37538788213689667,16.0,161.0,0.0
Y,R,"[5, 7]",1.0,2.0,0.2919330596923828,1.8391690254211426,0.4477071423562518,16.0,162.0,0.0
R,U,"[4, 7]",0.0,2.0,0.3482089042663574,2.178762912750244,0.7262276773009392,16.0,163.0,0.0
R,U,"[3, 7]",0.0,2.0,0.4525279998779297,1.8176889419555664,0.2777151361626328,16.0,164.0,0.0
Y,R,"[3, 8]",0.0,2.0,0.2370319366455078,1.7208049297332764,0.3984852468375672,16.0,165.0,0.0
B,L,"[3, 7]",0.0,2.0,0.48755788803100586,1.9517650604248047,0.3670317979730687,16.0,166.0,0.0
G,D,"[4, 7]",0.0,2.0,0.24065685272216797,1.9760761260986328,0.6260942925453047,16.0,167.0,0.0
R,U,"[3, 7]",-2.0,2.0,1.133340835571289,2.631117105484009,0.4739718863914097,16.0,168.0,0.0
R,U,"[2, 7]",0.0,2.0,0.23298096656799316,2.047340154647827,0.7210731981308487,16.0,169.0,0.0
Y,R,"[2, 8]",0.0,2.0,0.20222902297973633,1.6482820510864258,0.35319671216183346,16.0,170.0,0.0
,,"(6, 6)",,,,,,,,
R,U,"[5, 6]",1.0,1.0,0.578510046005249,8.790832996368408,0.5938726276288939,17.0,171.0,0.0
Y,R,"[5, 7]",1.0,2.0,0.3339109420776367,1.8021278381347656,0.37957926543086024,17.0,172.0,0.0
G,D,"[6, 7]",0.0,2.0,0.6434471607208252,2.160515069961548,0.40675034926346026,17.0,173.0,0.0
B,L,"[6, 6]",0.0,2.0,0.344728946685791,1.912424087524414,0.46914751161889184,17.0,174.0,0.0
B,L,"[6, 5]",0.0,2.0,0.32379698753356934,1.794619083404541,0.3634077083024697,17.0,175.0,0.0
R,U,"[5, 5]",0.0,2.0,0.23670101165771484,2.014552116394043,0.6781805448500227,17.0,176.0,0.0
Y,R,"[5, 6]",0.0,2.0,0.23703813552856445,1.7610681056976318,0.4391604057191726,17.0,177.0,0.0
B,L,"[5, 5]",0.0,2.0,0.23539090156555176,1.8869800567626953,0.5596420851266084,17.0,178.0,0.0
G,D,"[6, 5]",0.0,2.0,0.25703907012939453,1.7174301147460938,0.3607746107045535,17.0,179.0,0.0
B,L,"[6, 4]",0.0,2.0,0.2725841999053955,1.6695001125335693,0.296959102216247,17.0,180.0,0.0
,,"(6, 6)",,,,,,,,
R,U,"[5, 6]",1.0,1.0,0.686924934387207,3.5952131748199463,0.40877875757866267,18.0,181.0,0.0
Y,R,"[5, 7]",1.0,2.0,0.2520928382873535,1.953373908996582,0.6120292818081006,18.0,182.0,0.0
B,L,"[5, 6]",0.0,2.0,0.2798609733581543,1.7980210781097412,0.42692379456577123,18.0,183.0,0.0
G,D,"[6, 6]",0.0,2.0,0.30600500106811523,1.770392894744873,0.36414309507371884,18.0,184.0,0.0
Y,R,"[6, 7]",0.0,2.0,0.3749239444732666,1.996826171875,0.5108134301488707,18.0,185.0,0.0
R,U,"[5, 7]",0.0,2.0,0.202484130859375,1.5736339092254639,0.2846129450892547,18.0,186.0,0.0
R,U,"[4, 7]",0.0,2.0,0.28124499320983887,1.7463128566741943,0.3641640868869109,18.0,187.0,0.0
R,U,"[3, 7]",0.0,2.0,0.24015092849731445,1.780578851699829,0.42803570002941627,18.0,188.0,0.0
G,D,"[4, 7]",0.0,2.0,0.19864606857299805,1.591559886932373,0.3031216082863553,18.0,189.0,0.0
B,L,"[4, 6]",0.0,2.0,0.14517688751220703,1.5543110370635986,0.3074696875408108,18.0,190.0,0.0
,,"(6, 6)",,,,,,,,
R,U,"[5, 6]",1.0,1.0,0.5940070152282715,3.6195619106292725,0.34371927380477585,19.0,191.0,0.0
Y,R,"[5, 7]",1.0,2.0,0.30724501609802246,2.010701894760132,0.6042521416754998,19.0,192.0,0.0
R,U,"[4, 7]",0.0,2.0,0.5466010570526123,2.3193230628967285,0.6734787366230715,19.0,193.0,0.0
R,U,"[3, 7]",0.0,2.0,0.3270840644836426,2.0095009803771973,0.5831307445365321,19.0,194.0,0.0
Y,R,"[3, 8]",0.0,2.0,0.28659582138061523,1.966961145401001,0.5833821439423886,19.0,195.0,0.0
B,L,"[3, 7]",0.0,2.0,0.25497913360595703,1.6732141971588135,0.30691538210597963,19.0,196.0,0.0
G,D,"[4, 7]",0.0,2.0,0.24720501899719238,1.7512719631195068,0.4081159454893189,19.0,197.0,0.0
G,D,"[5, 7]",0.0,2.0,0.756505012512207,2.43174409866333,0.5730840915411861,19.0,198.0,0.0
B,L,"[5, 6]",0.0,2.0,0.29615116119384766,1.7925350666046143,0.3991726030750205,19.0,199.0,0.0
R,U,"[4, 6]",0.0,2.0,0.8410921096801758,2.4974489212036133,0.546518271108082,19.0,200.0,0.0
,,"(6, 6)",,,,,,,,
R,U,"[5, 6]",1.0,1.0,0.9461150169372559,6.122912168502808,0.4196638709108564,20.0,201.0,0.0
Y,R,"[5, 7]",1.0,2.0,0.394711971282959,2.0453290939331055,0.5481969993227813,20.0,202.0,0.0
R,U,"[4, 7]",0.0,2.0,0.3687460422515869,2.004601001739502,0.5361814032438155,20.0,203.0,0.0
G,D,"[5, 7]",0.0,2.0,0.23631000518798828,1.916025161743164,0.585519558556483,20.0,204.0,0.0
B,L,"[5, 6]",0.0,2.0,0.18483495712280273,1.7831950187683105,0.5021042384990364,20.0,205.0,0.0
Y,R,"[5, 7]",0.0,2.0,0.41123390197753906,1.82669997215271,0.31231547816031624,20.0,206.0,0.0
R,U,"[4, 7]",0.0,2.0,0.2533698081970215,1.8428499698638916,0.5049723314184105,20.0,207.0,0.0
Y,R,"[4, 8]",0.0,2.0,0.27253103256225586,1.7151238918304443,0.33693759106223276,20.0,208.0,0.0
Y,R,"[4, 9]",1.0,3.0,0.23273587226867676,1.6960391998291016,0.3663483321186933,20.0,209.0,0.0
Y,R,"[4, 10]",1.0,4.0,0.7508611679077148,2.292480945587158,0.44212711995935244,20.0,210.0,0.0
,,"(6, 6)",,,,,,,,
R,U,"[5, 6]",1.0,1.0,0.9187860488891602,4.186416864395142,0.3454463223469293,21.0,211.0,0.0
Y,R,"[5, 7]",1.0,2.0,0.3184940814971924,1.7225408554077148,0.31792617695086567,21.0,212.0,0.0
Y,R,"[5, 8]",1.0,3.0,0.3820791244506836,2.1881167888641357,0.7056796186440837,21.0,213.0,0.0
G,D,"[6, 8]",1.0,4.0,0.4072909355163574,1.7875480651855469,0.2770416931234458,21.0,214.0,0.0
B,L,"[6, 7]",0.0,4.0,0.423663854598999,2.218532085418701,0.6951181524447883,21.0,215.0,0.0
B,L,"[6, 6]",0.0,4.0,0.2952609062194824,2.124526023864746,0.7363349328447127,21.0,216.0,0.0
G,D,"[7, 6]",0.0,4.0,0.5819880962371826,2.09997296333313,0.4200362908387384,21.0,217.0,0.0
R,U,"[6, 6]",0.0,4.0,0.22274112701416016,2.0206451416015625,0.707072580046526,21.0,218.0,0.0
Y,R,"[6, 7]",0.0,4.0,0.22016215324401855,1.9976511001586914,0.6880812922981938,21.0,219.0,0.0
Y,R,"[6, 8]",0.0,4.0,0.19134998321533203,1.7151939868927002,0.4203142743920823,21.0,220.0,0.0
,,"(6, 6)",,,,,,,,
R,U,"[5, 6]",1.0,1.0,0.7069370746612549,3.4406158924102783,0.2778237616634309,22.0,221.0,0.0
Y,R,"[5, 7]",1.0,2.0,0.3073852062225342,2.069882869720459,0.6638991497095372,22.0,222.0,0.0
Y,R,"[5, 8]",1.0,3.0,0.182358980178833,1.7179169654846191,0.43216655715610913,22.0,223.0,0.0
G,D,"[6, 8]",1.0,4.0,0.23554682731628418,1.6191999912261963,0.28482115715885525,22.0,224.0,0.0
R,U,"[5, 8]",0.0,4.0,0.271942138671875,1.8178369998931885,0.4358201068421448,22.0,225.0,0.0
G,D,"[6, 8]",0.0,4.0,0.5363731384277344,2.318204164505005,0.686783892077858,22.0,226.0,0.0
G,D,"[7, 8]",0.0,4.0,0.24943995475769043,1.8807621002197266,0.5346134235100617,22.0,227.0,0.0
G,D,"[8, 8]",0.0,4.0,0.22854208946228027,1.6921579837799072,0.36051237569468886,22.0,228.0,0.0
G,D,"[9, 8]",0.0,4.0,0.2263350486755371,1.6165399551391602,0.29380602507984954,22.0,229.0,0.0
R,U,"[8, 8]",0.0,4.0,0.838629961013794,2.5685718059539795,0.6286758356453607,22.0,230.0,0.0
,,"(6, 6)",,,,,,,,
Y,R,"[6, 7]",0.0,0.0,0.5146079063415527,3.40320086479187,0.5987169961505072,23.0,231.0,0.0
R,U,"[5, 7]",1.0,1.0,0.22446298599243164,1.6621360778808594,0.32782898761126655,23.0,232.0,0.0
Y,R,"[5, 8]",1.0,2.0,0.24855613708496094,1.5909669399261475,0.2521624438072079,23.0,233.0,0.0
Y,R,"[5, 9]",0.0,2.0,0.24258899688720703,2.0198538303375244,0.6718269392204563,23.0,234.0,0.0
G,D,"[6, 9]",1.0,3.0,0.3708779811859131,2.0427401065826416,0.5810466021864671,23.0,235.0,0.0
B,L,"[6, 8]",1.0,4.0,0.26043701171875,1.9143390655517578,0.5454760651599502,23.0,236.0,0.0
R,U,"[5, 8]",0.0,4.0,0.27619194984436035,2.0422520637512207,0.6709470478225987,23.0,237.0,0.0
R,U,"[4, 8]",0.0,4.0,0.3876378536224365,1.947829008102417,0.4689597449224985,23.0,238.0,0.0
R,U,"[3, 8]",0.0,4.0,0.27126502990722656,1.7194468975067139,0.3387374046609148,23.0,239.0,0.0
R,U,"[2, 8]",0.0,4.0,0.2065880298614502,1.8524248600006104,0.5408683173584089,23.0,240.0,0.0
,,"(6, 6)",,,,,,,,
R,U,"[5, 6]",1.0,1.0,0.7242579460144043,5.383544921875,0.5743264071731946,24.0,241.0,0.0
Y,R,"[5, 7]",1.0,2.0,0.23943305015563965,1.609922170639038,0.26804061084873154,24.0,242.0,0.0
Y,R,"[5, 8]",1.0,3.0,0.2572910785675049,1.9189589023590088,0.5534939600831431,24.0,243.0,0.0
G,D,"[6, 8]",1.0,4.0,0.2524740695953369,1.612304925918579,0.26612317127976165,24.0,244.0,0.0
G,D,"[7, 8]",0.0,4.0,0.308535099029541,2.0284790992736816,0.6108327128697981,24.0,245.0,0.0
B,L,"[7, 7]",0.0,4.0,0.25601911544799805,1.924790859222412,0.5690959005409817,24.0,246.0,0.0
B,L,"[7, 6]",0.0,4.0,0.24983596801757812,1.870786190032959,0.523181229239621,24.0,247.0,0.0
G,D,"[8, 6]",0.0,4.0,0.6503570079803467,2.450805902481079,0.7072585263535249,24.0,248.0,0.0
Y,R,"[8, 7]",0.0,4.0,0.20325303077697754,1.6377520561218262,0.3453919912087237,24.0,249.0,0.0
Y,R,"[8, 8]",0.0,4.0,0.35062313079833984,2.0353119373321533,0.5971495784720249,24.0,250.0,0.0
,,"(6, 6)",,,,,,,,
R,U,"[5, 6]",1.0,1.0,0.5284790992736816,3.3979837894439697,0.6950572153563477,25.0,251.0,0.0
Y,R,"[5, 7]",1.0,2.0,0.22605204582214355,1.9100840091705322,0.5886824567165856,25.0,252.0,0.0
Y,R,"[5, 8]",1.0,3.0,0.24747204780578613,2.021996021270752,0.6771862196565402,25.0,253.0,0.0
G,D,"[6, 8]",1.0,4.0,0.24777913093566895,2.0654678344726562,0.7256331480871216,25.0,254.0,0.0
B,L,"[6, 7]",0.0,4.0,0.30919384956359863,1.872925043106079,0.4659417159922487,25.0,255.0,0.0
Y,R,"[6, 8]",0.0,4.0,0.40180420875549316,1.8868141174316406,0.3862100610011442,25.0,256.0,0.0
B,L,"[6, 7]",0.0,4.0,0.35851502418518066,1.772186040878296,0.30840404792321235,25.0,257.0,0.0
B,L,"[6, 6]",0.0,4.0,0.29792022705078125,1.6824469566345215,0.29086157973117244,25.0,258.0,0.0
G,D,"[7, 6]",0.0,4.0,0.22366809844970703,1.9899649620056152,0.6637559656338187,25.0,259.0,0.0
Y,R,"[7, 7]",0.0,4.0,0.2956540584564209,1.8936550617218018,0.49093245235530725,25.0,260.0,0.0
,,"(6, 6)",,,,,,,,
Y,R,"[6, 7]",0.0,0.0,0.43360304832458496,3.5880789756774902,0.395733630936278,26.0,261.0,0.0
R,U,"[5, 7]",1.0,1.0,0.2341909408569336,1.6158020496368408,0.29525875773014093,26.0,262.0,0.0
Y,R,"[5, 8]",1.0,2.0,0.26861000061035156,1.858368158340454,0.5033019500182783,26.0,263.0,0.0
Y,R,"[5, 9]",0.0,2.0,0.21515297889709473,1.9643840789794922,0.6509160168158414,26.0,264.0,0.0
G,D,"[6, 9]",1.0,3.0,0.24035191535949707,1.7694408893585205,0.42066211226965206,26.0,265.0,0.0
B,L,"[6, 8]",1.0,4.0,0.26860809326171875,1.8887989521026611,0.5259421790952583,26.0,266.0,0.0
R,U,"[5, 8]",0.0,4.0,0.30469298362731934,2.1096880435943604,0.6856238606707661,26.0,267.0,0.0
G,D,"[6, 8]",0.0,4.0,0.5588757991790771,2.0581958293914795,0.39385151411527436,26.0,268.0,0.0
B,L,"[6, 7]",0.0,4.0,0.4268989562988281,2.1987950801849365,0.675705498328427,26.0,269.0,0.0
Y,R,"[6, 8]",0.0,4.0,0.33489298820495605,1.8356750011444092,0.41193298491845753,26.0,270.0,0.0
,,"(6, 6)",,,,,,,,
Y,R,"[6, 7]",0.0,0.0,0.3311338424682617,4.5557920932769775,0.38457429403579974,27.0,271.0,0.0
R,U,"[5, 7]",1.0,1.0,0.2551839351654053,1.8061511516571045,0.4573056484164885,27.0,272.0,0.0
Y,R,"[5, 8]",1.0,2.0,0.31731295585632324,2.1485750675201416,0.7389679654551531,27.0,273.0,0.0
Y,R,"[5, 9]",0.0,2.0,0.24556899070739746,1.6166131496429443,0.2726564683010917,27.0,274.0,0.0
G,D,"[6, 9]",1.0,3.0,0.5669300556182861,2.302988052368164,0.6418046976918008,27.0,275.0,0.0
B,L,"[6, 8]",1.0,4.0,0.2708740234375,1.6398530006408691,0.2823055664234575,27.0,276.0,0.0
Y,R,"[6, 9]",0.0,4.0,0.2980010509490967,2.0594398975372314,0.6579651186629887,27.0,277.0,0.0
B,L,"[6, 8]",0.0,4.0,0.4879930019378662,1.8745570182800293,0.282955418521867,27.0,278.0,0.0
Y,R,"[6, 9]",0.0,4.0,0.4458439350128174,2.0421690940856934,0.49162374991366875,27.0,279.0,0.0
Y,R,"[6, 10]",1.0,5.0,0.24931883811950684,1.9961681365966797,0.654402981037452,27.0,280.0,0.0
,,"(6, 6)",,,,,,,,
R,U,"[5, 6]",1.0,1.0,0.6469359397888184,3.34950590133667,0.45405819844756784,28.0,281.0,0.0
Y,R,"[5, 7]",1.0,2.0,0.23886704444885254,1.7901458740234375,0.4441472602400978,28.0,282.0,0.0
Y,R,"[5, 8]",1.0,3.0,0.2745940685272217,1.7476818561553955,0.3753720055590989,28.0,283.0,0.0
G,D,"[6, 8]",1.0,4.0,0.26740598678588867,1.9478390216827393,0.5895349866824979,28.0,284.0,0.0
B,L,"[6, 7]",0.0,4.0,0.21358299255371094,1.7993450164794922,0.4891243205367018,28.0,285.0,0.0
G,D,"[7, 7]",0.0,4.0,0.26957011222839355,1.959827184677124,0.5988850960212717,28.0,286.0,0.0
R,U,"[6, 7]",0.0,4.0,0.6852328777313232,2.4461419582366943,0.6615442711742643,28.0,287.0,0.0
R,U,"[5, 7]",0.0,4.0,0.2637770175933838,1.8955249786376953,0.5406652262894449,28.0,288.0,0.0
Y,R,"[5, 8]",0.0,4.0,0.5416839122772217,2.3300089836120605,0.6872376085386791,28.0,289.0,0.0
Y,R,"[5, 9]",0.0,4.0,0.26142287254333496,1.7078578472137451,0.3452074611481027,28.0,290.0,0.0
,,"(6, 6)",,,,,,,,
R,U,"[5, 6]",1.0,1.0,0.5789358615875244,3.5956919193267822,0.4410605033012285,29.0,291.0,0.0
Y,R,"[5, 7]",1.0,2.0,0.32775211334228516,2.0936062335968018,0.6678645478071514,29.0,292.0,0.0
Y,R,"[5, 8]",1.0,3.0,0.22591805458068848,1.7291200160980225,0.3972251800312289,29.0,293.0,0.0
G,D,"[6, 8]",1.0,4.0,0.239548921585083,1.6510460376739502,0.2984880956605741,29.0,294.0,0.0
B,L,"[6, 7]",0.0,4.0,0.2895050048828125,1.73602294921875,0.33437578037236726,29.0,295.0,0.0
G,D,"[7, 7]",0.0,4.0,0.34749293327331543,2.066077947616577,0.6169587070016394,29.0,296.0,0.0
G,D,"[8, 7]",0.0,4.0,0.33192896842956543,2.1423449516296387,0.7092690050775792,29.0,297.0,0.0
G,D,"[9, 7]",0.0,4.0,0.2735300064086914,1.6360201835632324,0.2623349461265219,29.0,298.0,0.0
G,D,"[10, 7]",0.0,4.0,0.31220483779907227,2.015017032623291,0.6103443890824605,29.0,299.0,0.0
G,D,"[11, 7]",0.0,4.0,0.4017629623413086,1.944277048110962,0.45471702560013016,29.0,300.0,0.0
,,"(6, 6)",,,,,,,,
R,U,"[5, 6]",1.0,1.0,0.6685810089111328,3.303571939468384,0.45874867325697116,30.0,301.0,0.0
Y,R,"[5, 7]",1.0,2.0,0.25577712059020996,2.0234251022338867,0.6817523363078712,30.0,302.0,0.0
R,U,"[4, 7]",0.0,2.0,0.2005469799041748,1.6879870891571045,0.3867293111410522,30.0,303.0,0.0
G,D,"[5, 7]",-2.0,2.0,1.3411619663238525,3.05191707611084,0.6717171594448126,30.0,304.0,0.0
G,D,"[6, 7]",0.0,2.0,0.24423599243164062,1.9593849182128906,0.6145859011873572,30.0,305.0,0.0
B,L,"[6, 6]",0.0,2.0,0.22954511642456055,2.061659097671509,0.7264496091914989,30.0,306.0,0.0
G,D,"[7, 6]",0.0,2.0,0.24897098541259766,1.673375129699707,0.3331664653183181,30.0,307.0,0.0
R,U,"[6, 6]",0.0,2.0,0.31135106086730957,2.133913040161133,0.7168066130282897,30.0,308.0,0.0
R,U,"[5, 6]",0.0,2.0,0.22930002212524414,1.6119630336761475,0.2791455413974913,30.0,309.0,0.0
R,U,"[4, 6]",0.0,2.0,0.2906169891357422,1.698868989944458,0.3113706614109408,30.0,310.0,0.0
,,"(6, 6)",,,,,,,,
R,U,"[5, 6]",1.0,1.0,0.5815739631652832,3.70381498336792,0.4651962769539483,31.0,311.0,0.0
Y,R,"[5, 7]",1.0,2.0,0.21975398063659668,1.9786548614501953,0.6602464243151973,31.0,312.0,0.0
Y,R,"[5, 8]",1.0,3.0,0.46131205558776855,2.2815279960632324,0.7250657170870256,31.0,313.0,0.0
G,D,"[6, 8]",1.0,4.0,0.29785895347595215,2.078705072402954,0.6871918352240631,31.0,314.0,0.0
B,L,"[6, 7]",0.0,4.0,0.30712389945983887,1.984917163848877,0.5721906933778969,31.0,315.0,0.0
G,D,"[7, 7]",0.0,4.0,0.3446080684661865,2.1662940979003906,0.7216489529106802,31.0,316.0,0.0
G,D,"[8, 7]",0.0,4.0,0.7409391403198242,2.5169079303741455,0.6720389549750088,31.0,317.0,0.0
B,L,"[8, 6]",0.0,4.0,0.21413207054138184,1.6030759811401367,0.292149252119983,31.0,318.0,0.0
B,L,"[8, 5]",0.0,4.0,0.26914310455322266,1.913438081741333,0.5553174550242499,31.0,319.0,0.0
Y,R,"[8, 6]",0.0,4.0,0.26677608489990234,2.045961856842041,0.6845534817866226,31.0,320.0,0.0
,,"(6, 6)",,,,,,,,
R,U,"[5, 6]",1.0,1.0,0.5993502140045166,3.1453068256378174,0.38030627592271943,32.0,321.0,0.0
Y,R,"[5, 7]",1.0,2.0,0.3440091609954834,1.87652587890625,0.4233763958518161,32.0,322.0,0.0
Y,R,"[5, 8]",1.0,3.0,0.30315494537353516,2.0770089626312256,0.6834869487392526,32.0,323.0,0.0
G,D,"[6, 8]",1.0,4.0,0.27085208892822266,1.951612949371338,0.5851839992871389,32.0,324.0,0.0
Y,R,"[6, 9]",1.0,5.0,0.8879289627075195,2.4214301109313965,0.4401827196937707,32.0,325.0,0.0
B,L,"[6, 8]",0.0,5.0,0.5623190402984619,2.40444016456604,0.7444321051338263,32.0,326.0,0.0
G,D,"[7, 8]",0.0,5.0,0.5166599750518799,2.1499428749084473,0.5444565443388462,32.0,327.0,0.0
R,U,"[6, 8]",0.0,5.0,0.24344897270202637,1.7980520725250244,0.4592646746918712,32.0,328.0,0.0
R,U,"[5, 8]",0.0,5.0,0.2738509178161621,1.9902360439300537,0.6328117120738082,32.0,329.0,0.0
Y,R,"[5, 9]",0.0,5.0,0.23462891578674316,2.0711519718170166,0.7373100434445288,32.0,330.0,0.0
,,"(6, 6)",,,,,,,,
R,U,"[5, 6]",1.0,1.0,0.5675411224365234,3.424251079559326,0.44507380302912614,33.0,331.0,0.0
Y,R,"[5, 7]",1.0,2.0,0.25458717346191406,1.8806381225585938,0.525729505281155,33.0,332.0,0.0
Y,R,"[5, 8]",1.0,3.0,0.25063085556030273,1.8087730407714844,0.46781466686235595,33.0,333.0,0.0
G,D,"[6, 8]",1.0,4.0,0.2563169002532959,2.1005101203918457,0.7347226531527038,33.0,334.0,0.0
Y,R,"[6, 9]",1.0,5.0,0.24871087074279785,1.639617919921875,0.29152775827214156,33.0,335.0,0.0
Y,R,"[6, 10]",-2.0,5.0,1.0954241752624512,2.678679943084717,0.5533166785582433,33.0,336.0,0.0
Y,R,"[6, 11]",0.0,5.0,0.27483582496643066,1.8583600521087646,0.4784444887746581,33.0,337.0,0.0
Y,R,"[6, 10]",-3.0,5.0,0.33522701263427734,1.9927079677581787,0.5711676703559878,33.0,338.0,0.0
R,U,"[5, 10]",1.0,6.0,0.3258810043334961,2.174488067626953,0.745401928364705,33.0,339.0,0.0
Y,R,"[5, 11]",0.0,6.0,0.24073314666748047,1.8767571449279785,0.5390728541629166,33.0,340.0,0.0
,,"(6, 6)",,,,,,,,
R,U,"[5, 6]",1.0,1.0,0.7841870784759521,4.798940896987915,0.3216140718323877,34.0,341.0,0.0
Y,R,"[5, 7]",1.0,2.0,0.21381497383117676,1.6227340698242188,0.31100930000573807,34.0,342.0,0.0
Y,R,"[5, 8]",1.0,3.0,0.23996710777282715,1.9979839324951172,0.6586808061439555,34.0,343.0,0.0
G,D,"[6, 8]",1.0,4.0,0.2623460292816162,1.8073320388793945,0.44953650830563824,34.0,344.0,0.0
Y,R,"[6, 9]",1.0,5.0,0.23061299324035645,1.8333439826965332,0.49946390071955216,34.0,345.0,0.0
B,L,"[6, 8]",0.0,5.0,0.23064398765563965,1.8700921535491943,0.5363478500409947,34.0,346.0,0.0
G,D,"[7, 8]",0.0,5.0,0.49359583854675293,1.9498372077941895,0.3531625608932692,34.0,347.0,0.0
R,U,"[6, 8]",0.0,5.0,0.20878314971923828,1.9940390586853027,0.6802333601612984,34.0,348.0,0.0
Y,R,"[6, 9]",0.0,5.0,0.2258310317993164,1.9387140274047852,0.6022977083446813,34.0,349.0,0.0
Y,R,"[6, 10]",1.0,6.0,0.19859695434570312,1.8702139854431152,0.5723020916305606,34.0,350.0,0.0
,,"(6, 6)",,,,,,,,
R,U,"[5, 6]",1.0,1.0,0.7680420875549316,3.483966827392578,0.40664676158462015,35.0,351.0,0.0
Y,R,"[5, 7]",1.0,2.0,0.2485828399658203,2.049391031265259,0.7059924604057182,35.0,352.0,0.0
Y,R,"[5, 8]",1.0,3.0,0.1946268081665039,1.6964399814605713,0.402690893696494,35.0,353.0,0.0
G,D,"[6, 8]",1.0,4.0,0.2597191333770752,1.848505973815918,0.4842661409309463,35.0,354.0,0.0
Y,R,"[6, 9]",1.0,5.0,0.27373290061950684,2.048895835876465,0.6664838714922524,35.0,355.0,0.0
R,U,"[5, 9]",0.0,5.0,0.25611186027526855,2.0362508296966553,0.6694341440287367,35.0,356.0,0.0
R,U,"[4, 9]",1.0,6.0,0.29660606384277344,1.8744938373565674,0.47739028292944896,35.0,357.0,0.0
Y,R,"[4, 10]",1.0,7.0,0.3809640407562256,2.2136659622192383,0.7410740933471147,35.0,358.0,0.0
Y,R,"[4, 11]",0.0,7.0,0.848459005355835,2.5124588012695312,0.5703292444938977,35.0,359.0,0.0
Y,R,"[4, 10]",-3.0,7.0,0.37176990509033203,2.09210205078125,0.6124117172615666,35.0,360.0,0.0
,,"(6, 6)",,,,,,,,
R,U,"[5, 6]",1.0,1.0,0.6568899154663086,3.88816499710083,0.3008536462852711,36.0,361.0,0.0
Y,R,"[5, 7]",1.0,2.0,0.2779109477996826,1.949558973312378,0.5667501521155829,36.0,362.0,0.0
Y,R,"[5, 8]",1.0,3.0,0.20987796783447266,1.7341670989990234,0.417812819642826,36.0,363.0,0.0
G,D,"[6, 8]",1.0,4.0,0.3702881336212158,1.8502140045166016,0.3848703539348129,36.0,364.0,0.0
Y,R,"[6, 9]",1.0,5.0,0.269542932510376,1.7872891426086426,0.42202199861360656,36.0,365.0,0.0
B,L,"[6, 8]",0.0,5.0,0.260174036026001,1.7923619747161865,0.4310820377283787,36.0,366.0,0.0
R,U,"[5, 8]",0.0,5.0,0.25246095657348633,2.0198450088500977,0.667378596878867,36.0,367.0,0.0
R,U,"[4, 8]",0.0,5.0,0.24578309059143066,1.8868770599365234,0.5377099716619957,36.0,368.0,0.0
Y,R,"[4, 9]",1.0,6.0,0.2849559783935547,1.6967339515686035,0.3181053489805161,36.0,369.0,0.0
Y,R,"[4, 10]",1.0,7.0,0.23952317237854004,1.8452270030975342,0.4965653271003309,36.0,370.0,0.0
,,"(6, 6)",,,,,,,,
R,U,"[5, 6]",1.0,1.0,0.4670391082763672,3.2691879272460938,0.3658187902763135,37.0,371.0,0.0
Y,R,"[5, 7]",1.0,2.0,0.263016939163208,1.9267308712005615,0.5590842298608824,37.0,372.0,0.0
Y,R,"[5, 8]",1.0,3.0,0.2635190486907959,1.8268189430236816,0.46934010297756695,37.0,373.0,0.0
G,D,"[6, 8]",1.0,4.0,0.4011390209197998,2.213243007659912,0.7155928908660234,37.0,374.0,0.0
Y,R,"[6, 9]",1.0,5.0,0.24647903442382812,2.076814889907837,0.7259354594340721,37.0,375.0,0.0
R,U,"[5, 9]",-2.0,5.0,1.0877888202667236,2.702913999557495,0.5955690974038699,37.0,376.0,0.0
R,U,"[4, 9]",1.0,6.0,0.27715492248535156,1.6644721031188965,0.29370357496968724,37.0,377.0,0.0
Y,R,"[4, 10]",1.0,7.0,0.36135387420654297,1.9928359985351562,0.536328602790243,37.0,378.0,0.0
Y,R,"[4, 11]",0.0,7.0,0.2915480136871338,1.8637399673461914,0.4669177342760957,37.0,379.0,0.0
R,U,"[3, 11]",0.0,7.0,0.699901819229126,2.1670711040496826,0.36730970440135285,37.0,380.0,0.0
,,"(6, 6)",,,,,,,,
R,U,"[5, 6]",1.0,1.0,0.9776649475097656,5.203082084655762,0.7368346223138642,38.0,381.0,0.0
Y,R,"[5, 7]",1.0,2.0,0.24220991134643555,1.6804490089416504,0.33450010757915005,38.0,382.0,0.0
Y,R,"[5, 8]",1.0,3.0,0.347059965133667,1.7640080451965332,0.3150710573968153,38.0,383.0,0.0
G,D,"[6, 8]",1.0,4.0,0.358508825302124,1.8904120922088623,0.4220188745001855,38.0,384.0,0.0
Y,R,"[6, 9]",1.0,5.0,0.27432990074157715,2.0140819549560547,0.63590186676278,38.0,385.0,0.0
G,D,"[7, 9]",0.0,5.0,0.2332310676574707,1.907325029373169,0.576754192436579,38.0,386.0,0.0
R,U,"[6, 9]",0.0,5.0,0.22864389419555664,2.0434629917144775,0.7203205361955898,38.0,387.0,0.0
R,U,"[5, 9]",0.0,5.0,0.22037100791931152,1.6122138500213623,0.29953460280193994,38.0,388.0,0.0
Y,R,"[5, 10]",1.0,6.0,0.22136688232421875,1.7928879261016846,0.47542056119993387,38.0,389.0,0.0
Y,R,"[5, 11]",0.0,6.0,0.2260298728942871,1.673698902130127,0.34925383976221236,38.0,390.0,0.0
,,"(6, 6)",,,,,,,,
R,U,"[5, 6]",1.0,1.0,0.563730001449585,5.399573802947998,0.5820840992383334,39.0,391.0,0.0
Y,R,"[5, 7]",1.0,2.0,0.23689699172973633,2.0740790367126465,0.7393187517126696,39.0,392.0,0.0
Y,R,"[5, 8]",1.0,3.0,0.21536588668823242,2.0589451789855957,0.7482738386185722,39.0,393.0,0.0
G,D,"[6, 8]",1.0,4.0,0.2296290397644043,1.8537180423736572,0.5189115121027643,39.0,394.0,0.0
Y,R,"[6, 9]",1.0,5.0,0.3016688823699951,1.8562309741973877,0.4587115461257363,39.0,395.0,0.0
R,U,"[5, 9]",0.0,5.0,0.2869560718536377,1.7973101139068604,0.42264456426306724,39.0,396.0,0.0
Y,R,"[5, 10]",1.0,6.0,0.27486300468444824,1.8452420234680176,0.46782471524327196,39.0,397.0,0.0
R,U,"[4, 10]",1.0,7.0,0.26059603691101074,2.003549098968506,0.6380347159576579,39.0,398.0,0.0
Y,R,"[4, 11]",0.0,7.0,0.2452540397644043,1.6376781463623047,0.29265665704013016,39.0,399.0,0.0
Y,R,"[4, 10]",-3.0,7.0,0.2777409553527832,1.7616961002349854,0.3875331722274816,39.0,400.0,0.0
,,"(6, 6)",,,,,,,,
R,U,"[5, 6]",1.0,1.0,0.585669994354248,3.404421091079712,0.7084297409747442,40.0,401.0,0.0
Y,R,"[5, 7]",1.0,2.0,0.22208118438720703,1.7836589813232422,0.4422453563547469,40.0,402.0,0.0
Y,R,"[5, 8]",1.0,3.0,0.2458481788635254,1.6472091674804688,0.30640967081895726,40.0,403.0,0.0
G,D,"[6, 8]",1.0,4.0,0.32389307022094727,1.7264459133148193,0.29983845077040666,40.0,404.0,0.0
Y,R,"[6, 9]",1.0,5.0,0.2976410388946533,1.6730289459228516,0.2726329421214115,40.0,405.0,0.0
B,L,"[6, 8]",0.0,5.0,0.29202699661254883,1.8668019771575928,0.47257740567328194,40.0,406.0,0.0
R,U,"[5, 8]",0.0,5.0,0.25861692428588867,1.9943311214447021,0.6334071324861361,40.0,407.0,0.0
Y,R,"[5, 9]",0.0,5.0,0.23062396049499512,1.7322139739990234,0.3993324229350079,40.0,408.0,0.0
Y,R,"[5, 10]",1.0,6.0,0.22917485237121582,2.0739779472351074,0.7394935755463357,40.0,409.0,0.0
Y,R,"[5, 11]",0.0,6.0,0.30473995208740234,1.9843010902404785,0.5907165311434674,40.0,410.0,0.0
,,"(6, 6)",,,,,,,,
R,U,"[5, 6]",1.0,1.0,0.47855305671691895,3.4636740684509277,0.27154458746406607,41.0,411.0,0.0
Y,R,"[5, 7]",1.0,2.0,0.2634749412536621,1.950024127960205,0.5878925868873868,41.0,412.0,0.0
Y,R,"[5, 8]",1.0,3.0,0.2271108627319336,1.833510160446167,0.5047438576702811,41.0,413.0,0.0
G,D,"[6, 8]",1.0,4.0,0.29355287551879883,1.703510046005249,0.30841441662264224,41.0,414.0,0.0
Y,R,"[6, 9]",1.0,5.0,0.40362000465393066,1.838780164718628,0.34727221574394096,41.0,415.0,0.0
Y,R,"[6, 10]",1.0,6.0,0.5217370986938477,2.256260871887207,0.6365907862627922,41.0,416.0,0.0
R,U,"[5, 10]",1.0,7.0,0.27048492431640625,1.7247560024261475,0.3617052370412963,41.0,417.0,0.0
Y,R,"[5, 11]",0.0,7.0,0.28639698028564453,1.8885011672973633,0.5167116172996625,41.0,418.0,0.0
R,U,"[4, 11]",0.0,7.0,0.26456212997436523,1.8369040489196777,0.47031687619867796,41.0,419.0,0.0
Y,R,"[5, 11]",-3.0,7.0,0.42591285705566406,2.208092212677002,0.678229441537939,41.0,420.0,0.0
,,"(6, 6)",,,,,,,,
R,U,"[5, 6]",1.0,1.0,0.6802690029144287,2.90236496925354,0.5308011242245113,42.0,421.0,0.0
Y,R,"[5, 7]",1.0,2.0,0.21149206161499023,1.8875808715820312,0.5682921172671642,42.0,422.0,0.0
Y,R,"[5, 8]",1.0,3.0,0.25937795639038086,1.6655659675598145,0.30090597337967845,42.0,423.0,0.0
G,D,"[6, 8]",1.0,4.0,0.39757299423217773,2.0909860134124756,0.5916118052379962,42.0,424.0,0.0
Y,R,"[6, 9]",1.0,5.0,0.23731613159179688,2.0691158771514893,0.7105514949856655,42.0,425.0,0.0
B,L,"[6, 8]",0.0,5.0,0.3347320556640625,2.097486972808838,0.6749111156731817,42.0,426.0,0.0
Y,R,"[6, 9]",0.0,5.0,0.27974510192871094,1.921889066696167,0.5470545239027708,42.0,427.0,0.0
Y,R,"[6, 10]",1.0,6.0,0.37659597396850586,1.8775269985198975,0.39122960272954144,42.0,428.0,0.0
R,U,"[5, 10]",1.0,7.0,0.2588999271392822,2.097568988800049,0.7385944214086746,42.0,429.0,0.0
Y,R,"[5, 11]",0.0,7.0,0.3749680519104004,2.223388195037842,0.7452352839533507,42.0,430.0,0.0
,,"(6, 6)",,,,,,,,
R,U,"[5, 6]",1.0,1.0,0.778892993927002,3.4207329750061035,0.5495602202666865,43.0,431.0,0.0
Y,R,"[5, 7]",1.0,2.0,0.25815391540527344,2.1143198013305664,0.7471332015622992,43.0,432.0,0.0
Y,R,"[5, 8]",1.0,3.0,0.25771594047546387,1.7832210063934326,0.41402883474574365,43.0,433.0,0.0
G,D,"[6, 8]",1.0,4.0,0.28928613662719727,2.031201124191284,0.6282525002852022,43.0,434.0,0.0
Y,R,"[6, 9]",1.0,5.0,0.2706010341644287,1.6386730670928955,0.28395761166203753,43.0,435.0,0.0
G,D,"[7, 9]",0.0,5.0,0.29362010955810547,2.0103161334991455,0.610758690303916,43.0,436.0,0.0
R,U,"[6, 9]",0.0,5.0,0.29103803634643555,2.053272008895874,0.6643594848133088,43.0,437.0,0.0
Y,R,"[6, 10]",1.0,6.0,0.24440598487854004,1.8436541557312012,0.49113123052966046,43.0,438.0,0.0
R,U,"[5, 10]",1.0,7.0,0.2741129398345947,1.721487045288086,0.36276625011454067,43.0,439.0,0.0
Y,R,"[5, 11]",0.0,7.0,0.5105619430541992,2.0158920288085938,0.3952948285048996,43.0,440.0,0.0
,,"(6, 6)",,,,,,,,
R,U,"[5, 6]",1.0,1.0,0.4599120616912842,3.231275796890259,0.7262900463918266,44.0,441.0,0.0
Y,R,"[5, 7]",1.0,2.0,0.25873398780822754,1.903437852859497,0.5465982359149444,44.0,442.0,0.0
Y,R,"[5, 8]",1.0,3.0,0.20507311820983887,1.9815809726715088,0.6614574914585631,44.0,443.0,0.0
G,D,"[6, 8]",1.0,4.0,0.2122809886932373,1.807220220565796,0.502243448039932,44.0,444.0,0.0
Y,R,"[6, 9]",1.0,5.0,0.2549009323120117,1.9280169010162354,0.563537321383494,44.0,445.0,0.0
Y,R,"[6, 10]",1.0,6.0,0.22758221626281738,2.0119569301605225,0.6754233758758789,44.0,446.0,0.0
R,U,"[5, 10]",1.0,7.0,0.3716118335723877,1.9991199970245361,0.5247874790228881,44.0,447.0,0.0
Y,R,"[5, 11]",0.0,7.0,0.2986018657684326,1.6954100131988525,0.30364335890028993,44.0,448.0,0.0
Y,R,"[5, 10]",-3.0,7.0,0.4863309860229492,2.2148690223693848,0.6348803947785879,44.0,449.0,0.0
Y,R,"[5, 11]",0.0,7.0,0.8641190528869629,2.5266079902648926,0.5615876711154197,44.0,450.0,0.0
,,"(6, 6)",,,,,,,,
R,U,"[5, 6]",1.0,1.0,0.5260770320892334,3.2796010971069336,0.4580364364267712,45.0,451.0,0.0
Y,R,"[5, 7]",1.0,2.0,0.2723240852355957,1.9052770137786865,0.5299936864345511,45.0,452.0,0.0
Y,R,"[5, 8]",1.0,3.0,0.22787714004516602,1.8924639225006104,0.5557530214980237,45.0,453.0,0.0
G,D,"[6, 8]",1.0,4.0,0.21667098999023438,1.8312649726867676,0.5202427980383779,45.0,454.0,0.0
Y,R,"[6, 9]",1.0,5.0,0.31224513053894043,1.8143510818481445,0.40159585498858774,45.0,455.0,0.0
Y,R,"[6, 10]",1.0,6.0,0.282501220703125,1.7391910552978516,0.35744633307273427,45.0,456.0,0.0
R,U,"[5, 10]",1.0,7.0,0.39324092864990234,1.876047134399414,0.383488040249153,45.0,457.0,0.0
G,D,"[6, 10]",0.0,7.0,0.42287492752075195,1.8677890300750732,0.3345286451148711,45.0,458.0,0.0
R,U,"[5, 10]",0.0,7.0,0.8203480243682861,2.3604371547698975,0.41176951622350094,45.0,459.0,0.0
Y,R,"[5, 11]",0.0,7.0,0.5904028415679932,2.2282400131225586,0.5398694561441744,45.0,460.0,0.0
,,"(6, 6)",,,,,,,,
R,U,"[5, 6]",1.0,1.0,0.7207529544830322,3.187138795852661,0.2940126087452152,46.0,461.0,0.0
Y,R,"[5, 7]",1.0,2.0,0.25987696647644043,1.6723949909210205,0.31636675538352205,46.0,462.0,0.0
Y,R,"[5, 8]",1.0,3.0,0.26578211784362793,2.046337127685547,0.6791258949053749,46.0,463.0,0.0
G,D,"[6, 8]",1.0,4.0,0.28113293647766113,1.9313819408416748,0.5440247616032987,46.0,464.0,0.0
Y,R,"[6, 9]",1.0,5.0,0.19897699356079102,1.6584930419921875,0.36927623404770304,46.0,465.0,0.0
Y,R,"[6, 10]",1.0,6.0,0.24532008171081543,1.7189719676971436,0.3715920435337806,46.0,466.0,0.0
B,L,"[6, 9]",0.0,6.0,0.31206512451171875,2.141464948654175,0.7294724457823808,46.0,467.0,0.0
R,U,"[5, 9]",0.0,6.0,0.2859151363372803,2.103621006011963,0.7164559471458898,46.0,468.0,0.0
R,U,"[4, 9]",1.0,7.0,0.2509500980377197,1.8581788539886475,0.5083168156618914,46.0,469.0,0.0
Y,R,"[4, 10]",1.0,8.0,0.24504399299621582,1.8407659530639648,0.4987848033291183,46.0,470.0,0.0
,,"(6, 6)",,,,,,,,
R,U,"[5, 6]",1.0,1.0,0.5212788581848145,5.727323055267334,0.576590356938772,47.0,471.0,0.0
Y,R,"[5, 7]",1.0,2.0,0.19963502883911133,1.8826711177825928,0.5927382296308132,47.0,472.0,0.0
Y,R,"[5, 8]",1.0,3.0,0.26035213470458984,2.071475028991699,0.7137572153083837,47.0,473.0,0.0
G,D,"[6, 8]",1.0,4.0,0.3312678337097168,1.9653258323669434,0.5291915359247272,47.0,474.0,0.0
Y,R,"[6, 9]",1.0,5.0,0.28346896171569824,1.7039690017700195,0.3167174884332763,47.0,475.0,0.0
Y,R,"[6, 10]",1.0,6.0,0.4356119632720947,2.2046380043029785,0.6709818234227314,47.0,476.0,0.0
G,D,"[7, 10]",0.0,6.0,0.3250448703765869,1.9140338897705078,0.4853133619013708,47.0,477.0,0.0
R,U,"[6, 10]",0.0,6.0,0.5470449924468994,1.9664368629455566,0.3185511423447905,47.0,478.0,0.0
Y,R,"[6, 11]",0.0,6.0,0.4626288414001465,2.2771308422088623,0.7120977257189485,47.0,479.0,0.0
R,U,"[5, 11]",0.0,6.0,0.23178911209106445,1.8013598918914795,0.4802289022548324,47.0,480.0,0.0
,,"(6, 6)",,,,,,,,
R,U,"[5, 6]",1.0,1.0,0.5652580261230469,5.167127847671509,0.680720407790576,48.0,481.0,0.0
Y,R,"[5, 7]",1.0,2.0,0.26868414878845215,2.0523788928985596,0.6830214798490929,48.0,482.0,0.0
Y,R,"[5, 8]",1.0,3.0,0.2757880687713623,1.942965030670166,0.5594497305428828,48.0,483.0,0.0
G,D,"[6, 8]",1.0,4.0,0.3366429805755615,2.0618231296539307,0.6379453944426444,48.0,484.0,0.0
Y,R,"[6, 9]",1.0,5.0,0.24095702171325684,1.782336950302124,0.43712802916443966,48.0,485.0,0.0
Y,R,"[6, 10]",1.0,6.0,0.2905769348144531,1.832854986190796,0.4367288000950256,48.0,486.0,0.0
R,U,"[5, 10]",1.0,7.0,0.3314039707183838,1.9117581844329834,0.4818724027682036,48.0,487.0,0.0
B,L,"[5, 9]",0.0,7.0,0.3271770477294922,1.7417371273040771,0.3071609702317672,48.0,488.0,0.0
R,U,"[4, 9]",1.0,8.0,0.5655231475830078,2.190418004989624,0.5306126283176502,48.0,489.0,0.0
Y,R,"[4, 10]",1.0,9.0,0.23249006271362305,1.9095420837402344,0.5735104994520037,48.0,490.0,0.0
,,"(6, 6)",,,,,,,,
R,U,"[5, 6]",1.0,1.0,0.5339281558990479,5.672829866409302,0.3631869614526505,49.0,491.0,0.0
Y,R,"[5, 7]",1.0,2.0,0.2357640266418457,1.96694016456604,0.6299420934065538,49.0,492.0,0.0
Y,R,"[5, 8]",1.0,3.0,0.21105504035949707,1.6720101833343506,0.35224401322011567,49.0,493.0,0.0
G,D,"[6, 8]",1.0,4.0,0.254472017288208,1.691420078277588,0.3436196073208092,49.0,494.0,0.0
Y,R,"[6, 9]",1.0,5.0,0.3511819839477539,1.9984369277954102,0.5586892579886914,49.0,495.0,0.0
Y,R,"[6, 10]",1.0,6.0,0.18718814849853516,1.5965819358825684,0.3220318666923773,49.0,496.0,0.0
G,D,"[7, 10]",0.0,6.0,0.22540497779846191,1.587378978729248,0.25955846356089535,49.0,497.0,0.0
Y,R,"[7, 11]",0.0,6.0,0.4518461227416992,2.2353570461273193,0.6944085888741417,49.0,498.0,0.0
R,U,"[6, 11]",0.0,6.0,0.3735930919647217,2.009406089782715,0.5375658714525499,49.0,499.0,0.0
Y,R,"[7, 11]",-3.0,6.0,0.20062494277954102,2.0233941078186035,0.7273433529561499,49.0,500.0,0.0
,,"(6, 6)",,,,,,,,
R,U,"[5, 6]",1.0,1.0,0.5451550483703613,3.9274051189422607,0.6882601494164299,50.0,501.0,0.0
Y,R,"[5, 7]",1.0,2.0,0.20321083068847656,1.9886510372161865,0.6933719340370179,50.0,502.0,0.0
Y,R,"[5, 8]",1.0,3.0,0.1930689811706543,2.0236239433288574,0.7338039649485595,50.0,503.0,0.0
G,D,"[6, 8]",1.0,4.0,0.2506570816040039,1.8432869911193848,0.4939336753664693,50.0,504.0,0.0
Y,R,"[6, 9]",1.0,5.0,0.2475109100341797,2.0349621772766113,0.6954627868842738,50.0,505.0,0.0
Y,R,"[6, 10]",-1.0,5.0,0.004230976104736328,5.485852003097534,0.3649816280333723,50.0,506.0,0.0
Y,R,"[6, 11]",0.0,5.0,0.30144309997558594,2.0129921436309814,0.6112439352290291,50.0,507.0,0.0
R,U,"[5, 11]",-2.0,5.0,1.0543568134307861,2.5646541118621826,0.4925797861352735,50.0,508.0,0.0
Y,R,"[6, 11]",-3.0,5.0,0.7807769775390625,2.5117950439453125,0.6375850105289032,50.0,509.0,0.0
R,U,"[5, 11]",0.0,5.0,0.6536400318145752,2.0832929611206055,0.321268285956061,50.0,510.0,0.0
,,"(6, 6)",,,,,,,,
R,U,"[5, 6]",1.0,1.0,0.457042932510376,4.214801073074341,0.5857252744810133,51.0,511.0,0.0
Y,R,"[5, 7]",1.0,2.0,0.39935803413391113,2.189237117767334,0.6917055269950334,51.0,512.0,0.0
Y,R,"[5, 8]",1.0,3.0,0.36809802055358887,1.9727768898010254,0.5146277721623747,51.0,513.0,0.0
G,D,"[6, 8]",1.0,4.0,0.41681909561157227,2.126991033554077,0.6081727225656287,51.0,514.0,0.0
Y,R,"[6, 9]",1.0,5.0,0.31523799896240234,2.046889066696167,0.6385223724894511,51.0,515.0,0.0
Y,R,"[6, 10]",1.0,6.0,0.388836145401001,2.219231128692627,0.7242675028415179,51.0,516.0,0.0
G,D,"[7, 10]",0.0,6.0,0.24672484397888184,1.7678699493408203,0.42598635291459713,51.0,517.0,0.0
G,D,"[8, 10]",0.0,6.0,0.41643500328063965,2.0844950675964355,0.5768110077394797,51.0,518.0,0.0
R,U,"[7, 10]",0.0,6.0,0.2409369945526123,1.975430965423584,0.6357204814394726,51.0,519.0,0.0
Y,R,"[7, 11]",0.0,6.0,0.21685004234313965,1.7870378494262695,0.47281449948057896,51.0,520.0,0.0
,,"(6, 6)",,,,,,,,
R,U,"[5, 6]",1.0,1.0,0.6323580741882324,12.304853916168213,0.7110045922123862,52.0,521.0,0.0
Y,R,"[5, 7]",1.0,2.0,0.23876214027404785,1.8634679317474365,0.5246953851554106,52.0,522.0,0.0
Y,R,"[5, 8]",1.0,3.0,0.2522568702697754,2.0324339866638184,0.690239688379787,52.0,523.0,0.0
G,D,"[6, 8]",1.0,4.0,0.2378699779510498,1.897294044494629,0.5543335746217317,52.0,524.0,0.0
Y,R,"[6, 9]",1.0,5.0,0.24544692039489746,1.9377219676971436,0.592058068709822,52.0,525.0,0.0
Y,R,"[6, 10]",1.0,6.0,0.23065185546875,1.8634960651397705,0.5389736915272789,52.0,526.0,0.0
B,L,"[6, 9]",0.0,6.0,0.24101591110229492,1.8091650009155273,0.46502361555467653,52.0,527.0,0.0
Y,R,"[6, 10]",0.0,6.0,0.25542402267456055,1.696364164352417,0.32821578018057423,52.0,528.0,0.0
R,U,"[5, 10]",1.0,7.0,0.46531200408935547,1.8619771003723145,0.30680018171464174,52.0,529.0,0.0
Y,R,"[5, 11]",0.0,7.0,0.2325000762939453,2.0175821781158447,0.6906411153460478,52.0,530.0,0.0
,,"(6, 6)",,,,,,,,
R,U,"[5, 6]",1.0,1.0,0.622406005859375,4.287055015563965,0.46136846553545074,53.0,531.0,0.0
Y,R,"[5, 7]",1.0,2.0,0.23691797256469727,1.6022541522979736,0.28048609498713284,53.0,532.0,0.0
Y,R,"[5, 8]",1.0,3.0,0.21930885314941406,1.9186689853668213,0.5988147522081342,53.0,533.0,0.0
G,D,"[6, 8]",1.0,4.0,0.31873512268066406,1.903130054473877,0.48544304480120126,53.0,534.0,0.0
Y,R,"[6, 9]",1.0,5.0,0.18662810325622559,1.816756010055542,0.5356192074257364,53.0,535.0,0.0
Y,R,"[6, 10]",1.0,6.0,0.22814297676086426,1.9139819145202637,0.5826114774261997,53.0,536.0,0.0
B,L,"[6, 9]",0.0,6.0,0.23879003524780273,1.725212812423706,0.37487298036378663,53.0,537.0,0.0
B,L,"[6, 8]",0.0,6.0,0.868048906326294,2.291145086288452,0.33282390071499485,53.0,538.0,0.0
R,U,"[5, 8]",0.0,6.0,0.2608938217163086,2.013338088989258,0.64587262635132,53.0,539.0,0.0
Y,R,"[5, 9]",0.0,6.0,0.20848488807678223,1.7768900394439697,0.4563398108459257,53.0,540.0,0.0
,,"(6, 6)",,,,,,,,
R,U,"[5, 6]",1.0,1.0,0.7438859939575195,4.015561103820801,0.6383904349956492,54.0,541.0,0.0
Y,R,"[5, 7]",1.0,2.0,0.21024203300476074,1.6047630310058594,0.29357024529085396,54.0,542.0,0.0
Y,R,"[5, 8]",1.0,3.0,0.3121650218963623,1.905984878540039,0.4991949699911945,54.0,543.0,0.0
G,D,"[6, 8]",1.0,4.0,0.27860403060913086,1.6698269844055176,0.2859006430547342,54.0,544.0,0.0
Y,R,"[6, 9]",1.0,5.0,0.31404805183410645,2.159909963607788,0.7456315432556255,54.0,545.0,0.0
Y,R,"[6, 10]",1.0,6.0,0.469127893447876,2.2236580848693848,0.6526595405319493,54.0,546.0,0.0
R,U,"[5, 10]",1.0,7.0,0.43678903579711914,1.9060120582580566,0.3757350152731059,54.0,547.0,0.0
B,L,"[5, 9]",0.0,7.0,0.8108401298522949,2.430785894393921,0.5229759411492912,54.0,548.0,0.0
R,U,"[4, 9]",1.0,8.0,0.27455997467041016,1.8836958408355713,0.5067524466982372,54.0,549.0,0.0
Y,R,"[4, 10]",1.0,9.0,0.3164839744567871,1.730207920074463,0.3204953494164638,54.0,550.0,0.0
,,"(6, 6)",,,,,,,,
R,U,"[5, 6]",1.0,1.0,0.6110050678253174,3.756531000137329,0.4270565868167276,55.0,551.0,0.0
Y,R,"[5, 7]",1.0,2.0,0.26134586334228516,2.0173120498657227,0.660664780543011,55.0,552.0,0.0
Y,R,"[5, 8]",1.0,3.0,0.2427220344543457,1.8152050971984863,0.47599452381481283,55.0,553.0,0.0
G,D,"[6, 8]",1.0,4.0,0.29996299743652344,1.9376051425933838,0.5469879241127196,55.0,554.0,0.0
Y,R,"[6, 9]",1.0,5.0,0.24517202377319336,1.942559003829956,0.5894806108851605,55.0,555.0,0.0
Y,R,"[6, 10]",1.0,6.0,0.22247004508972168,1.9864261150360107,0.6592381609269788,55.0,556.0,0.0
R,U,"[5, 10]",1.0,7.0,0.41657495498657227,1.956860065460205,0.4495732303938071,55.0,557.0,0.0
G,D,"[6, 10]",0.0,7.0,0.29495787620544434,2.0117838382720947,0.6112400624255532,55.0,558.0,0.0
R,U,"[5, 10]",0.0,7.0,0.22592902183532715,1.791991949081421,0.4701163130230313,55.0,559.0,0.0
Y,R,"[5, 11]",0.0,7.0,0.24574899673461914,1.7265541553497314,0.3801104241284967,55.0,560.0,0.0
,,"(6, 6)",,,,,,,,
R,U,"[5, 6]",1.0,1.0,0.7181520462036133,3.683461904525757,0.7133609555813344,56.0,561.0,0.0
Y,R,"[5, 7]",1.0,2.0,0.20568299293518066,1.9612460136413574,0.6414036323689374,56.0,562.0,0.0
Y,R,"[5, 8]",1.0,3.0,0.17969799041748047,1.8780970573425293,0.6029294114831991,56.0,563.0,0.0
G,D,"[6, 8]",1.0,4.0,0.28528809547424316,1.7377660274505615,0.35751890973005396,56.0,564.0,0.0
Y,R,"[6, 9]",1.0,5.0,0.3330650329589844,2.1012508869171143,0.6752397532382437,56.0,565.0,0.0
Y,R,"[6, 10]",1.0,6.0,0.22023391723632812,1.8369789123535156,0.5289026733948718,56.0,566.0,0.0
R,U,"[5, 10]",1.0,7.0,0.25479888916015625,1.8685641288757324,0.5308708308485286,56.0,567.0,0.0
Y,R,"[5, 11]",0.0,7.0,0.23958992958068848,1.9737370014190674,0.6212689899560855,56.0,568.0,0.0
R,U,"[4, 11]",0.0,7.0,0.21419811248779297,1.6919360160827637,0.3801141175430186,56.0,569.0,0.0
Y,R,"[5, 11]",-3.0,7.0,0.27405405044555664,2.1076419353485107,0.7207320120206003,56.0,570.0,0.0
,,"(6, 6)",,,,,,,,
R,U,"[5, 6]",1.0,1.0,0.5197629928588867,6.592963933944702,0.5973877573253739,57.0,571.0,0.0
Y,R,"[5, 7]",1.0,2.0,0.2272510528564453,1.9171929359436035,0.5811903755243397,57.0,572.0,0.0
Y,R,"[5, 8]",1.0,3.0,0.21295499801635742,1.8163771629333496,0.49765316616679117,57.0,573.0,0.0
G,D,"[6, 8]",1.0,4.0,0.22107505798339844,1.7574999332427979,0.42180275489142294,57.0,574.0,0.0
Y,R,"[6, 9]",1.0,5.0,0.22422099113464355,2.0266499519348145,0.6983865546669474,57.0,575.0,0.0
Y,R,"[6, 10]",-1.0,5.0,0.025359153747558594,5.803091049194336,0.6516627179298424,57.0,576.0,0.0
Y,R,"[6, 11]",0.0,5.0,0.43012094497680664,1.940072774887085,0.4086453935660918,57.0,577.0,0.0
R,U,"[5, 11]",0.0,5.0,0.22479987144470215,2.0638740062713623,0.7386205513645276,57.0,578.0,0.0
Y,R,"[6, 11]",-3.0,5.0,0.1981661319732666,1.7157180309295654,0.42150964702526433,57.0,579.0,0.0
R,U,"[5, 11]",0.0,5.0,0.2809169292449951,2.1165809631347656,0.7378681430944656,57.0,580.0,0.0
,,"(6, 6)",,,,,,,,
R,U,"[5, 6]",1.0,1.0,0.3989121913909912,5.487403154373169,0.4422365000265101,58.0,581.0,0.0
Y,R,"[5, 7]",1.0,2.0,0.31583595275878906,1.6756651401519775,0.2680865646061292,58.0,582.0,0.0
Y,R,"[5, 8]",1.0,3.0,0.2972440719604492,1.9901621341705322,0.5912719576771188,58.0,583.0,0.0
G,D,"[6, 8]",1.0,4.0,0.23821306228637695,2.0720620155334473,0.7298675463752113,58.0,584.0,0.0
Y,R,"[6, 9]",1.0,5.0,0.36525917053222656,1.8819000720977783,0.4121120799880734,58.0,585.0,0.0
Y,R,"[6, 10]",1.0,6.0,0.4293031692504883,1.9841089248657227,0.46326714119396634,58.0,586.0,0.0
R,U,"[5, 10]",1.0,7.0,0.35738587379455566,2.046269178390503,0.5757418854237337,58.0,587.0,0.0
R,U,"[4, 10]",1.0,8.0,0.32922887802124023,1.6785008907318115,0.2545969263669626,58.0,588.0,0.0
Y,R,"[4, 11]",0.0,8.0,0.5072340965270996,2.206462860107422,0.5940607692867222,58.0,589.0,0.0
Y,R,"[4, 10]",-3.0,8.0,0.8809230327606201,2.42557692527771,0.4532241520374519,58.0,590.0,0.0
,,"(6, 6)",,,,,,,,
R,U,"[5, 6]",1.0,1.0,0.8906610012054443,3.5204930305480957,0.29062575608749364,59.0,591.0,0.0
Y,R,"[5, 7]",1.0,2.0,0.5021610260009766,2.2432239055633545,0.650170103709969,59.0,592.0,0.0
Y,R,"[5, 8]",1.0,3.0,0.44825100898742676,2.0911378860473633,0.5413013900929641,59.0,593.0,0.0
G,D,"[6, 8]",1.0,4.0,0.4049959182739258,2.125370979309082,0.6333991553893181,59.0,594.0,0.0
Y,R,"[6, 9]",1.0,5.0,0.23665285110473633,1.8936560153961182,0.5607701332787036,59.0,595.0,0.0
Y,R,"[6, 10]",1.0,6.0,0.3696439266204834,2.1112499237060547,0.6548985949575836,59.0,596.0,0.0
R,U,"[5, 10]",1.0,7.0,0.29190683364868164,1.9850480556488037,0.5900964042274336,59.0,597.0,0.0
R,U,"[4, 10]",1.0,8.0,0.43572282791137695,1.943363904953003,0.4169406703963296,59.0,598.0,0.0
R,U,"[3, 10]",0.0,8.0,0.37467288970947266,2.171658992767334,0.6884416779252343,59.0,599.0,0.0
Y,R,"[3, 11]",0.0,8.0,0.2890799045562744,2.09389591217041,0.6989098779373593,59.0,600.0,0.0
,,"(6, 6)",,,,,,,,
R,U,"[5, 6]",1.0,1.0,0.4600229263305664,3.022900104522705,0.6054378504246223,60.0,601.0,0.0
Y,R,"[5, 7]",1.0,2.0,0.3384389877319336,1.8050580024719238,0.360802119671912,60.0,602.0,0.0
Y,R,"[5, 8]",1.0,3.0,0.41458916664123535,1.9727771282196045,0.46675016127442687,60.0,603.0,0.0
G,D,"[6, 8]",1.0,4.0,0.3563709259033203,1.9258959293365479,0.45925433839359286,60.0,604.0,0.0
Y,R,"[6, 9]",1.0,5.0,0.26865291595458984,1.9250359535217285,0.5676002802986377,60.0,605.0,0.0
Y,R,"[6, 10]",1.0,6.0,0.3684229850769043,1.9178669452667236,0.4522639558703818,60.0,606.0,0.0
R,U,"[5, 10]",1.0,7.0,0.48507094383239746,2.2380530834198,0.6568311595960488,60.0,607.0,0.0
R,U,"[4, 10]",1.0,8.0,0.4037041664123535,2.1299891471862793,0.6369244903113552,60.0,608.0,0.0
G,D,"[5, 10]",0.0,8.0,0.6133949756622314,2.0467240810394287,0.3339406826710124,60.0,609.0,0.0
Y,R,"[5, 11]",0.0,8.0,0.3954479694366455,1.798738956451416,0.2994204067218864,60.0,610.0,0.0
,,"(6, 6)",,,,,,,,
R,U,"[5, 6]",1.0,1.0,0.5537588596343994,3.8907318115234375,0.7396815167916433,61.0,611.0,0.0
Y,R,"[5, 7]",1.0,2.0,0.28736209869384766,1.6284940242767334,0.25200989284293224,61.0,612.0,0.0
Y,R,"[5, 8]",1.0,3.0,0.4940609931945801,2.2115399837493896,0.6132436738267539,61.0,613.0,0.0
G,D,"[6, 8]",1.0,4.0,0.3883960247039795,1.9093060493469238,0.42283814627197813,61.0,614.0,0.0
Y,R,"[6, 9]",1.0,5.0,0.3485119342803955,2.066433906555176,0.6223552405632531,61.0,615.0,0.0
Y,R,"[6, 10]",1.0,6.0,0.27104616165161133,1.824096918106079,0.4630373164035705,61.0,616.0,0.0
R,U,"[5, 10]",1.0,7.0,0.30450987815856934,2.047361135482788,0.6274065619576561,61.0,617.0,0.0
R,U,"[4, 10]",1.0,8.0,0.24487614631652832,1.7805709838867188,0.4415030348270251,61.0,618.0,0.0
Y,R,"[4, 11]",0.0,8.0,0.32729005813598633,1.8969500064849854,0.47170964238928353,61.0,619.0,0.0
Y,R,"[4, 10]",-3.0,8.0,0.24730896949768066,1.8538801670074463,0.5089596674535206,61.0,620.0,0.0
,,"(6, 6)",,,,,,,,
R,U,"[5, 6]",1.0,1.0,0.7685370445251465,3.2413880825042725,0.35050573462267204,62.0,621.0,0.0
Y,R,"[5, 7]",1.0,2.0,0.23744606971740723,1.873682975769043,0.540802833310758,62.0,622.0,0.0
Y,R,"[5, 8]",1.0,3.0,0.22095179557800293,1.6257519721984863,0.3169169367866918,62.0,623.0,0.0
G,D,"[6, 8]",1.0,4.0,0.2655768394470215,2.0770461559295654,0.7106451406753669,62.0,624.0,0.0
Y,R,"[6, 9]",1.0,5.0,0.3437480926513672,1.9184660911560059,0.4789468481967497,62.0,625.0,0.0
Y,R,"[6, 10]",1.0,6.0,0.31012487411499023,1.6729891300201416,0.2688975871197754,62.0,626.0,0.0
R,U,"[5, 10]",1.0,7.0,0.4248819351196289,1.9655160903930664,0.4341889170444424,62.0,627.0,0.0
R,U,"[4, 10]",1.0,8.0,0.2754950523376465,1.761199951171875,0.37888214618091814,62.0,628.0,0.0
Y,R,"[4, 11]",0.0,8.0,0.44240617752075195,2.156358003616333,0.6184093483417992,62.0,629.0,0.0
Y,R,"[4, 10]",-3.0,8.0,0.24585700035095215,1.8254599571228027,0.4773390281207111,62.0,630.0,0.0
,,"(6, 6)",,,,,,,,
R,U,"[5, 6]",1.0,1.0,0.7622158527374268,3.7561428546905518,0.6668203476903047,63.0,631.0,0.0
Y,R,"[5, 7]",1.0,2.0,0.24764585494995117,1.8897178173065186,0.5399283689207747,63.0,632.0,0.0
Y,R,"[5, 8]",1.0,3.0,0.31634521484375,1.9979660511016846,0.5876281109486893,63.0,633.0,0.0
G,D,"[6, 8]",1.0,4.0,0.2704648971557617,1.6462740898132324,0.2845282768966672,63.0,634.0,0.0
Y,R,"[6, 9]",1.0,5.0,0.34839391708374023,2.1772871017456055,0.728070833027879,63.0,635.0,0.0
Y,R,"[6, 10]",1.0,6.0,0.4448978900909424,2.271074056625366,0.7325648511276428,63.0,636.0,0.0
R,U,"[5, 10]",1.0,7.0,0.32884883880615234,2.125671148300171,0.6916442597956097,63.0,637.0,0.0
R,U,"[4, 10]",1.0,8.0,0.23306918144226074,1.8740630149841309,0.5493639448682142,63.0,638.0,0.0
R,U,"[3, 10]",0.0,8.0,0.3069159984588623,1.7936007976531982,0.3764507776344076,63.0,639.0,0.0
R,U,"[2, 10]",0.0,8.0,0.3699638843536377,1.7362060546875,0.2794491905845095,63.0,640.0,0.0
,,"(6, 6)",,,,,,,,
R,U,"[5, 6]",1.0,1.0,0.3975350856781006,4.549749135971069,0.545648662622344,64.0,641.0,0.0
Y,R,"[5, 7]",1.0,2.0,0.24336600303649902,1.6887919902801514,0.35154183297064767,64.0,642.0,0.0
Y,R,"[5, 8]",1.0,3.0,0.2826578617095947,1.7108829021453857,0.3290175134122953,64.0,643.0,0.0
G,D,"[6, 8]",1.0,4.0,0.2584819793701172,1.9373440742492676,0.5827909869784043,64.0,644.0,0.0
Y,R,"[6, 9]",1.0,5.0,0.3016171455383301,1.703434944152832,0.3033292082101534,64.0,645.0,0.0
Y,R,"[6, 10]",1.0,6.0,0.4056739807128906,1.918808937072754,0.4054340579517642,64.0,646.0,0.0
R,U,"[5, 10]",1.0,7.0,0.3643209934234619,1.770132064819336,0.3088680449783331,64.0,647.0,0.0
R,U,"[4, 10]",1.0,8.0,0.26541900634765625,1.7938079833984375,0.4361193945401384,64.0,648.0,0.0
B,L,"[4, 9]",1.0,9.0,0.32372307777404785,1.8767740726470947,0.4462672019305591,64.0,649.0,0.0
Y,R,"[4, 10]",0.0,9.0,0.28511714935302734,2.0147440433502197,0.6274252572327709,64.0,650.0,0.0
,,"(6, 6)",,,,,,,,
R,U,"[5, 6]",1.0,1.0,0.4562349319458008,2.9487531185150146,0.3766073052452869,65.0,651.0,0.0
Y,R,"[5, 7]",1.0,2.0,0.23240399360656738,1.783121109008789,0.459674574241571,65.0,652.0,0.0
Y,R,"[5, 8]",1.0,3.0,0.2540748119354248,1.5951361656188965,0.2550966314211831,65.0,653.0,0.0
G,D,"[6, 8]",1.0,4.0,0.326430082321167,1.8143930435180664,0.3859696904035911,65.0,654.0,0.0
Y,R,"[6, 9]",1.0,5.0,0.24957680702209473,1.7167870998382568,0.3693154533252931,65.0,655.0,0.0
Y,R,"[6, 10]",1.0,6.0,0.3059511184692383,1.7095651626586914,0.2958186412037958,65.0,656.0,0.0
R,U,"[5, 10]",1.0,7.0,0.22396016120910645,1.946782112121582,0.625612793957645,65.0,657.0,0.0
R,U,"[4, 10]",1.0,8.0,0.3740499019622803,1.8461799621582031,0.37203058606754486,65.0,658.0,0.0
B,L,"[4, 9]",1.0,9.0,0.3700978755950928,1.917494773864746,0.45619093390523907,65.0,659.0,0.0
Y,R,"[4, 10]",0.0,9.0,0.342357873916626,2.017648935317993,0.5736299440478305,65.0,660.0,0.0
,,"(6, 6)",,,,,,,,
R,U,"[5, 6]",1.0,1.0,0.5319540500640869,2.9857330322265625,0.5430446346400182,66.0,661.0,0.0
Y,R,"[5, 7]",1.0,2.0,0.44055914878845215,1.8631489276885986,0.323141020946619,66.0,662.0,0.0
Y,R,"[5, 8]",1.0,3.0,0.410053014755249,2.05855393409729,0.5480454324426833,66.0,663.0,0.0
G,D,"[6, 8]",1.0,4.0,0.23061394691467285,1.9397640228271484,0.6044528407691963,66.0,664.0,0.0
Y,R,"[6, 9]",1.0,5.0,0.38254594802856445,2.1965150833129883,0.7177282903088743,66.0,665.0,0.0
Y,R,"[6, 10]",1.0,6.0,0.2713160514831543,1.6869330406188965,0.3218115153796835,66.0,666.0,0.0
R,U,"[5, 10]",1.0,7.0,0.2962939739227295,1.9706439971923828,0.5754036453233915,66.0,667.0,0.0
R,U,"[4, 10]",1.0,8.0,0.23839712142944336,1.9967989921569824,0.6555867251519436,66.0,668.0,0.0
B,L,"[4, 9]",1.0,9.0,0.21944212913513184,1.9206559658050537,0.6096736021369547,66.0,669.0,0.0
R,U,"[3, 9]",1.0,10.0,0.22782397270202637,1.6442930698394775,0.32079150554447156,66.0,670.0,0.0
,,"(6, 6)",,,,,,,,
Y,R,"[6, 7]",0.0,0.0,0.680974006652832,5.163312911987305,0.4842989712653808,67.0,671.0,0.0
R,U,"[5, 7]",1.0,1.0,0.37827110290527344,2.090688943862915,0.6081248025345197,67.0,672.0,0.0
Y,R,"[5, 8]",1.0,2.0,0.21110987663269043,1.898277997970581,0.5899388812865689,67.0,673.0,0.0
Y,R,"[5, 9]",0.0,2.0,0.21108794212341309,2.051909923553467,0.7416283376996018,67.0,674.0,0.0
G,D,"[6, 9]",1.0,3.0,0.20926809310913086,1.5865988731384277,0.27860900404446165,67.0,675.0,0.0
Y,R,"[6, 10]",1.0,4.0,0.2511129379272461,1.7250499725341797,0.38712687608719776,67.0,676.0,0.0
Y,R,"[6, 11]",0.0,4.0,0.22083497047424316,2.0183658599853516,0.7051103125756563,67.0,677.0,0.0
R,U,"[5, 11]",-1.0,4.0,0.02930307388305664,5.875396966934204,0.714413035055694,67.0,678.0,0.0
R,U,"[4, 11]",0.0,4.0,0.4930849075317383,2.347081184387207,0.7445269482925638,67.0,679.0,0.0
R,U,"[3, 11]",0.0,4.0,0.44681215286254883,2.034688949584961,0.4960223235017372,67.0,680.0,0.0
,,"(6, 6)",,,,,,,,
R,U,"[5, 6]",1.0,1.0,0.5839681625366211,4.361128091812134,0.45733310126804033,68.0,681.0,0.0
Y,R,"[5, 7]",1.0,2.0,0.38010191917419434,1.8784608840942383,0.40257586579210175,68.0,682.0,0.0
Y,R,"[5, 8]",1.0,3.0,0.3009769916534424,1.9446039199829102,0.5470120412131775,68.0,683.0,0.0
G,D,"[6, 8]",1.0,4.0,0.32976412773132324,2.0234627723693848,0.5873200237013264,68.0,684.0,0.0
Y,R,"[6, 9]",1.0,5.0,0.21178317070007324,1.6878819465637207,0.3753017489746812,68.0,685.0,0.0
Y,R,"[6, 10]",1.0,6.0,0.22899484634399414,1.9386470317840576,0.6139308101537322,68.0,686.0,0.0
R,U,"[5, 10]",1.0,7.0,0.296889066696167,2.0832810401916504,0.680546876667588,68.0,687.0,0.0
R,U,"[4, 10]",1.0,8.0,0.24977588653564453,1.692106008529663,0.33956332892760077,68.0,688.0,0.0
B,L,"[4, 9]",1.0,9.0,0.2783668041229248,2.0825772285461426,0.7052013924276133,68.0,689.0,0.0
R,U,"[3, 9]",1.0,10.0,0.32308292388916016,2.094881057739258,0.6668225083701513,68.0,690.0,0.0
,,"(6, 6)",,,,,,,,
R,U,"[5, 6]",1.0,1.0,0.5680370330810547,4.690582036972046,0.5241907162670124,69.0,691.0,0.0
Y,R,"[5, 7]",1.0,2.0,0.3379371166229248,1.7954909801483154,0.37004698343552306,69.0,692.0,0.0
Y,R,"[5, 8]",1.0,3.0,0.5051329135894775,2.2337429523468018,0.6202284320926637,69.0,693.0,0.0
G,D,"[6, 8]",1.0,4.0,0.3473970890045166,1.7083909511566162,0.26228245251176896,69.0,694.0,0.0
Y,R,"[6, 9]",1.0,5.0,0.4368319511413574,1.9698050022125244,0.44867902985802194,69.0,695.0,0.0
Y,R,"[6, 10]",1.0,6.0,0.32354021072387695,1.9829881191253662,0.5482915078894517,69.0,696.0,0.0
R,U,"[5, 10]",1.0,7.0,0.34325098991394043,1.867506980895996,0.41588172969448844,69.0,697.0,0.0
R,U,"[4, 10]",1.0,8.0,0.2786538600921631,1.6510460376739502,0.26718866109953726,69.0,698.0,0.0
B,L,"[4, 9]",1.0,9.0,0.40192580223083496,2.110360860824585,0.6105858844814698,69.0,699.0,0.0
R,U,"[3, 9]",1.0,10.0,0.2700011730194092,1.7823069095611572,0.4264463889728303,69.0,700.0,0.0
,,"(6, 6)",,,,,,,,
R,U,"[5, 6]",1.0,1.0,0.5248420238494873,4.326952934265137,0.5366512182158573,70.0,701.0,0.0
Y,R,"[5, 7]",1.0,2.0,0.4692540168762207,2.100065231323242,0.5367814058041224,70.0,702.0,0.0
Y,R,"[5, 8]",1.0,3.0,0.41217803955078125,1.8621752262115479,0.34922366575465374,70.0,703.0,0.0
G,D,"[6, 8]",1.0,4.0,0.4538419246673584,2.287580966949463,0.7198706348635375,70.0,704.0,0.0
Y,R,"[6, 9]",1.0,5.0,0.3082599639892578,1.8390471935272217,0.4256159578581086,70.0,705.0,0.0
Y,R,"[6, 10]",1.0,6.0,0.2725551128387451,1.892883062362671,0.5186767223599908,70.0,706.0,0.0
R,U,"[5, 10]",1.0,7.0,0.3713219165802002,2.093580961227417,0.6122900485971592,70.0,707.0,0.0
R,U,"[4, 10]",1.0,8.0,0.24840593338012695,1.655268907546997,0.3179129307424259,70.0,708.0,0.0
B,L,"[4, 9]",1.0,9.0,0.36550307273864746,1.8376200199127197,0.3721219627651945,70.0,709.0,0.0
R,U,"[3, 9]",1.0,10.0,0.33406710624694824,1.6891870498657227,0.2613409660877166,70.0,710.0,0.0
,,"(6, 6)",,,,,,,,
R,U,"[5, 6]",1.0,1.0,0.47028517723083496,3.2893338203430176,0.6504174081244808,71.0,711.0,0.0
Y,R,"[5, 7]",1.0,2.0,0.2008061408996582,1.9232349395751953,0.6238095347469879,71.0,712.0,0.0
Y,R,"[5, 8]",1.0,3.0,0.21941781044006348,1.6498019695281982,0.34062252384359004,71.0,713.0,0.0
G,D,"[6, 8]",1.0,4.0,0.2826719284057617,1.8641631603240967,0.4880167070901543,71.0,714.0,0.0
Y,R,"[6, 9]",1.0,5.0,0.22175097465515137,1.6616270542144775,0.3330790166707076,71.0,715.0,0.0
Y,R,"[6, 10]",1.0,6.0,0.2082369327545166,1.7874047756195068,0.4703737059213733,71.0,716.0,0.0
R,U,"[5, 10]",1.0,7.0,0.2518579959869385,2.0288848876953125,0.6824426279872853,71.0,717.0,0.0
R,U,"[4, 10]",1.0,8.0,0.21875214576721191,1.7179279327392578,0.40067059812565836,71.0,718.0,0.0
B,L,"[4, 9]",1.0,9.0,0.29009199142456055,1.8216660022735596,0.4223753454502215,71.0,719.0,0.0
R,U,"[3, 9]",1.0,10.0,0.2654850482940674,1.7713630199432373,0.4104475119403739,71.0,720.0,0.0
,,"(6, 6)",,,,,,,,
R,U,"[5, 6]",1.0,1.0,0.4945669174194336,3.5453009605407715,0.7056198871316084,72.0,721.0,0.0
Y,R,"[5, 7]",1.0,2.0,0.25713205337524414,1.9559638500213623,0.5949826737802554,72.0,722.0,0.0
Y,R,"[5, 8]",1.0,3.0,0.19996285438537598,1.9544200897216797,0.6660216674342628,72.0,723.0,0.0
G,D,"[6, 8]",1.0,4.0,0.2973778247833252,1.8267920017242432,0.426441209221022,72.0,724.0,0.0
Y,R,"[6, 9]",1.0,5.0,0.2797880172729492,1.7891640663146973,0.41569310527188236,72.0,725.0,0.0
Y,R,"[6, 10]",1.0,6.0,0.25377988815307617,2.02109694480896,0.670401496030855,72.0,726.0,0.0
R,U,"[5, 10]",1.0,7.0,0.21567511558532715,2.0022220611572266,0.6888482197908394,72.0,727.0,0.0
R,U,"[4, 10]",1.0,8.0,0.193572998046875,1.639847993850708,0.3456852453056416,72.0,728.0,0.0
B,L,"[4, 9]",1.0,9.0,0.47611188888549805,1.8238499164581299,0.25301415237804936,72.0,729.0,0.0
R,U,"[3, 9]",1.0,10.0,0.39887094497680664,1.9627768993377686,0.46570181496580376,72.0,730.0,0.0
,,"(6, 6)",,,,,,,,
R,U,"[5, 6]",1.0,1.0,0.38401103019714355,3.861999988555908,0.6109464432958215,73.0,731.0,0.0
Y,R,"[5, 7]",1.0,2.0,0.20645713806152344,1.8334519863128662,0.5280310263814393,73.0,732.0,0.0
Y,R,"[5, 8]",1.0,3.0,0.2240769863128662,1.5902519226074219,0.28498742091866713,73.0,733.0,0.0
G,D,"[6, 8]",1.0,4.0,0.4841439723968506,2.1515161991119385,0.5696062590698698,73.0,734.0,0.0
Y,R,"[6, 9]",1.0,5.0,0.4495809078216553,2.2694408893585205,0.7223330042296243,73.0,735.0,0.0
Y,R,"[6, 10]",1.0,6.0,0.24568605422973633,2.0021510124206543,0.6578797007349585,73.0,736.0,0.0
R,U,"[5, 10]",1.0,7.0,0.31172990798950195,1.9200940132141113,0.5113976997698746,73.0,737.0,0.0
R,U,"[4, 10]",1.0,8.0,0.2641332149505615,2.001579999923706,0.6462496297280109,73.0,738.0,0.0
B,L,"[4, 9]",1.0,9.0,0.326495885848999,1.8306119441986084,0.3938600818475489,73.0,739.0,0.0
R,U,"[3, 9]",1.0,10.0,0.45491480827331543,2.172682046890259,0.633045881800321,73.0,740.0,0.0
,,"(6, 6)",,,,,,,,
R,U,"[5, 6]",1.0,1.0,0.5668210983276367,3.7190041542053223,0.6687234698696374,74.0,741.0,0.0
Y,R,"[5, 7]",1.0,2.0,0.28416013717651367,1.6680951118469238,0.28725058177089763,74.0,742.0,0.0
Y,R,"[5, 8]",1.0,3.0,0.3923158645629883,2.1923720836639404,0.6956128765597045,74.0,743.0,0.0
G,D,"[6, 8]",1.0,4.0,0.29357409477233887,2.01544189453125,0.611510545860121,74.0,744.0,0.0
Y,R,"[6, 9]",1.0,5.0,0.2946741580963135,1.6387970447540283,0.25067776589332236,74.0,745.0,0.0
Y,R,"[6, 10]",1.0,6.0,0.23752903938293457,2.0702788829803467,0.7371708353645121,74.0,746.0,0.0
R,U,"[5, 10]",1.0,7.0,0.26064085960388184,1.6457810401916504,0.28354207320471425,74.0,747.0,0.0
R,U,"[4, 10]",1.0,8.0,0.36409687995910645,2.2156059741973877,0.7487617984330647,74.0,748.0,0.0
B,L,"[4, 9]",1.0,9.0,0.2535898685455322,1.6787290573120117,0.3279184417147138,74.0,749.0,0.0
R,U,"[3, 9]",1.0,10.0,0.4459199905395508,2.162014961242676,0.6229173076224778,74.0,750.0,0.0
,,"(6, 6)",,,,,,,,
R,U,"[5, 6]",1.0,1.0,0.6007049083709717,3.641439914703369,0.5811521581934054,75.0,751.0,0.0
Y,R,"[5, 7]",1.0,2.0,0.23145198822021484,2.074965000152588,0.739279432500397,75.0,752.0,0.0
Y,R,"[5, 8]",1.0,3.0,0.23987984657287598,1.9416539669036865,0.5978639935451,75.0,753.0,0.0
G,D,"[6, 8]",1.0,4.0,0.28896498680114746,1.732055902481079,0.32995782293233694,75.0,754.0,0.0
Y,R,"[6, 9]",1.0,5.0,0.2808818817138672,1.8676681518554688,0.48109756700597844,75.0,755.0,0.0
Y,R,"[6, 10]",1.0,6.0,0.2649979591369629,1.9219970703125,0.5530592947757222,75.0,756.0,0.0
R,U,"[5, 10]",1.0,7.0,0.27848291397094727,1.8179030418395996,0.4377998938106388,75.0,757.0,0.0
R,U,"[4, 10]",1.0,8.0,0.24536895751953125,1.7843871116638184,0.43831281056597393,75.0,758.0,0.0
B,L,"[4, 9]",1.0,9.0,0.28557610511779785,1.992006778717041,0.6140401775420872,75.0,759.0,0.0
R,U,"[3, 9]",1.0,10.0,0.22279596328735352,1.6933081150054932,0.3577940537826629,75.0,760.0,0.0
,,"(6, 6)",,,,,,,,
R,U,"[5, 6]",1.0,1.0,0.45089101791381836,6.106656074523926,0.547546114097949,76.0,761.0,0.0
Y,R,"[5, 7]",1.0,2.0,0.27087998390197754,1.9923560619354248,0.6067088539776461,76.0,762.0,0.0
Y,R,"[5, 8]",1.0,3.0,0.22673892974853516,2.019252061843872,0.6925240655725862,76.0,763.0,0.0
R,U,"[4, 8]",0.0,3.0,0.7210302352905273,2.3926191329956055,0.5685545756972932,76.0,764.0,0.0
Y,R,"[4, 9]",1.0,4.0,0.4670729637145996,2.2640881538391113,0.6993458512549373,76.0,765.0,0.0
Y,R,"[4, 10]",1.0,5.0,0.21250081062316895,1.642958164215088,0.3259930423209496,76.0,766.0,0.0
R,U,"[3, 10]",0.0,5.0,0.427293062210083,1.9397830963134766,0.4157279478064417,76.0,767.0,0.0
R,U,"[2, 10]",0.0,5.0,0.23944401741027832,1.89497709274292,0.5438734172213081,76.0,768.0,0.0
B,L,"[2, 9]",0.0,5.0,0.22904610633850098,1.5941028594970703,0.2716546944579965,76.0,769.0,0.0
R,U,"[1, 9]",0.0,5.0,0.30109500885009766,1.9906699657440186,0.5953030463255032,76.0,770.0,0.0
,,"(6, 6)",,,,,,,,
R,U,"[5, 6]",1.0,1.0,0.5679080486297607,3.8556771278381348,0.6848397795115164,77.0,771.0,0.0
Y,R,"[5, 7]",1.0,2.0,0.23242688179016113,1.7270071506500244,0.39504392451669273,77.0,772.0,0.0
Y,R,"[5, 8]",1.0,3.0,0.268765926361084,1.9687340259552002,0.6136157042872996,77.0,773.0,0.0
G,D,"[6, 8]",1.0,4.0,0.25655102729797363,1.9426960945129395,0.5733921723917049,77.0,774.0,0.0
Y,R,"[6, 9]",1.0,5.0,0.26132798194885254,1.895259141921997,0.5350862687511999,77.0,775.0,0.0
Y,R,"[6, 10]",1.0,6.0,0.23125100135803223,1.9847190380096436,0.6529512901174805,77.0,776.0,0.0
R,U,"[5, 10]",1.0,7.0,0.2949240207672119,2.0170650482177734,0.6199962892910269,77.0,777.0,0.0
R,U,"[4, 10]",1.0,8.0,0.23201799392700195,2.0183610916137695,0.6888215804306526,77.0,778.0,0.0
B,L,"[4, 9]",1.0,9.0,0.4137539863586426,2.0423340797424316,0.5310317115956138,77.0,779.0,0.0
R,U,"[3, 9]",1.0,10.0,0.24977588653564453,1.608841896057129,0.2567787798248589,77.0,780.0,0.0
,,"(6, 6)",,,,,,,,
R,U,"[5, 6]",1.0,1.0,0.6400558948516846,6.831727981567383,0.6882115014436128,78.0,781.0,0.0
Y,R,"[5, 7]",1.0,2.0,0.20983505249023438,2.0157392024993896,0.7041360892911509,78.0,782.0,0.0
Y,R,"[5, 8]",1.0,3.0,0.2506530284881592,1.6089999675750732,0.26345198181457063,78.0,783.0,0.0
G,D,"[6, 8]",1.0,4.0,0.35843801498413086,1.9421288967132568,0.4722557460809711,78.0,784.0,0.0
Y,R,"[6, 9]",1.0,5.0,0.3652360439300537,2.054664134979248,0.593313958391323,78.0,785.0,0.0
Y,R,"[6, 10]",1.0,6.0,0.30244016647338867,1.725074052810669,0.3353407525576899,78.0,786.0,0.0
R,U,"[5, 10]",1.0,7.0,0.3601257801055908,1.940032958984375,0.4753299569139867,78.0,787.0,0.0
R,U,"[4, 10]",1.0,8.0,0.20276212692260742,1.7608180046081543,0.46954808383001695,78.0,788.0,0.0
B,L,"[4, 9]",1.0,9.0,0.33614611625671387,2.1261420249938965,0.6956076429180463,78.0,789.0,0.0
R,U,"[3, 9]",1.0,10.0,0.27600693702697754,1.848280906677246,0.4774517831061474,78.0,790.0,0.0
,,"(6, 6)",,,,,,,,
R,U,"[5, 6]",1.0,1.0,0.5466148853302002,6.4198668003082275,0.6805408245797082,79.0,791.0,0.0
Y,R,"[5, 7]",1.0,2.0,0.26497507095336914,1.9715549945831299,0.6022330877792481,79.0,792.0,0.0
Y,R,"[5, 8]",1.0,3.0,0.40508508682250977,1.9371130466461182,0.4227861730712473,79.0,793.0,0.0
G,D,"[6, 8]",1.0,4.0,0.28756213188171387,1.915464162826538,0.538185650548963,79.0,794.0,0.0
Y,R,"[6, 9]",1.0,5.0,0.2524528503417969,1.8339850902557373,0.48896473301061427,79.0,795.0,0.0
Y,R,"[6, 10]",1.0,6.0,0.20785903930664062,1.6905570030212402,0.37977553531089103,79.0,796.0,0.0
R,U,"[5, 10]",1.0,7.0,0.2819509506225586,1.9925789833068848,0.6053911857462124,79.0,797.0,0.0
R,U,"[4, 10]",1.0,8.0,0.16567397117614746,1.9883451461791992,0.7269228396621075,79.0,798.0,0.0
B,L,"[4, 9]",1.0,9.0,0.19077301025390625,1.7418241500854492,0.4524528038535928,79.0,799.0,0.0
R,U,"[3, 9]",1.0,10.0,0.226362943649292,1.7362489700317383,0.4054663410402836,79.0,800.0,0.0
,,"(6, 6)",,,,,,,,
R,U,"[5, 6]",1.0,1.0,0.46753907203674316,3.2204701900482178,0.6920885153306033,80.0,801.0,0.0
Y,R,"[5, 7]",1.0,2.0,0.11266684532165527,1.8520090579986572,0.6444108583459642,80.0,802.0,0.0
Y,R,"[5, 8]",1.0,3.0,0.21567893028259277,1.846609115600586,0.5411643725234565,80.0,803.0,0.0
G,D,"[6, 8]",1.0,4.0,0.3145918846130371,1.8609800338745117,0.4523382421534846,80.0,804.0,0.0
Y,R,"[6, 9]",1.0,5.0,0.28205394744873047,2.0637900829315186,0.6825393821369412,80.0,805.0,0.0
Y,R,"[6, 10]",1.0,6.0,0.2878599166870117,1.7744030952453613,0.37386474626597954,80.0,806.0,0.0
R,U,"[5, 10]",1.0,7.0,0.32283997535705566,1.7222189903259277,0.29640992643134934,80.0,807.0,0.0
R,U,"[4, 10]",1.0,8.0,0.2406160831451416,1.9372470378875732,0.5834171675284963,80.0,808.0,0.0
B,L,"[4, 9]",-1.0,8.0,0.09856009483337402,5.5096518993377686,0.27662738308946916,80.0,809.0,0.0
B,L,"[4, 8]",0.0,8.0,0.378446102142334,1.8975050449371338,0.42407963689623757,80.0,810.0,0.0
,,"(6, 6)",,,,,,,,
R,U,"[5, 6]",1.0,1.0,0.5655150413513184,6.021986961364746,0.5129010398191105,81.0,811.0,0.0
Y,R,"[5, 7]",1.0,2.0,0.31958508491516113,2.057096004486084,0.6364792265746722,81.0,812.0,0.0
Y,R,"[5, 8]",1.0,3.0,0.31240391731262207,1.8082029819488525,0.39491184198456386,81.0,813.0,0.0
B,L,"[5, 7]",0.0,3.0,0.5894680023193359,2.09934401512146,0.41108036529712616,81.0,814.0,0.0
Y,R,"[5, 8]",0.0,3.0,0.27774810791015625,1.7218999862670898,0.3496447272978963,81.0,815.0,0.0
Y,R,"[5, 9]",0.0,3.0,0.23874306678771973,1.9628000259399414,0.612229422675066,81.0,816.0,0.0
R,U,"[4, 9]",1.0,4.0,0.13339614868164062,1.824193000793457,0.603104520210259,81.0,817.0,0.0
R,U,"[3, 9]",1.0,5.0,0.246751070022583,1.8549680709838867,0.5082651810614214,81.0,818.0,0.0
B,L,"[3, 8]",0.0,5.0,0.35034799575805664,1.7833728790283203,0.3418233913530994,81.0,819.0,0.0
R,U,"[2, 8]",0.0,5.0,0.3349950313568115,1.8115711212158203,0.3867350754718682,81.0,820.0,0.0
,,"(6, 6)",,,,,,,,
R,U,"[5, 6]",1.0,1.0,0.6172778606414795,3.2120931148529053,0.49883669599235547,82.0,821.0,0.0
Y,R,"[5, 7]",1.0,2.0,0.24132299423217773,1.8674030303955078,0.5163179655200578,82.0,822.0,0.0
Y,R,"[5, 8]",1.0,3.0,0.26403093338012695,1.976078987121582,0.6088643358887581,82.0,823.0,0.0
G,D,"[6, 8]",1.0,4.0,0.35944199562072754,1.985508918762207,0.5277007862443586,82.0,824.0,0.0
Y,R,"[6, 9]",1.0,5.0,0.12343502044677734,1.944153070449829,0.7218399907937172,82.0,825.0,0.0
Y,R,"[6, 10]",1.0,6.0,0.2103421688079834,2.006783962249756,0.6952361056182836,82.0,826.0,0.0
R,U,"[5, 10]",1.0,7.0,0.345365047454834,2.114392042160034,0.6764624903512303,82.0,827.0,0.0
R,U,"[4, 10]",1.0,8.0,0.2930891513824463,2.101020097732544,0.7108003740734163,82.0,828.0,0.0
B,L,"[4, 9]",1.0,9.0,0.3700108528137207,2.1218509674072266,0.6661249664471611,82.0,829.0,0.0
R,U,"[3, 9]",1.0,10.0,0.3545379638671875,2.136967897415161,0.6862232687002126,82.0,830.0,0.0
,,"(6, 6)",,,,,,,,
R,U,"[5, 6]",1.0,1.0,0.6522741317749023,7.8975560665130615,0.6675687025019474,83.0,831.0,0.0
Y,R,"[5, 7]",1.0,2.0,0.3159909248352051,1.7101728916168213,0.2947763855109951,83.0,832.0,0.0
Y,R,"[5, 8]",1.0,3.0,0.26949405670166016,1.7182590961456299,0.3629125230287571,83.0,833.0,0.0
G,D,"[6, 8]",1.0,4.0,0.3103678226470947,2.135272979736328,0.7146128224600053,83.0,834.0,0.0
Y,R,"[6, 9]",1.0,5.0,0.2875819206237793,1.9440679550170898,0.5587686393266402,83.0,835.0,0.0
Y,R,"[6, 10]",1.0,6.0,0.2439429759979248,1.7799088954925537,0.43884409955675074,83.0,836.0,0.0
R,U,"[5, 10]",1.0,7.0,0.2606840133666992,1.8477580547332764,0.4866082862873376,83.0,837.0,0.0
R,U,"[4, 10]",1.0,8.0,0.2475590705871582,1.6304268836975098,0.28393012296593645,83.0,838.0,0.0
B,L,"[4, 9]",1.0,9.0,0.3452460765838623,1.8019940853118896,0.3525277594540647,83.0,839.0,0.0
Y,R,"[4, 10]",0.0,9.0,0.430344820022583,2.125117063522339,0.5940793748373994,83.0,840.0,0.0
,,"(6, 6)",,,,,,,,
R,U,"[5, 6]",1.0,1.0,0.3724970817565918,3.633800983428955,0.6113607538323769,84.0,841.0,0.0
Y,R,"[5, 7]",1.0,2.0,0.2344958782196045,1.933840036392212,0.6119696481896046,84.0,842.0,0.0
Y,R,"[5, 8]",1.0,3.0,0.2001199722290039,1.6911659240722656,0.40328374116663285,84.0,843.0,0.0
G,D,"[6, 8]",1.0,4.0,0.33928513526916504,1.7454748153686523,0.315637069586221,84.0,844.0,0.0
Y,R,"[6, 9]",1.0,5.0,0.2713339328765869,1.9407739639282227,0.5727632162782751,84.0,845.0,0.0
Y,R,"[6, 10]",1.0,6.0,0.23697996139526367,1.7611231803894043,0.43405342561063204,84.0,846.0,0.0
R,U,"[5, 10]",1.0,7.0,0.3315739631652832,1.8039169311523438,0.3714043828322846,84.0,847.0,0.0
R,U,"[4, 10]",1.0,8.0,0.23002099990844727,1.7307188510894775,0.4022050125042355,84.0,848.0,0.0
B,L,"[4, 9]",1.0,9.0,0.3162100315093994,1.923124074935913,0.5086218500705588,84.0,849.0,0.0
R,U,"[3, 9]",1.0,10.0,0.23359417915344238,1.7069590091705322,0.3823308797597886,84.0,850.0,0.0
,,"(6, 6)",,,,,,,,
R,U,"[5, 6]",1.0,1.0,0.6315579414367676,3.8041532039642334,0.6029656195225912,85.0,851.0,0.0
Y,R,"[5, 7]",1.0,2.0,0.22008800506591797,1.7288639545440674,0.41541015370505735,85.0,852.0,0.0
Y,R,"[5, 8]",1.0,3.0,0.2448749542236328,1.7197818756103516,0.36868167985968914,85.0,853.0,0.0
G,D,"[6, 8]",1.0,4.0,0.37935590744018555,2.1199021339416504,0.6382459784610491,85.0,854.0,0.0
Y,R,"[6, 9]",1.0,5.0,0.3419609069824219,1.8287379741668701,0.3840488692308529,85.0,855.0,0.0
Y,R,"[6, 10]",1.0,6.0,0.28943800926208496,2.0391550064086914,0.6396207923633793,85.0,856.0,0.0
R,U,"[5, 10]",1.0,7.0,0.32117199897766113,1.860137939453125,0.44999795689329236,85.0,857.0,0.0
R,U,"[4, 10]",1.0,8.0,0.28610682487487793,2.0340569019317627,0.6504446064230188,85.0,858.0,0.0
B,L,"[4, 9]",1.0,9.0,0.2716541290283203,1.7043869495391846,0.3384907993559155,85.0,859.0,0.0
R,U,"[3, 9]",1.0,10.0,0.458571195602417,2.0604770183563232,0.4989141653983336,85.0,860.0,0.0
,,"(6, 6)",,,,,,,,
R,U,"[5, 6]",1.0,1.0,0.5003800392150879,3.4066150188446045,0.45560438279742793,86.0,861.0,0.0
Y,R,"[5, 7]",1.0,2.0,0.24674296379089355,1.9206972122192383,0.576351973355932,86.0,862.0,0.0
Y,R,"[5, 8]",1.0,3.0,0.2276930809020996,2.013490915298462,0.6896291458160183,86.0,863.0,0.0
G,D,"[6, 8]",1.0,4.0,0.3286612033843994,1.9531679153442383,0.5260250659552226,86.0,864.0,0.0
Y,R,"[6, 9]",1.0,5.0,0.30376601219177246,1.7841708660125732,0.39411858269710875,86.0,865.0,0.0
Y,R,"[6, 10]",1.0,6.0,0.2564268112182617,1.9939079284667969,0.6371604187906413,86.0,866.0,0.0
R,U,"[5, 10]",1.0,7.0,0.2751619815826416,1.822371006011963,0.4436355240618039,86.0,867.0,0.0
R,U,"[4, 10]",1.0,8.0,0.2709369659423828,1.8883388042449951,0.5151827459943017,86.0,868.0,0.0
B,L,"[4, 9]",1.0,9.0,0.31705498695373535,1.694493055343628,0.27680116748547484,86.0,869.0,0.0
R,U,"[3, 9]",1.0,10.0,0.46393394470214844,2.204134941101074,0.6471845735508941,86.0,870.0,0.0
,,"(6, 6)",,,,,,,,
R,U,"[5, 6]",1.0,1.0,0.6795790195465088,8.392158031463623,0.522937631565126,87.0,871.0,0.0
Y,R,"[5, 7]",1.0,2.0,0.2328948974609375,1.6585359573364258,0.3317410892583726,87.0,872.0,0.0
Y,R,"[5, 8]",1.0,3.0,0.23942995071411133,1.6198928356170654,0.26834423332764035,87.0,873.0,0.0
G,D,"[6, 8]",1.0,4.0,0.41184020042419434,1.8931498527526855,0.3781915692658979,87.0,874.0,0.0
Y,R,"[6, 9]",1.0,5.0,0.29271817207336426,1.782423973083496,0.3939777776590059,87.0,875.0,0.0
Y,R,"[6, 10]",1.0,6.0,0.25430893898010254,1.7159450054168701,0.37659595244269006,87.0,876.0,0.0
R,U,"[5, 10]",1.0,7.0,0.5997130870819092,2.201375961303711,0.5111020188771853,87.0,877.0,0.0
R,U,"[4, 10]",1.0,8.0,0.29087400436401367,1.8924880027770996,0.5036653417633161,87.0,878.0,0.0
B,L,"[4, 9]",1.0,9.0,0.35747814178466797,1.9368808269500732,0.4739603200392513,87.0,879.0,0.0
R,U,"[3, 9]",1.0,10.0,0.2435750961303711,1.97819185256958,0.6354400752632725,87.0,880.0,0.0
,,"(6, 6)",,,,,,,,
R,U,"[5, 6]",1.0,1.0,0.6123878955841064,3.842615842819214,0.6613641588775848,88.0,881.0,0.0
Y,R,"[5, 7]",1.0,2.0,0.2380990982055664,1.8813130855560303,0.5428253513011818,88.0,882.0,0.0
Y,R,"[5, 8]",1.0,3.0,0.2298879623413086,1.8605639934539795,0.5367214900377013,88.0,883.0,0.0
G,D,"[6, 8]",1.0,4.0,0.24593305587768555,1.829028844833374,0.48256731891078974,88.0,884.0,0.0
Y,R,"[6, 9]",1.0,5.0,0.22881412506103516,1.9698247909545898,0.6355640899493342,88.0,885.0,0.0
Y,R,"[6, 10]",1.0,6.0,0.2642831802368164,1.7923328876495361,0.42812505845501675,88.0,886.0,0.0
R,U,"[5, 10]",1.0,7.0,0.35895586013793945,2.100116014480591,0.6448169802095755,88.0,887.0,0.0
R,U,"[4, 10]",1.0,8.0,0.2991909980773926,1.6841399669647217,0.2959677825131801,88.0,888.0,0.0
B,L,"[4, 9]",1.0,9.0,0.3537728786468506,1.887279987335205,0.41639271966970626,88.0,889.0,0.0
R,U,"[3, 9]",1.0,10.0,0.21780705451965332,1.8653740882873535,0.5484997747675089,88.0,890.0,0.0
,,"(6, 6)",,,,,,,,
R,U,"[5, 6]",1.0,1.0,0.6499240398406982,5.8293211460113525,0.4282763197215432,89.0,891.0,0.0
Y,R,"[5, 7]",1.0,2.0,0.3030369281768799,1.77760910987854,0.3889403334783811,89.0,892.0,0.0
Y,R,"[5, 8]",1.0,3.0,0.27060699462890625,1.6391239166259766,0.26154391318237175,89.0,893.0,0.0
G,D,"[6, 8]",1.0,4.0,0.37161803245544434,2.0158579349517822,0.5439357704396284,89.0,894.0,0.0
Y,R,"[6, 9]",-1.0,4.0,0.04262804985046387,5.427855968475342,0.2554423394819536,89.0,895.0,0.0
Y,R,"[6, 10]",1.0,5.0,0.3265409469604492,2.044607162475586,0.6164465862155561,89.0,896.0,0.0
R,U,"[5, 10]",-1.0,5.0,0.00786900520324707,5.6300060749053955,0.49666959987928927,89.0,897.0,0.0
R,U,"[4, 10]",1.0,6.0,0.5255649089813232,2.151466131210327,0.5147767182571007,89.0,898.0,0.0
B,L,"[4, 9]",1.0,7.0,0.2814610004425049,1.8552510738372803,0.47009334987968615,89.0,899.0,0.0
R,U,"[3, 9]",1.0,8.0,0.2991969585418701,1.9866821765899658,0.5900964610083461,89.0,900.0,0.0
,,"(6, 6)",,,,,,,,
R,U,"[5, 6]",1.0,1.0,0.5592348575592041,3.343893051147461,0.5841144937435858,90.0,901.0,0.0
Y,R,"[5, 7]",1.0,2.0,0.377763032913208,2.025719165802002,0.5432162749482022,90.0,902.0,0.0
Y,R,"[5, 8]",1.0,3.0,0.25485801696777344,1.9759349822998047,0.619147733787752,90.0,903.0,0.0
G,D,"[6, 8]",1.0,4.0,0.2675759792327881,1.6487300395965576,0.2847658880643235,90.0,904.0,0.0
Y,R,"[6, 9]",1.0,5.0,0.2975649833679199,2.14717698097229,0.7482246232428278,90.0,905.0,0.0
Y,R,"[6, 10]",1.0,6.0,0.27287888526916504,2.0614819526672363,0.6764241536736328,90.0,906.0,0.0
R,U,"[5, 10]",1.0,7.0,0.47778820991516113,2.2309930324554443,0.6573561086659768,90.0,907.0,0.0
R,U,"[4, 10]",1.0,8.0,0.47252416610717773,1.9763801097869873,0.4008540281908422,90.0,908.0,0.0
B,L,"[4, 9]",1.0,9.0,0.4392249584197998,2.008726119995117,0.45955420950535286,90.0,909.0,0.0
R,U,"[3, 9]",1.0,10.0,0.44428586959838867,1.9634511470794678,0.4230891618028563,90.0,910.0,0.0
,,"(6, 6)",,,,,,,,
R,U,"[5, 6]",1.0,1.0,0.3583719730377197,15.287827968597412,0.5277572732781437,91.0,911.0,0.0
Y,R,"[5, 7]",1.0,2.0,0.2410600185394287,1.8345389366149902,0.49559907544106446,91.0,912.0,0.0
Y,R,"[5, 8]",1.0,3.0,0.3558049201965332,1.7045588493347168,0.2504011920506823,91.0,913.0,0.0
G,D,"[6, 8]",1.0,4.0,0.3571169376373291,2.0348339080810547,0.5682909833386144,91.0,914.0,0.0
Y,R,"[6, 9]",1.0,5.0,0.4568028450012207,2.2805659770965576,0.7154583407654883,91.0,915.0,0.0
Y,R,"[6, 10]",1.0,6.0,0.36139893531799316,2.1140170097351074,0.6462030438968132,91.0,916.0,0.0
R,U,"[5, 10]",1.0,7.0,0.416841983795166,1.9599199295043945,0.43974463974729944,91.0,917.0,0.0
R,U,"[4, 10]",1.0,8.0,0.512221097946167,1.9371519088745117,0.3271812529073476,91.0,918.0,0.0
B,L,"[4, 9]",1.0,9.0,0.3508319854736328,1.9199869632720947,0.4803912903145871,91.0,919.0,0.0
R,U,"[3, 9]",1.0,10.0,0.35332298278808594,1.8141520023345947,0.3612689872488552,91.0,920.0,0.0
,,"(6, 6)",,,,,,,,
R,U,"[5, 6]",1.0,1.0,0.46930503845214844,2.6164000034332275,0.3112056572575745,92.0,921.0,0.0
Y,R,"[5, 7]",1.0,2.0,0.4353020191192627,2.1184442043304443,0.5960349330444219,92.0,922.0,0.0
Y,R,"[5, 8]",1.0,3.0,0.43977999687194824,1.9001541137695312,0.34633036825234087,92.0,923.0,0.0
G,D,"[6, 8]",1.0,4.0,0.3388190269470215,1.7953670024871826,0.3418040195165228,92.0,924.0,0.0
Y,R,"[6, 9]",1.0,5.0,0.30736303329467773,2.0959010124206543,0.6873713389284638,92.0,925.0,0.0
Y,R,"[6, 10]",1.0,6.0,0.4091038703918457,2.0954790115356445,0.5829534965377077,92.0,926.0,0.0
R,U,"[5, 10]",1.0,7.0,0.3825840950012207,2.0827488899230957,0.5991862100700511,92.0,927.0,0.0
R,U,"[4, 10]",1.0,8.0,0.2774050235748291,1.7776801586151123,0.39362563909872594,92.0,928.0,0.0
B,L,"[4, 9]",1.0,9.0,0.3795430660247803,1.9860150814056396,0.5127377934853168,92.0,929.0,0.0
R,U,"[3, 9]",1.0,10.0,0.20472002029418945,1.585576057434082,0.2821103567290173,92.0,930.0,0.0
,,"(6, 6)",,,,,,,,
R,U,"[5, 6]",1.0,1.0,0.48775696754455566,3.540097951889038,0.7385215020889959,93.0,931.0,0.0
Y,R,"[5, 7]",1.0,2.0,0.2911961078643799,2.142354965209961,0.7476133992166609,93.0,932.0,0.0
Y,R,"[5, 8]",1.0,3.0,0.2413160800933838,1.8956239223480225,0.5434286220093408,93.0,933.0,0.0
G,D,"[6, 8]",1.0,4.0,0.38213491439819336,1.954988956451416,0.4818474354678759,93.0,934.0,0.0
Y,R,"[6, 9]",1.0,5.0,0.28247499465942383,1.9840919971466064,0.599154698799382,93.0,935.0,0.0
Y,R,"[6, 10]",1.0,6.0,0.2552640438079834,1.9144420623779297,0.5470375522467882,93.0,936.0,0.0
R,U,"[5, 10]",1.0,7.0,0.33149194717407227,1.8776330947875977,0.44150248501210193,93.0,937.0,0.0
R,U,"[4, 10]",1.0,8.0,0.30594587326049805,1.9722671508789062,0.5802790251045391,93.0,938.0,0.0
Y,R,"[4, 11]",0.0,8.0,0.25877809524536133,1.7794229984283447,0.4099914065611678,93.0,939.0,0.0
R,U,"[3, 11]",0.0,8.0,0.34006714820861816,2.02573299407959,0.585475745365281,93.0,940.0,0.0
,,"(6, 6)",,,,,,,,
R,U,"[5, 6]",1.0,1.0,0.4883248805999756,5.5400919914245605,0.7089122149670903,94.0,941.0,0.0
Y,R,"[5, 7]",1.0,2.0,0.27474212646484375,2.0598859786987305,0.6858376603147799,94.0,942.0,0.0
Y,R,"[5, 8]",1.0,3.0,0.5931291580200195,2.1120340824127197,0.4144775476462488,94.0,943.0,0.0
G,D,"[6, 8]",1.0,4.0,0.4126749038696289,1.8559200763702393,0.33722142849436704,94.0,944.0,0.0
Y,R,"[6, 9]",1.0,5.0,0.2853519916534424,2.083847999572754,0.7044306594686531,94.0,945.0,0.0
Y,R,"[6, 10]",1.0,6.0,0.222883939743042,1.8805460929870605,0.5515281600676479,94.0,946.0,0.0
R,U,"[5, 10]",1.0,7.0,0.5060160160064697,2.1358730792999268,0.5207814723963669,94.0,947.0,0.0
R,U,"[4, 10]",1.0,8.0,0.24444007873535156,1.7925031185150146,0.4465980900958628,94.0,948.0,0.0
B,L,"[4, 9]",1.0,9.0,0.3959169387817383,1.7543659210205078,0.25121811155767465,94.0,949.0,0.0
R,U,"[3, 9]",1.0,10.0,0.3385930061340332,1.7289538383483887,0.2802401467907723,94.0,950.0,0.0
,,"(6, 6)",,,,,,,,
Y,R,"[6, 7]",0.0,0.0,0.5779838562011719,2.561041831970215,0.39116254761576147,95.0,951.0,0.0
R,U,"[5, 7]",1.0,1.0,0.6696910858154297,2.438607931137085,0.6794543175691072,95.0,952.0,0.0
Y,R,"[5, 8]",1.0,2.0,0.21887612342834473,1.7300798892974854,0.4097788160592291,95.0,953.0,0.0
Y,R,"[5, 9]",0.0,2.0,0.264415979385376,1.639301061630249,0.2827520413410181,95.0,954.0,0.0
G,D,"[6, 9]",1.0,3.0,0.18323588371276855,1.825989007949829,0.5419225564007897,95.0,955.0,0.0
Y,R,"[6, 10]",1.0,4.0,0.221513032913208,1.7958910465240479,0.4878884648109892,95.0,956.0,0.0
Y,R,"[6, 11]",0.0,4.0,0.2753300666809082,1.921349048614502,0.5424624069025128,95.0,957.0,0.0
R,U,"[5, 11]",-1.0,4.0,0.06239199638366699,5.806324005126953,0.6154975286103334,95.0,958.0,0.0
R,U,"[4, 11]",0.0,4.0,0.41081690788269043,2.0275719165802,0.5098574684285803,95.0,959.0,0.0
R,U,"[3, 11]",0.0,4.0,0.411024808883667,1.807178020477295,0.3006000117939302,95.0,960.0,0.0
,,"(6, 6)",,,,,,,,
R,U,"[5, 6]",1.0,1.0,0.47005200386047363,3.6846420764923096,0.4518206055878304,96.0,961.0,0.0
Y,R,"[5, 7]",1.0,2.0,0.3122549057006836,1.8928639888763428,0.4781309971390552,96.0,962.0,0.0
Y,R,"[5, 8]",1.0,3.0,0.31282615661621094,1.758533000946045,0.3535060621519183,96.0,963.0,0.0
G,D,"[6, 8]",1.0,4.0,0.32257819175720215,2.0911240577697754,0.6774679747026029,96.0,964.0,0.0
Y,R,"[6, 9]",1.0,5.0,0.255342960357666,1.6113638877868652,0.25603818248263527,96.0,965.0,0.0
Y,R,"[6, 10]",1.0,6.0,0.38436412811279297,1.8872010707855225,0.4098884747545082,96.0,966.0,0.0
R,U,"[5, 10]",1.0,7.0,0.2861969470977783,1.7269608974456787,0.35358060361967686,96.0,967.0,0.0
R,U,"[4, 10]",1.0,8.0,0.2810180187225342,1.6852748394012451,0.3054628648267639,96.0,968.0,0.0
B,L,"[4, 9]",1.0,9.0,0.3246138095855713,2.164811849594116,0.7364347998198478,96.0,969.0,0.0
R,U,"[3, 9]",1.0,10.0,0.23511409759521484,1.9685449600219727,0.6388045177514237,96.0,970.0,0.0
,,"(6, 6)",,,,,,,,
R,U,"[5, 6]",1.0,1.0,0.6536591053009033,3.710296154022217,0.6323726905368354,97.0,971.0,0.0
Y,R,"[5, 7]",1.0,2.0,0.266909122467041,1.9908931255340576,0.6231914067841986,97.0,972.0,0.0
Y,R,"[5, 8]",1.0,3.0,0.2566649913787842,1.8413770198822021,0.48145772307821416,97.0,973.0,0.0
G,D,"[6, 8]",1.0,4.0,0.3755829334259033,2.20917010307312,0.7237268543473112,97.0,974.0,0.0
Y,R,"[6, 9]",1.0,5.0,0.245499849319458,1.7788660526275635,0.4363719370768378,97.0,975.0,0.0
Y,R,"[6, 10]",1.0,6.0,0.26239490509033203,1.9212899208068848,0.5573557836112231,97.0,976.0,0.0
R,U,"[5, 10]",1.0,7.0,0.2847309112548828,1.6345810890197754,0.25904847178125295,97.0,977.0,0.0
R,U,"[4, 10]",1.0,8.0,0.28838610649108887,1.997894048690796,0.6066303905972055,97.0,978.0,0.0
B,L,"[4, 9]",1.0,9.0,0.25446295738220215,1.8024308681488037,0.45925048669597196,97.0,979.0,0.0
R,U,"[3, 9]",1.0,10.0,0.27280497550964355,1.8505849838256836,0.47659700574723407,97.0,980.0,0.0
,,"(6, 6)",,,,,,,,
R,U,"[5, 6]",1.0,1.0,0.5657808780670166,3.351228952407837,0.4111246586836097,98.0,981.0,0.0
Y,R,"[5, 7]",1.0,2.0,0.2777719497680664,1.891765832901001,0.5194596882005618,98.0,982.0,0.0
Y,R,"[5, 8]",1.0,3.0,0.2267460823059082,1.738616943359375,0.4083134906120593,98.0,983.0,0.0
G,D,"[6, 8]",1.0,4.0,0.26584792137145996,1.8693079948425293,0.5107490663362964,98.0,984.0,0.0
Y,R,"[6, 9]",1.0,5.0,0.21401000022888184,1.6510629653930664,0.34543450085328886,98.0,985.0,0.0
Y,R,"[6, 10]",1.0,6.0,0.28846311569213867,2.0363571643829346,0.6649175349202776,98.0,986.0,0.0
R,U,"[5, 10]",1.0,7.0,0.24506020545959473,2.0884499549865723,0.7366544903135578,98.0,987.0,0.0
R,U,"[4, 10]",1.0,8.0,0.4498579502105713,1.823415994644165,0.27722562087662334,98.0,988.0,0.0
B,L,"[4, 9]",1.0,9.0,0.4381980895996094,2.1615710258483887,0.6217281186312197,98.0,989.0,0.0
R,U,"[3, 9]",1.0,10.0,0.47703099250793457,2.0111818313598633,0.4498388803205521,98.0,990.0,0.0
,,"(6, 6)",,,,,,,,
R,U,"[5, 6]",1.0,1.0,0.6808760166168213,3.610381841659546,0.6267031556521356,99.0,991.0,0.0
Y,R,"[5, 7]",1.0,2.0,0.31307506561279297,1.9312288761138916,0.5248936837769587,99.0,992.0,0.0
Y,R,"[5, 8]",1.0,3.0,0.4988129138946533,1.9453010559082031,0.35369813310324094,99.0,993.0,0.0
G,D,"[6, 8]",1.0,4.0,0.43869686126708984,2.135654926300049,0.5890855230122914,99.0,994.0,0.0
Y,R,"[6, 9]",1.0,5.0,0.44565892219543457,1.9875848293304443,0.4432612495153579,99.0,995.0,0.0
Y,R,"[6, 10]",1.0,6.0,0.5242810249328613,2.26495099067688,0.6416377338411215,99.0,996.0,0.0
R,U,"[5, 10]",1.0,7.0,0.3651440143585205,1.9743890762329102,0.5161747032724957,99.0,997.0,0.0
R,U,"[4, 10]",1.0,8.0,0.43256592750549316,2.1267800331115723,0.5929921982897715,99.0,998.0,0.0
B,L,"[4, 9]",1.0,9.0,0.4618558883666992,2.0388970375061035,0.4820210278907564,99.0,999.0,0.0
R,U,"[3, 9]",1.0,10.0,0.28072500228881836,2.067176103591919,0.6821961283005513,99.0,1000.0,0.0
