button_choice,action_choice,coordinate_choice,reward,cumulative_reward,rt,total_trial_time,iti,block_n,trial_n,trial_type
B,L,"[6, 5]",0.0,0.0,0.7872240543365479,2.309746026992798,0.5104933069062785,0.0,1.0,0.0
Y,R,"[6, 6]",0.0,0.0,0.5007500648498535,1.9022529125213623,0.412854907110795,0.0,2.0,0.0
G,D,"[7, 6]",0.0,0.0,0.3126358985900879,1.969296932220459,0.6485840995899919,0.0,3.0,0.0
R,U,"[6, 6]",0.0,0.0,0.22908306121826172,1.7533011436462402,0.5186139589393954,0.0,4.0,0.0
R,U,"[5, 6]",1.0,1.0,0.4161081314086914,1.9961280822753906,0.5650948436558485,0.0,5.0,0.0
G,D,"[6, 6]",0.0,1.0,0.33515405654907227,2.0652201175689697,0.7134231763321477,0.0,6.0,0.0
B,L,"[6, 5]",0.0,1.0,0.42962193489074707,1.7527570724487305,0.31634042246341115,0.0,7.0,0.0
R,U,"[5, 5]",0.0,1.0,0.3946349620819092,1.9433259963989258,0.5429710985775853,0.0,8.0,0.0
Y,R,"[5, 6]",0.0,1.0,0.6873271465301514,1.9993510246276855,0.3091334024050545,0.0,9.0,0.0
R,U,"[4, 6]",0.0,1.0,0.2583489418029785,1.8169951438903809,0.5591314969468524,0.0,10.0,0.0
,,"(6, 6)",,,,,,0.0,,
R,U,"[5, 6]",1.0,1.0,0.36853599548339844,9.239698886871338,0.43253414172077104,,11.0,0.0
Y,R,"[5, 7]",1.0,2.0,0.38209009170532227,1.9129469394683838,0.5122536467412129,1.0,12.0,0.0
G,D,"[6, 7]",0.0,2.0,0.29813599586486816,2.0089118480682373,0.7208366096150984,1.0,13.0,0.0
G,D,"[7, 7]",0.0,2.0,0.41860008239746094,1.9073898792266846,0.4953742417126246,1.0,14.0,0.0
G,D,"[8, 7]",0.0,2.0,0.3368539810180664,1.599762201309204,0.26207168226595806,1.0,15.0,0.0
B,L,"[8, 6]",0.0,2.0,0.43366289138793945,1.7526240348815918,0.331311395062396,1.0,16.0,0.0
Y,R,"[8, 7]",0.0,2.0,0.2310941219329834,1.5184760093688965,0.28309142918708047,1.0,17.0,0.0
R,U,"[7, 7]",0.0,2.0,0.3007969856262207,1.7378699779510498,0.4374019589066852,1.0,18.0,0.0
G,D,"[8, 7]",0.0,2.0,0.37372303009033203,1.9347021579742432,0.5555949165572394,1.0,19.0,0.0
B,L,"[8, 6]",0.0,2.0,0.314769983291626,1.7053580284118652,0.39451985319816124,1.0,20.0,0.0
,,"(6, 6)",,,,,,1.0,,
R,U,"[5, 6]",1.0,1.0,0.35935115814208984,3.7318642139434814,0.3262180347035379,,21.0,0.0
Y,R,"[5, 7]",1.0,2.0,0.2186598777770996,1.665619134902954,0.44195264491197683,2.0,22.0,0.0
Y,R,"[5, 8]",1.0,3.0,0.2065129280090332,1.576404094696045,0.3683050704133883,2.0,23.0,0.0
Y,R,"[5, 9]",0.0,3.0,0.5048651695251465,1.8611650466918945,0.3462025297470305,2.0,24.0,0.0
G,D,"[6, 9]",1.0,4.0,0.39327096939086914,1.9710791110992432,0.5671353093611902,2.0,25.0,0.0
R,U,"[5, 9]",0.0,4.0,0.48370814323425293,2.1521759033203125,0.6693945523861737,2.0,26.0,0.0
B,L,"[5, 8]",0.0,4.0,0.4037330150604248,1.7081429958343506,0.2944873399086387,2.0,27.0,0.0
B,L,"[5, 7]",0.0,4.0,0.48590087890625,1.9668800830841064,0.49442886013785103,2.0,28.0,0.0
Y,R,"[5, 8]",0.0,4.0,0.23123693466186523,1.5079472064971924,0.2860526978769532,2.0,29.0,0.0
G,D,"[6, 8]",1.0,5.0,0.4736440181732178,2.199294090270996,0.7181894879537747,2.0,30.0,0.0
,,"(6, 6)",,,,,,2.0,,
R,U,"[5, 6]",1.0,1.0,0.2659938335418701,5.632646083831787,0.6345611420208523,,31.0,0.0
Y,R,"[5, 7]",1.0,2.0,0.17663788795471191,1.7622101306915283,0.5800465112129438,3.0,32.0,0.0
Y,R,"[5, 8]",1.0,3.0,0.22883892059326172,1.9568290710449219,0.7201364938440342,3.0,33.0,0.0
G,D,"[6, 8]",1.0,4.0,0.21562695503234863,1.868129014968872,0.655070596626745,3.0,34.0,0.0
G,D,"[7, 8]",0.0,4.0,0.2745850086212158,1.7049000263214111,0.4269152001092068,3.0,35.0,0.0
R,U,"[6, 8]",0.0,4.0,0.6503150463104248,2.163029193878174,0.5232041679425201,3.0,36.0,0.0
G,D,"[7, 8]",0.0,4.0,0.2607100009918213,1.5711429119110107,0.31135303120137,3.0,37.0,0.0
B,L,"[7, 7]",0.0,4.0,0.5631909370422363,2.005654811859131,0.4502327657081144,3.0,38.0,0.0
Y,R,"[7, 8]",0.0,4.0,0.30674195289611816,1.6970410346984863,0.3806500714089719,3.0,39.0,0.0
R,U,"[6, 8]",0.0,4.0,0.34650301933288574,1.8450710773468018,0.4921897537026354,3.0,40.0,0.0
,,"(6, 6)",,,,,,3.0,,
R,U,"[5, 6]",1.0,1.0,0.30219101905822754,4.891823053359985,0.6006142717262908,,41.0,0.0
Y,R,"[5, 7]",1.0,2.0,0.22149109840393066,1.9443280696868896,0.7115825922143377,4.0,42.0,0.0
Y,R,"[5, 8]",1.0,3.0,0.22558808326721191,1.5628290176391602,0.3413407964088742,4.0,43.0,0.0
R,U,"[4, 8]",0.0,3.0,0.516632080078125,2.070590019226074,0.5617881700142948,4.0,44.0,0.0
G,D,"[5, 8]",0.0,3.0,0.5558810234069824,1.9243619441986084,0.36979219164283594,4.0,45.0,0.0
G,D,"[6, 8]",1.0,4.0,0.3356940746307373,1.77305006980896,0.42610996386530303,4.0,46.0,0.0
B,L,"[6, 7]",0.0,4.0,0.6618249416351318,2.063612937927246,0.40649010246515643,4.0,47.0,0.0
G,D,"[7, 7]",0.0,4.0,0.2684929370880127,1.6211888790130615,0.36118999779797695,4.0,48.0,0.0
Y,R,"[7, 8]",0.0,4.0,0.2793300151824951,2.0084590911865234,0.7358901554479695,4.0,49.0,0.0
Y,R,"[7, 9]",0.0,4.0,0.18245601654052734,1.6615111827850342,0.4810870857145867,4.0,50.0,0.0
,,"(6, 6)",,,,,,4.0,,
R,U,"[5, 6]",1.0,1.0,0.26418495178222656,3.35172700881958,0.5659719076883908,,51.0,0.0
Y,R,"[5, 7]",1.0,2.0,0.28372907638549805,1.709825038909912,0.4093067089465052,5.0,52.0,0.0
Y,R,"[5, 8]",1.0,3.0,0.3808259963989258,1.7150449752807617,0.3410272610715791,5.0,53.0,0.0
G,D,"[6, 8]",1.0,4.0,0.3793070316314697,2.0300710201263428,0.6542822571917131,5.0,54.0,0.0
G,D,"[7, 8]",0.0,4.0,0.2270371913909912,1.902623176574707,0.6736231969616271,5.0,55.0,0.0
G,D,"[8, 8]",0.0,4.0,0.19814515113830566,1.7167890071868896,0.5239149614540735,5.0,56.0,0.0
R,U,"[7, 8]",0.0,4.0,0.30537986755371094,1.6609880924224854,0.3517750990421616,5.0,57.0,0.0
B,L,"[7, 7]",0.0,4.0,0.43483686447143555,1.838325023651123,0.40666998214222566,5.0,58.0,0.0
G,D,"[8, 7]",0.0,4.0,0.34453606605529785,1.9863128662109375,0.6428583841311731,5.0,59.0,0.0
G,D,"[9, 7]",0.0,4.0,0.2732830047607422,1.5813219547271729,0.3078151507867038,5.0,60.0,0.0
,,"(6, 6)",,,,,,5.0,,
R,U,"[5, 6]",1.0,1.0,0.38775205612182617,3.6060950756073,0.5970607250699789,,61.0,0.0
Y,R,"[5, 7]",1.0,2.0,0.20573997497558594,1.5599701404571533,0.34058176778552124,6.0,62.0,0.0
Y,R,"[5, 8]",1.0,3.0,0.2774391174316406,1.731977939605713,0.4558172049923644,6.0,63.0,0.0
G,D,"[6, 8]",1.0,4.0,0.28637099266052246,1.9112598896026611,0.6168887044539056,6.0,64.0,0.0
R,U,"[5, 8]",0.0,4.0,0.24344086647033691,1.978637933731079,0.7288738986147336,6.0,65.0,0.0
G,D,"[6, 8]",0.0,4.0,0.21526885032653809,1.5384271144866943,0.31779802124442896,6.0,66.0,0.0
B,L,"[6, 7]",0.0,4.0,0.21626496315002441,1.4717159271240234,0.2562549541143461,6.0,67.0,0.0
Y,R,"[6, 8]",0.0,4.0,0.31656885147094727,1.9420180320739746,0.6311452280910372,6.0,68.0,0.0
G,D,"[7, 8]",0.0,4.0,0.18069005012512207,1.7342309951782227,0.5490441493587194,6.0,69.0,0.0
R,U,"[6, 8]",0.0,4.0,0.4371330738067627,1.79221510887146,0.3412992251882631,6.0,70.0,0.0
,,"(6, 6)",,,,,,6.0,,
R,U,"[5, 6]",1.0,1.0,0.2622201442718506,3.1006150245666504,0.40860413126895156,,71.0,0.0
Y,R,"[5, 7]",1.0,2.0,0.2291548252105713,1.5722570419311523,0.3475626712898289,7.0,72.0,0.0
Y,R,"[5, 8]",1.0,3.0,0.33573293685913086,1.6172521114349365,0.2650470502400765,7.0,73.0,0.0
G,D,"[6, 8]",1.0,4.0,0.30104494094848633,1.8198630809783936,0.501321983843271,7.0,74.0,0.0
Y,R,"[6, 9]",1.0,5.0,0.2447190284729004,1.5748159885406494,0.3263270637985009,7.0,75.0,0.0
G,D,"[7, 9]",0.0,5.0,0.4938678741455078,1.9876110553741455,0.4971773219882283,7.0,76.0,0.0
G,D,"[8, 9]",0.0,5.0,0.2550039291381836,1.8098480701446533,0.5402736999488759,7.0,77.0,0.0
G,D,"[9, 9]",0.0,5.0,0.29596900939941406,1.8082399368286133,0.5152795998852566,7.0,78.0,0.0
G,D,"[10, 9]",0.0,5.0,0.5334360599517822,2.1364448070526123,0.6016583454736606,7.0,79.0,0.0
G,D,"[11, 9]",0.0,5.0,0.4131650924682617,1.9233520030975342,0.5084900609950853,7.0,80.0,0.0
,,"(6, 6)",,,,,,7.0,,
R,U,"[5, 6]",1.0,1.0,0.286592960357666,3.356595039367676,0.6983041817559676,,81.0,0.0
Y,R,"[5, 7]",1.0,2.0,0.2280869483947754,1.525209903717041,0.2906124151898397,8.0,82.0,0.0
G,D,"[6, 7]",0.0,2.0,0.5353710651397705,1.8940420150756836,0.3512184811467448,8.0,83.0,0.0
G,D,"[7, 7]",0.0,2.0,0.20515704154968262,1.7771670818328857,0.5616472875981287,8.0,84.0,0.0
Y,R,"[7, 8]",0.0,2.0,0.2230081558227539,1.632530927658081,0.427530225001041,8.0,85.0,0.0
B,L,"[7, 7]",0.0,2.0,0.39551782608032227,1.9935879707336426,0.6046193362997085,8.0,86.0,0.0
R,U,"[6, 7]",-1.0,2.0,0.01779007911682129,5.654091119766235,0.5088398115583731,8.0,87.0,0.0
R,U,"[5, 7]",0.0,2.0,0.7817590236663818,2.2719790935516357,0.4972886377877103,8.0,88.0,0.0
G,D,"[6, 7]",0.0,2.0,0.4043309688568115,1.936676025390625,0.5173887464666809,8.0,89.0,0.0
B,L,"[6, 6]",0.0,2.0,0.16915392875671387,1.9140350818634033,0.7312373679361269,8.0,90.0,0.0
,,"(6, 6)",,,,,,8.0,,
R,U,"[5, 6]",1.0,1.0,0.3649311065673828,3.202331066131592,0.6173004158499393,,91.0,0.0
Y,R,"[5, 7]",1.0,2.0,0.23819804191589355,1.9420268535614014,0.7091735900654081,9.0,92.0,0.0
Y,R,"[5, 8]",1.0,3.0,0.2174670696258545,1.5312957763671875,0.3075558794652166,9.0,93.0,0.0
G,D,"[6, 8]",1.0,4.0,0.6082441806793213,2.0880239009857178,0.47880181125889293,9.0,94.0,0.0
Y,R,"[6, 9]",1.0,5.0,0.2921309471130371,1.9667057991027832,0.6786457805574875,9.0,95.0,0.0
B,L,"[6, 8]",0.0,5.0,0.31833386421203613,1.680901050567627,0.3766644820974238,9.0,96.0,0.0
G,D,"[7, 8]",0.0,5.0,0.8010778427124023,2.512799024581909,0.7223985408720253,9.0,97.0,0.0
G,D,"[8, 8]",0.0,5.0,0.21462798118591309,1.8071670532226562,0.596256044140647,9.0,98.0,0.0
R,U,"[7, 8]",0.0,5.0,0.2188711166381836,1.5162968635559082,0.2962203953374739,9.0,99.0,0.0
R,U,"[6, 8]",0.0,5.0,0.2442610263824463,1.6406948566436768,0.386503080705485,9.0,100.0,0.0
,,"(6, 6)",,,,,,9.0,,
R,U,"[5, 6]",1.0,1.0,0.40878987312316895,4.304394006729126,0.40798123677496856,,101.0,0.0
Y,R,"[5, 7]",1.0,2.0,0.20003581047058105,1.7932062149047852,0.5848252194816237,10.0,102.0,0.0
Y,R,"[5, 8]",1.0,3.0,0.2123880386352539,1.6859040260314941,0.47048891024234374,10.0,103.0,0.0
G,D,"[6, 8]",1.0,4.0,0.30265212059020996,1.7857551574707031,0.4724092304581904,10.0,104.0,0.0
Y,R,"[6, 9]",1.0,5.0,0.34467601776123047,1.785871982574463,0.4421623857053815,10.0,105.0,0.0
Y,R,"[6, 10]",1.0,6.0,0.26421189308166504,1.867196798324585,0.5924533442262239,10.0,106.0,0.0
B,L,"[6, 9]",0.0,6.0,0.4976999759674072,1.8529880046844482,0.36244234926514496,10.0,107.0,0.0
Y,R,"[6, 10]",0.0,6.0,0.5277450084686279,2.083838939666748,0.5623188884389412,10.0,108.0,0.0
G,D,"[7, 10]",0.0,6.0,0.21089696884155273,1.6668639183044434,0.4465352426707422,10.0,109.0,0.0
R,U,"[6, 10]",0.0,6.0,0.2735872268676758,2.0156729221343994,0.7453276073677153,10.0,110.0,0.0
,,"(6, 6)",,,,,,10.0,,
R,U,"[5, 6]",1.0,1.0,0.23101305961608887,5.480325222015381,0.25906513241949564,,111.0,0.0
Y,R,"[5, 7]",1.0,2.0,0.40610384941101074,2.1412150859832764,0.7337722109639944,11.0,112.0,0.0
Y,R,"[5, 8]",1.0,3.0,0.19629788398742676,1.8143830299377441,0.6147834031558687,11.0,113.0,0.0
G,D,"[6, 8]",1.0,4.0,0.22963809967041016,1.981715202331543,0.7465311296268715,11.0,114.0,0.0
Y,R,"[6, 9]",1.0,5.0,0.22536516189575195,1.56489896774292,0.3284556610091142,11.0,115.0,0.0
Y,R,"[6, 10]",1.0,6.0,0.3442840576171875,1.612835168838501,0.2748610965024322,11.0,116.0,0.0
R,U,"[5, 10]",1.0,7.0,0.3627901077270508,1.9197871685028076,0.5608180703952588,11.0,117.0,0.0
R,U,"[4, 10]",1.0,8.0,0.41715478897094727,2.078160047531128,0.6555189739346177,11.0,118.0,0.0
R,U,"[3, 10]",0.0,8.0,0.4059450626373291,2.090009927749634,0.6791733404003837,11.0,119.0,0.0
R,U,"[2, 10]",0.0,8.0,0.4361598491668701,1.7477359771728516,0.2940672613143204,11.0,120.0,0.0
,,"(6, 6)",,,,,,11.0,,
R,U,"[5, 6]",1.0,1.0,0.26843786239624023,4.08338189125061,0.27735941865232666,,121.0,0.0
Y,R,"[5, 7]",1.0,2.0,0.2178030014038086,1.766733169555664,0.5437609432680746,12.0,122.0,0.0
Y,R,"[5, 8]",1.0,3.0,0.21790599822998047,1.912682056427002,0.6894514453558437,12.0,123.0,0.0
G,D,"[6, 8]",1.0,4.0,0.21048593521118164,1.632871150970459,0.4228298698015677,12.0,124.0,0.0
Y,R,"[6, 9]",1.0,5.0,0.32007598876953125,1.8197369575500488,0.5091449268538872,12.0,125.0,0.0
Y,R,"[6, 10]",1.0,6.0,0.30083608627319336,1.8057620525360107,0.4982333836466433,12.0,126.0,0.0
G,D,"[7, 10]",0.0,6.0,0.23142719268798828,1.8487029075622559,0.6135023765624719,12.0,127.0,0.0
G,D,"[8, 10]",0.0,6.0,0.3100309371948242,2.019887924194336,0.6999665499053629,12.0,128.0,0.0
R,U,"[7, 10]",0.0,6.0,0.20429110527038574,1.702143907546997,0.48536444952148944,12.0,129.0,0.0
B,L,"[7, 9]",0.0,6.0,0.37343692779541016,1.9648301601409912,0.583771448357022,12.0,130.0,0.0
,,"(6, 6)",,,,,,12.0,,
R,U,"[5, 6]",1.0,1.0,0.3061840534210205,3.2895150184631348,0.5901840775788875,,131.0,0.0
Y,R,"[5, 7]",1.0,2.0,0.21060395240783691,1.568627119064331,0.35903874738048935,13.0,132.0,0.0
Y,R,"[5, 8]",1.0,3.0,0.2248389720916748,1.5600759983062744,0.3357202156278545,13.0,133.0,0.0
G,D,"[6, 8]",1.0,4.0,0.25525999069213867,1.7611939907073975,0.49687489885329106,13.0,134.0,0.0
Y,R,"[6, 9]",1.0,5.0,0.20671415328979492,1.9143669605255127,0.6942872915243135,13.0,135.0,0.0
Y,R,"[6, 10]",1.0,6.0,0.20180511474609375,1.710860013961792,0.5051150486905303,13.0,136.0,0.0
R,U,"[5, 10]",1.0,7.0,0.3109610080718994,1.8061470985412598,0.4951185683441451,13.0,137.0,0.0
G,D,"[6, 10]",0.0,7.0,0.30118894577026367,1.7061378955841064,0.4182052789851403,13.0,138.0,0.0
R,U,"[5, 10]",0.0,7.0,0.2186269760131836,1.892374038696289,0.6768688741180533,13.0,139.0,0.0
B,L,"[5, 9]",0.0,7.0,0.862285852432251,2.4284608364105225,0.5720434416214197,13.0,140.0,0.0
,,"(6, 6)",,,,,,13.0,,
R,U,"[5, 6]",1.0,1.0,0.3123488426208496,3.527292013168335,0.7492923435005727,,141.0,0.0
Y,R,"[5, 7]",1.0,2.0,0.20664596557617188,1.6060600280761719,0.38874525897485923,14.0,142.0,0.0
Y,R,"[5, 8]",1.0,3.0,0.22713804244995117,1.5042831897735596,0.2601292327496136,14.0,143.0,0.0
G,D,"[6, 8]",1.0,4.0,0.37293410301208496,1.9064810276031494,0.5497074819530875,14.0,144.0,0.0
Y,R,"[6, 9]",1.0,5.0,0.2173290252685547,1.9547719955444336,0.7209307551023045,14.0,145.0,0.0
Y,R,"[6, 10]",1.0,6.0,0.1661818027496338,1.4402680397033691,0.26152414439921284,14.0,146.0,0.0
R,U,"[5, 10]",1.0,7.0,0.34210991859436035,2.0703210830688477,0.7483112347137714,14.0,147.0,0.0
Y,R,"[5, 11]",0.0,7.0,0.24680089950561523,1.6658861637115479,0.414567604771922,14.0,148.0,0.0
B,L,"[5, 10]",0.0,7.0,0.18219995498657227,1.4648950099945068,0.2794743266381998,14.0,149.0,0.0
B,L,"[5, 9]",0.0,7.0,0.20966792106628418,1.7199170589447021,0.49896002608816564,14.0,150.0,0.0
,,"(6, 6)",,,,,,14.0,,
R,U,"[5, 6]",1.0,1.0,0.21879291534423828,2.89217209815979,0.44144878489964273,,151.0,0.0
Y,R,"[5, 7]",1.0,2.0,0.19974017143249512,1.5786621570587158,0.3703356131542262,15.0,152.0,0.0
Y,R,"[5, 8]",1.0,3.0,0.19748520851135254,1.7875421047210693,0.5909044283930298,15.0,153.0,0.0
G,D,"[6, 8]",1.0,4.0,0.17208504676818848,1.514611005783081,0.3391666570409315,15.0,154.0,0.0
Y,R,"[6, 9]",1.0,5.0,0.1974930763244629,1.6399052143096924,0.42902498537275713,15.0,155.0,0.0
Y,R,"[6, 10]",1.0,6.0,0.2062368392944336,1.7762749195098877,0.571783869801872,15.0,156.0,0.0
R,U,"[5, 10]",1.0,7.0,0.22399592399597168,1.684870958328247,0.45675711768041055,15.0,157.0,0.0
B,L,"[5, 9]",0.0,7.0,0.20363116264343262,1.9009020328521729,0.7074876225376081,15.0,158.0,0.0
B,L,"[5, 8]",-1.0,7.0,0.054705142974853516,5.559493064880371,0.3839513448568118,15.0,159.0,0.0
B,L,"[5, 7]",0.0,7.0,0.30237889289855957,2.037325143814087,0.7211350450244651,15.0,160.0,0.0
,,"(6, 6)",,,,,,15.0,,
R,U,"[5, 6]",1.0,1.0,0.23058295249938965,2.9230709075927734,0.5443156743671551,,161.0,0.0
Y,R,"[5, 7]",1.0,2.0,0.2035841941833496,1.6872668266296387,0.481868496503521,16.0,162.0,0.0
Y,R,"[5, 8]",1.0,3.0,0.21349000930786133,1.9515049457550049,0.733030867924357,16.0,163.0,0.0
G,D,"[6, 8]",1.0,4.0,0.2485661506652832,1.8154270648956299,0.5653077086283439,16.0,164.0,0.0
Y,R,"[6, 9]",1.0,5.0,0.22893881797790527,1.9278438091278076,0.6931709343163912,16.0,165.0,0.0
Y,R,"[6, 10]",1.0,6.0,0.212507963180542,1.521420955657959,0.31496917045305706,16.0,166.0,0.0
R,U,"[5, 10]",1.0,7.0,0.3540830612182617,2.0268771648406982,0.6582004483080485,16.0,167.0,0.0
R,U,"[4, 10]",1.0,8.0,0.21945500373840332,1.7408521175384521,0.5159181625663194,16.0,168.0,0.0
R,U,"[3, 10]",0.0,8.0,0.28453898429870605,1.7268409729003906,0.4426435064252686,16.0,169.0,0.0
G,D,"[4, 10]",0.0,8.0,0.3829350471496582,1.970672845840454,0.5965481769336248,16.0,170.0,0.0
,,"(6, 6)",,,,,,16.0,,
R,U,"[5, 6]",1.0,1.0,0.2669870853424072,2.809654951095581,0.2568445454124804,,171.0,0.0
Y,R,"[5, 7]",1.0,2.0,0.25587010383605957,1.9271879196166992,0.6668796728178854,17.0,172.0,0.0
Y,R,"[5, 8]",1.0,3.0,0.2256488800048828,1.8123431205749512,0.5793201039680951,17.0,173.0,0.0
G,D,"[6, 8]",1.0,4.0,0.2048490047454834,1.5041611194610596,0.2837714894170555,17.0,174.0,0.0
Y,R,"[6, 9]",1.0,5.0,0.23888587951660156,1.5864169597625732,0.33674797513938554,17.0,175.0,0.0
Y,R,"[6, 10]",1.0,6.0,0.2276599407196045,1.76715087890625,0.5369481105708043,17.0,176.0,0.0
R,U,"[5, 10]",1.0,7.0,0.208388090133667,1.757220983505249,0.5444521376922773,17.0,177.0,0.0
R,U,"[4, 10]",1.0,8.0,0.1993269920349121,1.5913219451904297,0.38595212282808483,17.0,178.0,0.0
Y,R,"[4, 11]",0.0,8.0,0.2552778720855713,1.8729939460754395,0.6085698878499783,17.0,179.0,0.0
B,L,"[4, 10]",0.0,8.0,0.1684870719909668,1.4894862174987793,0.3317035922144079,17.0,180.0,0.0
,,"(6, 6)",,,,,,17.0,,
R,U,"[5, 6]",1.0,1.0,0.22794485092163086,3.0079801082611084,0.4894941283414867,,181.0,0.0
Y,R,"[5, 7]",1.0,2.0,0.21680498123168945,1.6905860900878906,0.4635803587617623,18.0,182.0,0.0
Y,R,"[5, 8]",1.0,3.0,0.22671914100646973,1.7231719493865967,0.4866557693836402,18.0,183.0,0.0
G,D,"[6, 8]",1.0,4.0,0.23300409317016602,1.5496149063110352,0.3033888624354729,18.0,184.0,0.0
Y,R,"[6, 9]",1.0,5.0,0.22121310234069824,1.9122250080108643,0.6821245068952471,18.0,185.0,0.0
Y,R,"[6, 10]",1.0,6.0,0.21869993209838867,1.752148151397705,0.5173568480846241,18.0,186.0,0.0
R,U,"[5, 10]",1.0,7.0,0.27144694328308105,1.798022985458374,0.5154692025000178,18.0,187.0,0.0
R,U,"[4, 10]",1.0,8.0,0.24873685836791992,1.5826928615570068,0.3149628769375099,18.0,188.0,0.0
B,L,"[4, 9]",1.0,9.0,0.4452810287475586,1.7287118434906006,0.27715993247330595,18.0,189.0,0.0
B,L,"[4, 8]",0.0,9.0,0.365710973739624,1.8271470069885254,0.47086494442607313,18.0,190.0,0.0
,,"(6, 6)",,,,,,18.0,,
R,U,"[5, 6]",1.0,1.0,0.22990703582763672,3.2518861293792725,0.5726416061659257,,191.0,0.0
Y,R,"[5, 7]",1.0,2.0,0.20593881607055664,1.9043450355529785,0.6935521720265443,19.0,192.0,0.0
Y,R,"[5, 8]",1.0,3.0,0.19465088844299316,1.826693058013916,0.6370438344758854,19.0,193.0,0.0
G,D,"[6, 8]",1.0,4.0,0.26505494117736816,1.760763168334961,0.48132693700660967,19.0,194.0,0.0
Y,R,"[6, 9]",1.0,5.0,0.22073101997375488,1.9792580604553223,0.7435995601786709,19.0,195.0,0.0
Y,R,"[6, 10]",1.0,6.0,0.23628902435302734,1.6792070865631104,0.43979399579797224,19.0,196.0,0.0
R,U,"[5, 10]",1.0,7.0,0.34277915954589844,2.0289950370788574,0.685343209089593,19.0,197.0,0.0
R,U,"[4, 10]",1.0,8.0,0.21051907539367676,1.799961805343628,0.5853153242409901,19.0,198.0,0.0
B,L,"[4, 9]",1.0,9.0,0.35675787925720215,1.6545660495758057,0.2902482265874482,19.0,199.0,0.0
Y,R,"[4, 10]",0.0,9.0,0.410632848739624,1.7197270393371582,0.3099464036452935,19.0,200.0,0.0
,,"(6, 6)",,,,,,19.0,,
R,U,"[5, 6]",1.0,1.0,0.2348330020904541,3.4427521228790283,0.6191478739971548,,201.0,0.0
Y,R,"[5, 7]",1.0,2.0,0.23279809951782227,1.776304006576538,0.5288382465811866,20.0,202.0,0.0
Y,R,"[5, 8]",1.0,3.0,0.24673986434936523,1.9683160781860352,0.7137440364356509,20.0,203.0,0.0
G,D,"[6, 8]",1.0,4.0,0.2682790756225586,1.9005179405212402,0.6310508188983583,20.0,204.0,0.0
Y,R,"[6, 9]",1.0,5.0,0.3572721481323242,1.9158940315246582,0.5469522212944078,20.0,205.0,0.0
Y,R,"[6, 10]",1.0,6.0,0.1917271614074707,1.5267360210418701,0.32408468134879276,20.0,206.0,0.0
R,U,"[5, 10]",1.0,7.0,0.47103404998779297,1.91618013381958,0.44034860910937146,20.0,207.0,0.0
R,U,"[4, 10]",1.0,8.0,0.2406001091003418,1.9044020175933838,0.6611547342473324,20.0,208.0,0.0
B,L,"[4, 9]",1.0,9.0,0.28867101669311523,1.6801857948303223,0.3916573886655128,20.0,209.0,0.0
G,D,"[5, 9]",0.0,9.0,0.29355287551879883,1.8987329006195068,0.6062878408958621,20.0,210.0,0.0
,,"(6, 6)",,,,,,20.0,,
R,U,"[5, 6]",1.0,1.0,0.25148510932922363,3.565829038619995,0.7058559036576914,,211.0,0.0
Y,R,"[5, 7]",1.0,2.0,0.2611091136932373,1.9414100646972656,0.6808422350476822,21.0,212.0,0.0
Y,R,"[5, 8]",1.0,3.0,0.18397808074951172,1.9207839965820312,0.7181089337887683,21.0,213.0,0.0
G,D,"[6, 8]",1.0,4.0,0.22545289993286133,1.7202248573303223,0.48856939663628957,21.0,214.0,0.0
Y,R,"[6, 9]",1.0,5.0,0.261760950088501,1.8974719047546387,0.6360398582746286,21.0,215.0,0.0
Y,R,"[6, 10]",1.0,6.0,0.2229900360107422,1.8636491298675537,0.6329634281887463,21.0,216.0,0.0
R,U,"[5, 10]",1.0,7.0,0.22440099716186523,1.5314621925354004,0.2980367882651626,21.0,217.0,0.0
R,U,"[4, 10]",1.0,8.0,0.26787686347961426,1.5964548587799072,0.31101716371615035,21.0,218.0,0.0
B,L,"[4, 9]",1.0,9.0,0.25064706802368164,2.002387046813965,0.7466301237404249,21.0,219.0,0.0
R,U,"[3, 9]",1.0,10.0,0.2590601444244385,1.7569820880889893,0.5037925810206966,21.0,220.0,0.0
,,"(6, 6)",,,,,,21.0,,
R,U,"[5, 6]",1.0,1.0,0.2504119873046875,3.149564027786255,0.5200763745265977,,221.0,0.0
Y,R,"[5, 7]",1.0,2.0,0.19588899612426758,1.7530770301818848,0.5563972152670402,22.0,222.0,0.0
Y,R,"[5, 8]",1.0,3.0,0.17435407638549805,1.6761860847473145,0.4992802930253831,22.0,223.0,0.0
G,D,"[6, 8]",1.0,4.0,0.21222710609436035,1.528447151184082,0.31130522667218513,22.0,224.0,0.0
Y,R,"[6, 9]",1.0,5.0,0.337568998336792,2.048630952835083,0.7095149447355181,22.0,225.0,0.0
Y,R,"[6, 10]",1.0,6.0,0.21637320518493652,1.9503428936004639,0.7266686150750588,22.0,226.0,0.0
R,U,"[5, 10]",1.0,7.0,0.19947504997253418,1.8409020900726318,0.6342549160063486,22.0,227.0,0.0
R,U,"[4, 10]",1.0,8.0,0.2555701732635498,1.6744999885559082,0.40902074262180427,22.0,228.0,0.0
B,L,"[4, 9]",1.0,9.0,0.3248867988586426,1.7769670486450195,0.4526363165310909,22.0,229.0,0.0
R,U,"[3, 9]",1.0,10.0,0.32567310333251953,1.746196985244751,0.4155767740299889,22.0,230.0,0.0
,,"(6, 6)",,,,,,22.0,,
R,U,"[5, 6]",1.0,1.0,0.27631616592407227,2.4467201232910156,0.4122917692547667,,231.0,0.0
Y,R,"[5, 7]",1.0,2.0,0.23353099822998047,1.8379950523376465,0.6000853810337987,23.0,232.0,0.0
Y,R,"[5, 8]",1.0,3.0,0.2216320037841797,1.584259033203125,0.35143511129840743,23.0,233.0,0.0
G,D,"[6, 8]",1.0,4.0,0.32328295707702637,1.8080689907073975,0.47614352759417256,23.0,234.0,0.0
Y,R,"[6, 9]",1.0,5.0,0.18241405487060547,1.5733461380004883,0.38283937435341914,23.0,235.0,0.0
Y,R,"[6, 10]",1.0,6.0,0.204132080078125,1.5835180282592773,0.36661980125968735,23.0,236.0,0.0
R,U,"[5, 10]",1.0,7.0,0.3288860321044922,1.700094223022461,0.36679598412936126,23.0,237.0,0.0
R,U,"[4, 10]",1.0,8.0,0.5017848014831543,2.2293930053710938,0.71229828298944,23.0,238.0,0.0
B,L,"[4, 9]",1.0,9.0,0.22951602935791016,1.7215940952301025,0.48409452147521376,23.0,239.0,0.0
R,U,"[3, 9]",1.0,10.0,0.3140828609466553,2.0498502254486084,0.7338614604635273,23.0,240.0,0.0
,,"(6, 6)",,,,,,23.0,,
R,U,"[5, 6]",1.0,1.0,0.27622008323669434,2.846101999282837,0.6136329964268463,,241.0,0.0
Y,R,"[5, 7]",1.0,2.0,0.1946430206298828,1.4629120826721191,0.2601424801676849,24.0,242.0,0.0
Y,R,"[5, 8]",1.0,3.0,0.23733019828796387,1.911194086074829,0.6709503363810205,24.0,243.0,0.0
G,D,"[6, 8]",1.0,4.0,0.23263287544250488,1.566239833831787,0.33743266661883364,24.0,244.0,0.0
Y,R,"[6, 9]",1.0,5.0,0.21560096740722656,1.9584190845489502,0.7286717085075027,24.0,245.0,0.0
Y,R,"[6, 10]",1.0,6.0,0.2259368896484375,1.7058470249176025,0.4848410877657785,24.0,246.0,0.0
R,U,"[5, 10]",1.0,7.0,0.2418830394744873,1.9878790378570557,0.7391391238783976,24.0,247.0,0.0
R,U,"[4, 10]",1.0,8.0,0.2253410816192627,1.8070127964019775,0.5798939059623037,24.0,248.0,0.0
B,L,"[4, 9]",1.0,9.0,0.25182008743286133,1.6034760475158691,0.33338247955478617,24.0,249.0,0.0
R,U,"[3, 9]",1.0,10.0,0.21452713012695312,1.891618013381958,0.6747723555262564,24.0,250.0,0.0
,,"(6, 6)",,,,,,24.0,,
R,U,"[5, 6]",1.0,1.0,0.25094103813171387,2.91776704788208,0.42624036633309353,,251.0,0.0
Y,R,"[5, 7]",1.0,2.0,0.20760297775268555,1.602997064590454,0.3958573313623473,25.0,252.0,0.0
Y,R,"[5, 8]",1.0,3.0,0.2012019157409668,1.6642470359802246,0.443413883250219,25.0,253.0,0.0
G,D,"[6, 8]",1.0,4.0,0.22606992721557617,1.8182990550994873,0.5949789050541356,25.0,254.0,0.0
Y,R,"[6, 9]",1.0,5.0,0.21373701095581055,1.6542870998382568,0.4494894408484485,25.0,255.0,0.0
Y,R,"[6, 10]",1.0,6.0,0.18499994277954102,1.736325979232788,0.5358128514088744,25.0,256.0,0.0
R,U,"[5, 10]",1.0,7.0,0.20053410530090332,1.4966959953308105,0.28263251738187617,25.0,257.0,0.0
R,U,"[4, 10]",1.0,8.0,0.21175098419189453,1.8963251113891602,0.6786071987955634,25.0,258.0,0.0
B,L,"[4, 9]",1.0,9.0,0.19656991958618164,1.5651359558105469,0.3774235513587196,25.0,259.0,0.0
R,U,"[3, 9]",1.0,10.0,0.3150150775909424,1.603355884552002,0.2975172318070758,25.0,260.0,0.0
,,"(6, 6)",,,,,,25.0,,
R,U,"[5, 6]",1.0,1.0,0.19234395027160645,2.7340290546417236,0.5649668135037631,,261.0,0.0
Y,R,"[5, 7]",1.0,2.0,0.17914295196533203,1.7874128818511963,0.6020053139396484,26.0,262.0,0.0
Y,R,"[5, 8]",1.0,3.0,0.1828460693359375,1.778764009475708,0.5808585338925574,26.0,263.0,0.0
G,D,"[6, 8]",1.0,4.0,0.18263602256774902,1.670565128326416,0.46837513530958036,26.0,264.0,0.0
Y,R,"[6, 9]",1.0,5.0,0.24277400970458984,1.5915591716766357,0.3432164664938807,26.0,265.0,0.0
Y,R,"[6, 10]",1.0,6.0,0.25051403045654297,1.6162090301513672,0.35970041555266435,26.0,266.0,0.0
R,U,"[5, 10]",1.0,7.0,0.20391392707824707,1.8095331192016602,0.602304829473101,26.0,267.0,0.0
R,U,"[4, 10]",1.0,8.0,0.23230600357055664,1.7888689041137695,0.5413545461818268,26.0,268.0,0.0
B,L,"[4, 9]",1.0,9.0,0.26429295539855957,1.740009069442749,0.4812722246181504,26.0,269.0,0.0
R,U,"[3, 9]",1.0,10.0,0.2601161003112793,1.8119800090789795,0.5433050278303694,26.0,270.0,0.0
,,"(6, 6)",,,,,,26.0,,
R,U,"[5, 6]",1.0,1.0,0.29694604873657227,3.013278007507324,0.6065100786554662,,271.0,0.0
Y,R,"[5, 7]",1.0,2.0,0.18786311149597168,1.667388916015625,0.4739190816729543,27.0,272.0,0.0
Y,R,"[5, 8]",1.0,3.0,0.20393705368041992,1.6992030143737793,0.489950226739269,27.0,273.0,0.0
G,D,"[6, 8]",1.0,4.0,0.24296092987060547,1.9306550025939941,0.6869712478525509,27.0,274.0,0.0
Y,R,"[6, 9]",1.0,5.0,0.195173978805542,1.749244213104248,0.5530389028332396,27.0,275.0,0.0
Y,R,"[6, 10]",-1.0,5.0,0.09675097465515137,5.502517938613892,0.27261909387817346,27.0,276.0,0.0
Y,R,"[6, 11]",0.0,5.0,0.3440098762512207,1.8467910289764404,0.5025304779828224,27.0,277.0,0.0
R,U,"[5, 11]",0.0,5.0,0.482036828994751,2.089078903198242,0.6082041615098568,27.0,278.0,0.0
B,L,"[5, 10]",1.0,6.0,0.2357621192932129,1.5967319011688232,0.37201628488048233,27.0,279.0,0.0
R,U,"[4, 10]",1.0,7.0,0.33075499534606934,1.7734119892120361,0.4455192381195864,27.0,280.0,0.0
,,"(6, 6)",,,,,,27.0,,
R,U,"[5, 6]",1.0,1.0,0.24932098388671875,4.9530510902404785,0.36525133379140023,,281.0,0.0
Y,R,"[5, 7]",1.0,2.0,0.3376271724700928,1.7127549648284912,0.36128652199878286,28.0,282.0,0.0
Y,R,"[5, 8]",1.0,3.0,0.26789402961730957,1.9200451374053955,0.6645924939813777,28.0,283.0,0.0
G,D,"[6, 8]",1.0,4.0,0.20756316184997559,1.6242001056671143,0.4056862437949665,28.0,284.0,0.0
Y,R,"[6, 9]",1.0,5.0,0.2339019775390625,1.6642930507659912,0.41994551929075846,28.0,285.0,0.0
Y,R,"[6, 10]",1.0,6.0,0.2134709358215332,1.6511731147766113,0.4377481621449405,28.0,286.0,0.0
R,U,"[5, 10]",1.0,7.0,0.25926804542541504,1.5935001373291016,0.3314100704612695,28.0,287.0,0.0
R,U,"[4, 10]",1.0,8.0,0.18749117851257324,1.6168451309204102,0.41492462456679907,28.0,288.0,0.0
B,L,"[4, 9]",1.0,9.0,0.2287890911102295,1.956861972808838,0.7210435027841666,28.0,289.0,0.0
R,U,"[3, 9]",1.0,10.0,0.20984292030334473,1.7086479663848877,0.4969352680489339,28.0,290.0,0.0
,,"(6, 6)",,,,,,28.0,,
R,U,"[5, 6]",1.0,1.0,0.20773100852966309,3.396646022796631,0.7432946620616021,,291.0,0.0
Y,R,"[5, 7]",1.0,2.0,0.2199079990386963,1.733483076095581,0.5103447296372272,29.0,292.0,0.0
Y,R,"[5, 8]",1.0,3.0,0.21480894088745117,1.5198838710784912,0.28044888377170357,29.0,293.0,0.0
G,D,"[6, 8]",1.0,4.0,0.25963783264160156,1.7412030696868896,0.47182046330318445,29.0,294.0,0.0
Y,R,"[6, 9]",1.0,5.0,0.18617582321166992,1.6731398105621338,0.4783311209596589,29.0,295.0,0.0
Y,R,"[6, 10]",1.0,6.0,0.16852688789367676,1.6836328506469727,0.5282824157799679,29.0,296.0,0.0
R,U,"[5, 10]",1.0,7.0,0.2503468990325928,1.7004258632659912,0.4454609484668477,29.0,297.0,0.0
R,U,"[4, 10]",1.0,8.0,0.21731805801391602,1.9357810020446777,0.7143156408154896,29.0,298.0,0.0
B,L,"[4, 9]",1.0,9.0,0.26148009300231934,1.8936519622802734,0.6250866031630615,29.0,299.0,0.0
R,U,"[3, 9]",1.0,10.0,0.26712989807128906,1.6315579414367676,0.35676423672113544,29.0,300.0,0.0
,,"(6, 6)",,,,,,29.0,,
R,U,"[5, 6]",1.0,1.0,0.2774970531463623,3.3915510177612305,0.6315681310161487,,301.0,0.0
Y,R,"[5, 7]",1.0,2.0,0.19704413414001465,1.6601219177246094,0.45848746550564395,30.0,302.0,0.0
Y,R,"[5, 8]",1.0,3.0,0.23202013969421387,1.8637189865112305,0.6221609248650478,30.0,303.0,0.0
G,D,"[6, 8]",1.0,4.0,0.26937294006347656,1.8791840076446533,0.6010933495912159,30.0,304.0,0.0
Y,R,"[6, 9]",1.0,5.0,0.2412559986114502,1.6519019603729248,0.403154943019055,30.0,305.0,0.0
Y,R,"[6, 10]",1.0,6.0,0.2234201431274414,1.930401086807251,0.7003126643177509,30.0,306.0,0.0
R,U,"[5, 10]",1.0,7.0,0.33127284049987793,1.758073091506958,0.425046040735342,30.0,307.0,0.0
R,U,"[4, 10]",1.0,8.0,0.24805998802185059,1.953679084777832,0.7119193351355144,30.0,308.0,0.0
B,L,"[4, 9]",1.0,9.0,0.25502991676330566,1.7871160507202148,0.5327973326097646,30.0,309.0,0.0
R,U,"[3, 9]",1.0,10.0,0.3520841598510742,2.058079957962036,0.6908546527967994,30.0,310.0,0.0
,,"(6, 6)",,,,,,30.0,,
R,U,"[5, 6]",1.0,1.0,0.328078031539917,3.038090944290161,0.5122603829518766,,311.0,0.0
Y,R,"[5, 7]",1.0,2.0,0.19418787956237793,1.6097371578216553,0.42222394839832983,31.0,312.0,0.0
Y,R,"[5, 8]",1.0,3.0,0.30251121520996094,1.673029899597168,0.3616964201027096,31.0,313.0,0.0
G,D,"[6, 8]",1.0,4.0,0.32169294357299805,1.697922945022583,0.37637009892606776,31.0,314.0,0.0
Y,R,"[6, 9]",1.0,5.0,0.19675803184509277,1.6352131366729736,0.44502346691440176,31.0,315.0,0.0
Y,R,"[6, 10]",1.0,6.0,0.20464801788330078,1.5498480796813965,0.34502774765440114,31.0,316.0,0.0
R,U,"[5, 10]",1.0,7.0,0.24145913124084473,1.5788908004760742,0.3405572772799713,31.0,317.0,0.0
R,U,"[4, 10]",1.0,8.0,0.24624991416931152,1.6123249530792236,0.36955710831090605,31.0,318.0,0.0
B,L,"[4, 9]",1.0,9.0,0.2757580280303955,1.9216570854187012,0.6408747580016386,31.0,319.0,0.0
R,U,"[3, 9]",1.0,10.0,0.27222108840942383,1.7250511646270752,0.44938684366183934,31.0,320.0,0.0
,,"(6, 6)",,,,,,31.0,,
R,U,"[5, 6]",1.0,1.0,0.20257997512817383,2.4876720905303955,0.5204731958358503,,321.0,0.0
Y,R,"[5, 7]",1.0,2.0,0.18772006034851074,1.8091740608215332,0.6130759649451976,32.0,322.0,0.0
Y,R,"[5, 8]",1.0,3.0,0.21804380416870117,1.9655251502990723,0.7284889617172892,32.0,323.0,0.0
G,D,"[6, 8]",1.0,4.0,0.2969551086425781,2.0128509998321533,0.7245836525392058,32.0,324.0,0.0
Y,R,"[6, 9]",1.0,5.0,0.24531984329223633,1.8825981616973877,0.6407372604513022,32.0,325.0,0.0
Y,R,"[6, 10]",1.0,6.0,0.2312018871307373,1.5239851474761963,0.2984498505758428,32.0,326.0,0.0
R,U,"[5, 10]",1.0,7.0,0.36780500411987305,2.004331111907959,0.6191376134795162,32.0,327.0,0.0
R,U,"[4, 10]",1.0,8.0,0.27904200553894043,1.5866200923919678,0.30599703431690195,32.0,328.0,0.0
B,L,"[4, 9]",1.0,9.0,0.38962411880493164,1.8466010093688965,0.4524224401115504,32.0,329.0,0.0
R,U,"[3, 9]",1.0,10.0,0.3588440418243408,1.7980761528015137,0.43382971104348106,32.0,330.0,0.0
,,"(6, 6)",,,,,,32.0,,
R,U,"[5, 6]",1.0,1.0,0.1808488368988037,2.3879339694976807,0.3551810312212404,,331.0,0.0
Y,R,"[5, 7]",1.0,2.0,0.317371129989624,1.966662883758545,0.6384784418989348,33.0,332.0,0.0
Y,R,"[5, 8]",1.0,3.0,0.20882105827331543,1.6065559387207031,0.39524419024953766,33.0,333.0,0.0
G,D,"[6, 8]",1.0,4.0,0.34503984451293945,1.7748711109161377,0.43652901137952066,33.0,334.0,0.0
Y,R,"[6, 9]",1.0,5.0,0.24358105659484863,1.7578580379486084,0.5110891829698916,33.0,335.0,0.0
Y,R,"[6, 10]",1.0,6.0,0.22977805137634277,1.93440580368042,0.7119627613620971,33.0,336.0,0.0
R,U,"[5, 10]",1.0,7.0,0.357745885848999,1.826380968093872,0.4886463189001814,33.0,337.0,0.0
R,U,"[4, 10]",-1.0,7.0,0.06863903999328613,5.525552034378052,0.33107328484448756,33.0,338.0,0.0
R,U,"[3, 10]",0.0,7.0,0.434952974319458,1.7458879947662354,0.3106324150007697,33.0,339.0,0.0
B,L,"[3, 9]",1.0,8.0,0.37268900871276855,1.8959438800811768,0.5229598127967887,33.0,340.0,0.0
,,"(6, 6)",,,,,,33.0,,
R,U,"[5, 6]",1.0,1.0,0.788485050201416,6.6425840854644775,0.5821155798870918,,341.0,0.0
Y,R,"[5, 7]",1.0,2.0,0.2522120475769043,1.7090668678283691,0.4578855722937235,34.0,342.0,0.0
Y,R,"[5, 8]",1.0,3.0,0.26299095153808594,1.957763910293579,0.6988452408743231,34.0,343.0,0.0
G,D,"[6, 8]",1.0,4.0,0.34441709518432617,1.7881050109863281,0.4372485287555352,34.0,344.0,0.0
Y,R,"[6, 9]",1.0,5.0,0.29926109313964844,2.023650884628296,0.7106509360395921,34.0,345.0,0.0
Y,R,"[6, 10]",1.0,6.0,0.38254594802856445,1.8990020751953125,0.526422849349416,34.0,346.0,0.0
R,U,"[5, 10]",1.0,7.0,0.5835940837860107,2.205009937286377,0.6147888916479274,34.0,347.0,0.0
R,U,"[4, 10]",1.0,8.0,0.37201809883117676,1.8613598346710205,0.47628200831945194,34.0,348.0,0.0
B,L,"[4, 9]",1.0,9.0,0.33307790756225586,1.7271580696105957,0.4035820199504454,34.0,349.0,0.0
R,U,"[3, 9]",1.0,10.0,0.4766390323638916,1.7936041355133057,0.31413711969799474,34.0,350.0,0.0
,,"(6, 6)",,,,,,34.0,,
R,U,"[5, 6]",1.0,1.0,0.2311570644378662,4.164975881576538,0.7286421361610727,,351.0,0.0
Y,R,"[5, 7]",1.0,2.0,0.2640340328216553,1.8097710609436035,0.5386500354492159,35.0,352.0,0.0
Y,R,"[5, 8]",1.0,3.0,0.2455129623413086,1.5671679973602295,0.3226796036876662,35.0,353.0,0.0
G,D,"[6, 8]",1.0,4.0,0.3929421901702881,1.9361748695373535,0.5420083280125486,35.0,354.0,0.0
Y,R,"[6, 9]",1.0,5.0,0.2675299644470215,1.8152961730957031,0.540153991733155,35.0,355.0,0.0
Y,R,"[6, 10]",1.0,6.0,0.1938619613647461,1.7693350315093994,0.5766358013580593,35.0,356.0,0.0
R,U,"[5, 10]",1.0,7.0,0.26560187339782715,1.9105679988861084,0.6371090610426098,35.0,357.0,0.0
R,U,"[4, 10]",1.0,8.0,0.17733502388000488,1.6356139183044434,0.45630859980865773,35.0,358.0,0.0
B,L,"[4, 9]",1.0,9.0,0.2883639335632324,1.710798978805542,0.41717167676311334,35.0,359.0,0.0
R,U,"[3, 9]",1.0,10.0,0.21697688102722168,1.707547903060913,0.4749368386530387,35.0,360.0,0.0
,,"(6, 6)",,,,,,35.0,,
R,U,"[5, 6]",1.0,1.0,0.1876070499420166,2.9263579845428467,0.5843140093140502,,361.0,0.0
Y,R,"[5, 7]",1.0,2.0,0.20061898231506348,1.4659559726715088,0.25066935889765835,36.0,362.0,0.0
Y,R,"[5, 8]",1.0,3.0,0.4650912284851074,1.7865149974822998,0.3036560880258687,36.0,363.0,0.0
G,D,"[6, 8]",1.0,4.0,0.2674391269683838,1.9037210941314697,0.6241377227236053,36.0,364.0,0.0
Y,R,"[6, 9]",1.0,5.0,0.23179888725280762,1.559441089630127,0.31720096358236666,36.0,365.0,0.0
Y,R,"[6, 10]",1.0,6.0,0.2471449375152588,1.9100909233093262,0.6600480334972778,36.0,366.0,0.0
R,U,"[5, 10]",1.0,7.0,0.2003021240234375,1.8626580238342285,0.6559303356835946,36.0,367.0,0.0
R,U,"[4, 10]",1.0,8.0,0.3486320972442627,1.9175360202789307,0.5740115837681707,36.0,368.0,0.0
B,L,"[4, 9]",1.0,9.0,0.2610299587249756,1.6984648704528809,0.43915007648077986,36.0,369.0,0.0
R,U,"[3, 9]",1.0,10.0,0.458096981048584,1.809417963027954,0.34882541463525174,36.0,370.0,0.0
,,"(6, 6)",,,,,,36.0,,
R,U,"[5, 6]",1.0,1.0,0.1912078857421875,2.8698501586914062,0.48509868437287906,,371.0,0.0
Y,R,"[5, 7]",1.0,2.0,0.19095802307128906,1.6779589653015137,0.4796429847345294,37.0,372.0,0.0
Y,R,"[5, 8]",1.0,3.0,0.2785990238189697,1.5578389167785645,0.27110654077606233,37.0,373.0,0.0
G,D,"[6, 8]",1.0,4.0,0.37278103828430176,1.9670171737670898,0.5879326386765515,37.0,374.0,0.0
Y,R,"[6, 9]",1.0,5.0,0.21990203857421875,1.8507349491119385,0.6219425434830244,37.0,375.0,0.0
Y,R,"[6, 10]",-1.0,5.0,0.004126787185668945,5.846096992492676,0.7180600011994356,37.0,376.0,0.0
G,D,"[7, 10]",0.0,5.0,0.48239994049072266,1.7440850734710693,0.2624677035663474,37.0,377.0,0.0
R,U,"[6, 10]",0.0,5.0,0.6020300388336182,2.148475170135498,0.5441060413091663,37.0,378.0,0.0
B,L,"[6, 9]",0.0,5.0,0.19826006889343262,1.7231740951538086,0.533994267158705,37.0,379.0,0.0
B,L,"[6, 8]",0.0,5.0,0.40978193283081055,1.7813141345977783,0.3652892383555394,37.0,380.0,0.0
,,"(6, 6)",,,,,,37.0,,
R,U,"[5, 6]",1.0,1.0,0.2860119342803955,2.6462509632110596,0.4284429823288239,,381.0,0.0
Y,R,"[5, 7]",1.0,2.0,0.3632819652557373,1.783099889755249,0.42810200302673207,38.0,382.0,0.0
Y,R,"[5, 8]",1.0,3.0,0.4099910259246826,1.9758758544921875,0.5705449650293348,38.0,383.0,0.0
G,D,"[6, 8]",1.0,4.0,0.43308591842651367,1.8469948768615723,0.41768237527700874,38.0,384.0,0.0
Y,R,"[6, 9]",1.0,5.0,0.3338801860809326,1.6548130512237549,0.3059901505640667,38.0,385.0,0.0
Y,R,"[6, 10]",1.0,6.0,0.481003999710083,2.0012879371643066,0.5236111648953892,38.0,386.0,0.0
R,U,"[5, 10]",1.0,7.0,0.2821471691131592,1.8262860774993896,0.5499278902225988,38.0,387.0,0.0
R,U,"[4, 10]",1.0,8.0,0.28255200386047363,1.946300983428955,0.6294437030748737,38.0,388.0,0.0
B,L,"[4, 9]",1.0,9.0,0.3290691375732422,1.668262004852295,0.33142155476865,38.0,389.0,0.0
R,U,"[3, 9]",1.0,10.0,0.45330214500427246,2.172455072402954,0.7036177569600377,38.0,390.0,0.0
,,"(6, 6)",,,,,,38.0,,
R,U,"[5, 6]",1.0,1.0,0.26809096336364746,3.0077240467071533,0.2619840241014738,,391.0,0.0
Y,R,"[5, 7]",1.0,2.0,0.32657384872436523,1.6904261112213135,0.3690138230075134,39.0,392.0,0.0
Y,R,"[5, 8]",1.0,3.0,0.353726863861084,1.6404590606689453,0.27626648742891863,39.0,393.0,0.0
G,D,"[6, 8]",1.0,4.0,0.4475719928741455,2.1459782123565674,0.7050149921421565,39.0,394.0,0.0
Y,R,"[6, 9]",1.0,5.0,0.36942505836486816,2.02449893951416,0.6462802869197858,39.0,395.0,0.0
Y,R,"[6, 10]",1.0,6.0,0.23941898345947266,1.9335319995880127,0.6799205903181667,39.0,396.0,0.0
R,U,"[5, 10]",1.0,7.0,0.24208784103393555,1.7720770835876465,0.5188202905936754,39.0,397.0,0.0
R,U,"[4, 10]",1.0,8.0,0.407351016998291,1.8956019878387451,0.4812161975539784,39.0,398.0,0.0
B,L,"[4, 9]",1.0,9.0,0.23737502098083496,1.7028069496154785,0.4506774979786369,39.0,399.0,0.0
R,U,"[3, 9]",1.0,10.0,0.4829108715057373,1.936608076095581,0.4372333407037367,39.0,400.0,0.0
,,"(6, 6)",,,,,,39.0,,
R,U,"[5, 6]",1.0,1.0,0.23789000511169434,3.926841974258423,0.5309281818660494,,401.0,0.0
Y,R,"[5, 7]",1.0,2.0,0.22513103485107422,1.9131219387054443,0.6771992335118007,40.0,402.0,0.0
Y,R,"[5, 8]",1.0,3.0,0.22405695915222168,1.5868699550628662,0.3642219003667878,40.0,403.0,0.0
G,D,"[6, 8]",1.0,4.0,0.3600578308105469,1.6460349559783936,0.27716230582776913,40.0,404.0,0.0
Y,R,"[6, 9]",1.0,5.0,0.3818390369415283,1.654862880706787,0.2821849554316932,40.0,405.0,0.0
Y,R,"[6, 10]",1.0,6.0,0.4412040710449219,1.9144279956817627,0.4629568251134394,40.0,406.0,0.0
R,U,"[5, 10]",1.0,7.0,0.2968728542327881,1.8155789375305176,0.5117751325642768,40.0,407.0,0.0
R,U,"[4, 10]",1.0,8.0,0.34897303581237793,2.007755994796753,0.6527273561724807,40.0,408.0,0.0
B,L,"[4, 9]",1.0,9.0,0.3382270336151123,1.8905999660491943,0.5434907041124521,40.0,409.0,0.0
R,U,"[3, 9]",1.0,10.0,0.38775110244750977,1.6858389377593994,0.2962691998491589,40.0,410.0,0.0
,,"(6, 6)",,,,,,40.0,,
R,U,"[5, 6]",1.0,1.0,0.24551010131835938,2.6469740867614746,0.4431451631011745,,411.0,0.0
Y,R,"[5, 7]",1.0,2.0,0.24654388427734375,1.8804030418395996,0.6401533299963305,41.0,412.0,0.0
Y,R,"[5, 8]",1.0,3.0,0.23368287086486816,1.9049320220947266,0.6617122537458067,41.0,413.0,0.0
G,D,"[6, 8]",1.0,4.0,0.28955817222595215,1.9585158824920654,0.6703071754061465,41.0,414.0,0.0
Y,R,"[6, 9]",1.0,5.0,0.35472607612609863,1.6797089576721191,0.3169014169308475,41.0,415.0,0.0
Y,R,"[6, 10]",1.0,6.0,0.3235039710998535,1.9553921222686768,0.621922911132468,41.0,416.0,0.0
R,U,"[5, 10]",1.0,7.0,0.2976691722869873,1.551069974899292,0.25667256428751645,41.0,417.0,0.0
R,U,"[4, 10]",1.0,8.0,0.28760218620300293,1.8914480209350586,0.5979422341134722,41.0,418.0,0.0
B,L,"[4, 9]",1.0,9.0,0.347642183303833,1.636476993560791,0.2847622838489306,41.0,419.0,0.0
R,U,"[3, 9]",1.0,10.0,0.47448301315307617,2.1928019523620605,0.710644968098503,41.0,420.0,0.0
,,"(6, 6)",,,,,,41.0,,
R,U,"[5, 6]",1.0,1.0,0.28728413581848145,2.7315871715545654,0.7421572567922143,,421.0,0.0
Y,R,"[5, 7]",1.0,2.0,0.25780391693115234,1.6858010292053223,0.42834302063481305,42.0,422.0,0.0
Y,R,"[5, 8]",1.0,3.0,0.20655298233032227,1.9358620643615723,0.7305791602861906,42.0,423.0,0.0
G,D,"[6, 8]",1.0,4.0,0.313795804977417,2.0486650466918945,0.7291932396995076,42.0,424.0,0.0
Y,R,"[6, 9]",1.0,5.0,0.22271513938903809,1.5248839855194092,0.2880085602462558,42.0,425.0,0.0
Y,R,"[6, 10]",1.0,6.0,0.2841460704803467,1.793478012084961,0.49771490095198345,42.0,426.0,0.0
R,U,"[5, 10]",1.0,7.0,0.2711019515991211,1.538802146911621,0.25350205649238733,42.0,427.0,0.0
R,U,"[4, 10]",1.0,8.0,0.3249170780181885,1.87437105178833,0.5442498117473018,42.0,428.0,0.0
B,L,"[4, 9]",1.0,9.0,0.2893102169036865,1.7885301113128662,0.49961796199437664,42.0,429.0,0.0
R,U,"[3, 9]",1.0,10.0,0.3282630443572998,2.049765110015869,0.7158001936905803,42.0,430.0,0.0
,,"(6, 6)",,,,,,42.0,,
R,U,"[5, 6]",1.0,1.0,0.39869189262390137,3.2750861644744873,0.6412112447519243,,431.0,0.0
Y,R,"[5, 7]",1.0,2.0,0.22577905654907227,1.5353069305419922,0.30998209118072656,43.0,432.0,0.0
Y,R,"[5, 8]",1.0,3.0,0.34358906745910645,1.6479408740997314,0.3078722903379058,43.0,433.0,0.0
G,D,"[6, 8]",1.0,4.0,0.29367995262145996,1.69877290725708,0.4066661894848901,43.0,434.0,0.0
Y,R,"[6, 9]",1.0,5.0,0.26967597007751465,1.9396660327911377,0.6627060154034604,43.0,435.0,0.0
Y,R,"[6, 10]",1.0,6.0,0.24476194381713867,1.592249870300293,0.33896025935880303,43.0,436.0,0.0
R,U,"[5, 10]",1.0,7.0,0.5597310066223145,2.106557846069336,0.5450327855774738,43.0,437.0,0.0
R,U,"[4, 10]",1.0,8.0,0.26265501976013184,1.6924049854278564,0.4377247157563364,43.0,438.0,0.0
B,L,"[4, 9]",1.0,9.0,0.29058218002319336,1.576573133468628,0.2810002685527478,43.0,439.0,0.0
R,U,"[3, 9]",1.0,10.0,0.3502688407897949,1.8360700607299805,0.46722301189977644,43.0,440.0,0.0
,,"(6, 6)",,,,,,43.0,,
R,U,"[5, 6]",1.0,1.0,0.2500600814819336,3.0091309547424316,0.4761630923671947,,441.0,0.0
Y,R,"[5, 7]",1.0,2.0,0.25807905197143555,1.8627150058746338,0.6054264041696094,44.0,442.0,0.0
Y,R,"[5, 8]",1.0,3.0,0.22246694564819336,1.604212999343872,0.37658026315312326,44.0,443.0,0.0
G,D,"[6, 8]",1.0,4.0,0.2645881175994873,1.7495439052581787,0.49258324114152385,44.0,444.0,0.0
Y,R,"[6, 9]",1.0,5.0,0.31655383110046387,1.663761854171753,0.3399596172080469,44.0,445.0,0.0
Y,R,"[6, 10]",1.0,6.0,0.31096696853637695,1.5815958976745605,0.27155481105119883,44.0,446.0,0.0
R,U,"[5, 10]",1.0,7.0,0.32688307762145996,1.8546860218048096,0.5263298478507936,44.0,447.0,0.0
R,U,"[4, 10]",1.0,8.0,0.21981501579284668,1.4931449890136719,0.2697040805235956,44.0,448.0,0.0
B,L,"[4, 9]",1.0,9.0,0.2980320453643799,1.7230429649353027,0.4093184355738611,44.0,449.0,0.0
R,U,"[3, 9]",1.0,10.0,0.35521507263183594,1.801400899887085,0.4440629850192566,44.0,450.0,0.0
,,"(6, 6)",,,,,,44.0,,
R,U,"[5, 6]",1.0,1.0,0.28906917572021484,3.0975098609924316,0.2581753377947613,,451.0,0.0
Y,R,"[5, 7]",1.0,2.0,0.2883620262145996,1.7194128036499023,0.44426408312353854,45.0,452.0,0.0
Y,R,"[5, 8]",1.0,3.0,0.30390095710754395,1.9914228916168213,0.6855507701559286,45.0,453.0,0.0
G,D,"[6, 8]",1.0,4.0,0.2719080448150635,1.6564199924468994,0.3753798794788583,45.0,454.0,0.0
Y,R,"[6, 9]",1.0,5.0,0.27904200553894043,1.7041330337524414,0.4297915923469035,45.0,455.0,0.0
Y,R,"[6, 10]",1.0,6.0,0.3113119602203369,1.60642409324646,0.28628915475254807,45.0,456.0,0.0
R,U,"[5, 10]",1.0,7.0,0.2814199924468994,1.99440598487854,0.7135292617565093,45.0,457.0,0.0
R,U,"[4, 10]",1.0,8.0,0.27944111824035645,1.844886064529419,0.558600846322709,45.0,458.0,0.0
B,L,"[4, 9]",1.0,9.0,0.27819085121154785,1.8758509159088135,0.601037427929788,45.0,459.0,0.0
R,U,"[3, 9]",1.0,10.0,0.33887600898742676,2.085333824157715,0.7361122653780081,45.0,460.0,0.0
,,"(6, 6)",,,,,,45.0,,
R,U,"[5, 6]",1.0,1.0,0.2374260425567627,2.749469041824341,0.6191621688762854,,461.0,0.0
Y,R,"[5, 7]",1.0,2.0,0.20897388458251953,1.6490991115570068,0.43530023768805404,46.0,462.0,0.0
Y,R,"[5, 8]",1.0,3.0,0.25168800354003906,1.8621690273284912,0.6140752202870909,46.0,463.0,0.0
G,D,"[6, 8]",1.0,4.0,0.22620606422424316,1.9607410430908203,0.7246137212121415,46.0,464.0,0.0
Y,R,"[6, 9]",1.0,5.0,0.31154608726501465,1.800318956375122,0.4919973969151533,46.0,465.0,0.0
Y,R,"[6, 10]",1.0,6.0,0.21141815185546875,1.8418190479278564,0.6336121971904911,46.0,466.0,0.0
R,U,"[5, 10]",1.0,7.0,0.32262301445007324,1.785163164138794,0.4522862241049645,46.0,467.0,0.0
R,U,"[4, 10]",1.0,8.0,0.27736496925354004,1.6042449474334717,0.32336481461973954,46.0,468.0,0.0
B,L,"[4, 9]",1.0,9.0,0.4731600284576416,1.9819159507751465,0.5051191046610731,46.0,469.0,0.0
R,U,"[3, 9]",1.0,10.0,0.31581902503967285,1.9916791915893555,0.6633553328965323,46.0,470.0,0.0
,,"(6, 6)",,,,,,46.0,,
R,U,"[5, 6]",1.0,1.0,0.2573108673095703,2.9846930503845215,0.5980617386694671,,471.0,0.0
Y,R,"[5, 7]",1.0,2.0,0.20581507682800293,1.533890962600708,0.3157758217470318,47.0,472.0,0.0
Y,R,"[5, 8]",1.0,3.0,0.2873568534851074,1.958636999130249,0.657209234053741,47.0,473.0,0.0
G,D,"[6, 8]",1.0,4.0,0.350614070892334,1.657499074935913,0.2983536680414785,47.0,474.0,0.0
Y,R,"[6, 9]",1.0,5.0,0.5648469924926758,2.1894280910491943,0.6207985640885922,47.0,475.0,0.0
Y,R,"[6, 10]",1.0,6.0,0.3459658622741699,2.015958070755005,0.670066421240599,47.0,476.0,0.0
R,U,"[5, 10]",1.0,7.0,0.3020029067993164,2.0421979427337646,0.7288824392805164,47.0,477.0,0.0
R,U,"[4, 10]",1.0,8.0,0.3332059383392334,1.791977882385254,0.4382501874263772,47.0,478.0,0.0
B,L,"[4, 9]",1.0,9.0,0.3568902015686035,2.0950939655303955,0.7329370896449188,47.0,479.0,0.0
R,U,"[3, 9]",1.0,10.0,0.3784000873565674,1.8515348434448242,0.4682016299983831,47.0,480.0,0.0
,,"(6, 6)",,,,,,47.0,,
R,U,"[5, 6]",1.0,1.0,0.2800729274749756,2.6092770099639893,0.44406017614016524,,481.0,0.0
Y,R,"[5, 7]",1.0,2.0,0.28896093368530273,1.9127280712127686,0.6231894033892849,48.0,482.0,0.0
Y,R,"[5, 8]",1.0,3.0,0.25743603706359863,1.7842121124267578,0.5241395111560151,48.0,483.0,0.0
G,D,"[6, 8]",1.0,4.0,0.2870900630950928,1.79380202293396,0.501399133207096,48.0,484.0,0.0
Y,R,"[6, 9]",1.0,5.0,0.25217199325561523,1.5457310676574707,0.28069244195912607,48.0,485.0,0.0
Y,R,"[6, 10]",1.0,6.0,0.2662022113800049,1.9331490993499756,0.6467326545265608,48.0,486.0,0.0
R,U,"[5, 10]",1.0,7.0,0.1230921745300293,1.6832499504089355,0.546716449353644,48.0,487.0,0.0
R,U,"[4, 10]",1.0,8.0,0.35680198669433594,1.691253900527954,0.3216418429324362,48.0,488.0,0.0
B,L,"[4, 9]",1.0,9.0,0.580672025680542,2.229353904724121,0.6506275811373801,48.0,489.0,0.0
R,U,"[3, 9]",1.0,10.0,0.29411983489990234,1.5899231433868408,0.29107536500252035,48.0,490.0,0.0
,,"(6, 6)",,,,,,48.0,,
R,U,"[5, 6]",1.0,1.0,0.33185482025146484,2.3855440616607666,0.2601656897531989,,491.0,0.0
Y,R,"[5, 7]",1.0,2.0,0.24747705459594727,1.5359220504760742,0.2960418473663057,49.0,492.0,0.0
Y,R,"[5, 8]",1.0,3.0,0.32864809036254883,1.5896110534667969,0.25236500471260537,49.0,493.0,0.0
G,D,"[6, 8]",1.0,4.0,0.4066011905670166,1.912686824798584,0.49812064155473734,49.0,494.0,0.0
Y,R,"[6, 9]",1.0,5.0,0.4037492275238037,2.130466938018799,0.7118539528227201,49.0,495.0,0.0
Y,R,"[6, 10]",1.0,6.0,0.2512068748474121,1.767059087753296,0.5124042210272108,49.0,496.0,0.0
R,U,"[5, 10]",1.0,7.0,0.3545570373535156,1.675497055053711,0.3214826703381998,49.0,497.0,0.0
R,U,"[4, 10]",1.0,8.0,0.3740851879119873,1.7470979690551758,0.3684628998604391,49.0,498.0,0.0
B,L,"[4, 9]",1.0,9.0,0.2964060306549072,1.768423080444336,0.470182820576423,49.0,499.0,0.0
R,U,"[3, 9]",1.0,10.0,0.32367801666259766,1.8810369968414307,0.5512563958703014,49.0,500.0,0.0
,,"(6, 6)",,,,,,49.0,,
R,U,"[5, 6]",1.0,1.0,0.29721593856811523,2.4273078441619873,0.4781030919943183,,501.0,0.0
Y,R,"[5, 7]",1.0,2.0,0.21799707412719727,1.8109989166259766,0.6060473464570066,50.0,502.0,0.0
Y,R,"[5, 8]",1.0,3.0,0.2522909641265869,1.7339668273925781,0.4901851071538581,50.0,503.0,0.0
G,D,"[6, 8]",1.0,4.0,0.37392282485961914,1.6922249794006348,0.3161122162041028,50.0,504.0,0.0
Y,R,"[6, 9]",1.0,5.0,0.3010590076446533,1.73368501663208,0.41608758455695094,50.0,505.0,0.0
Y,R,"[6, 10]",1.0,6.0,0.43974804878234863,1.7360188961029053,0.2856408664460349,50.0,506.0,0.0
R,U,"[5, 10]",1.0,7.0,0.4594268798828125,1.8521769046783447,0.387744145135322,50.0,507.0,0.0
R,U,"[4, 10]",1.0,8.0,0.27228283882141113,1.6420609951019287,0.3632889711243965,50.0,508.0,0.0
B,L,"[4, 9]",1.0,9.0,0.3205380439758301,2.0509791374206543,0.7304633915869767,50.0,509.0,0.0
R,U,"[3, 9]",1.0,10.0,0.4817979335784912,1.7923719882965088,0.28996593863718356,50.0,510.0,0.0
,,"(6, 6)",,,,,,50.0,,
R,U,"[5, 6]",1.0,1.0,0.2839529514312744,2.9398608207702637,0.2966528662545588,,511.0,0.0
Y,R,"[5, 7]",1.0,2.0,0.2715280055999756,1.8985600471496582,0.6115517267472406,51.0,512.0,0.0
Y,R,"[5, 8]",1.0,3.0,0.23923301696777344,1.7266170978546143,0.48832356263758975,51.0,513.0,0.0
G,D,"[6, 8]",1.0,4.0,0.26787805557250977,1.7306249141693115,0.4523898309586193,51.0,514.0,0.0
Y,R,"[6, 9]",1.0,5.0,0.28053712844848633,1.8198230266571045,0.5388442159813305,51.0,515.0,0.0
Y,R,"[6, 10]",1.0,6.0,0.2500011920928955,1.9159870147705078,0.6545108244299688,51.0,516.0,0.0
R,U,"[5, 10]",1.0,7.0,0.2913830280303955,1.6089849472045898,0.31410040451551113,51.0,517.0,0.0
R,U,"[4, 10]",1.0,8.0,0.289766788482666,2.011535167694092,0.7085530516851801,51.0,518.0,0.0
B,L,"[4, 9]",1.0,9.0,0.30202698707580566,1.7155470848083496,0.40771877773143883,51.0,519.0,0.0
R,U,"[3, 9]",1.0,10.0,0.2723860740661621,1.783447027206421,0.5076687450430573,51.0,520.0,0.0
,,"(6, 6)",,,,,,51.0,,
R,U,"[5, 6]",1.0,1.0,0.3375999927520752,3.2898900508880615,0.31446806776049724,,521.0,0.0
Y,R,"[5, 7]",1.0,2.0,0.2262258529663086,1.7965021133422852,0.5611099318982189,52.0,522.0,0.0
Y,R,"[5, 8]",1.0,3.0,0.2538588047027588,1.697113037109375,0.44146355037808577,52.0,523.0,0.0
G,D,"[6, 8]",1.0,4.0,0.3169219493865967,1.9727108478546143,0.647297035213975,52.0,524.0,0.0
Y,R,"[6, 9]",1.0,5.0,0.25867390632629395,1.9363129138946533,0.6668970476341729,52.0,525.0,0.0
Y,R,"[6, 10]",1.0,6.0,0.268326997756958,1.96592378616333,0.6827915741716977,52.0,526.0,0.0
R,U,"[5, 10]",1.0,7.0,0.27378392219543457,1.5700860023498535,0.2866241717472221,52.0,527.0,0.0
R,U,"[4, 10]",1.0,8.0,0.3261709213256836,1.8379690647125244,0.5077771474366584,52.0,528.0,0.0
B,L,"[4, 9]",1.0,9.0,0.3511490821838379,2.0451109409332275,0.7026117489038435,52.0,529.0,0.0
R,U,"[3, 9]",1.0,10.0,0.5059208869934082,2.146782159805298,0.6331019101858562,52.0,530.0,0.0
,,"(6, 6)",,,,,,52.0,,
R,U,"[5, 6]",1.0,1.0,0.2614898681640625,3.7879269123077393,0.7376286596256524,,531.0,0.0
Y,R,"[5, 7]",1.0,2.0,0.21802687644958496,1.763904094696045,0.5353819907400212,53.0,532.0,0.0
Y,R,"[5, 8]",1.0,3.0,0.33321404457092285,1.9678559303283691,0.6194281957876479,53.0,533.0,0.0
G,D,"[6, 8]",1.0,4.0,0.2927069664001465,1.5823390483856201,0.28540885033797403,53.0,534.0,0.0
Y,R,"[6, 9]",1.0,5.0,0.3453378677368164,1.9255239963531494,0.5773024553872026,53.0,535.0,0.0
Y,R,"[6, 10]",1.0,6.0,0.2806971073150635,1.7389631271362305,0.4663686617726834,53.0,536.0,0.0
R,U,"[5, 10]",1.0,7.0,0.2872660160064697,1.7214140892028809,0.42131132512118913,53.0,537.0,0.0
R,U,"[4, 10]",1.0,8.0,0.27335381507873535,1.9698529243469238,0.6909455925411115,53.0,538.0,0.0
B,L,"[4, 9]",1.0,9.0,0.2655038833618164,1.9615890979766846,0.6860694515314592,53.0,539.0,0.0
R,U,"[3, 9]",1.0,10.0,0.26815199851989746,1.8576819896697998,0.5770536800008211,53.0,540.0,0.0
,,"(6, 6)",,,,,,53.0,,
R,U,"[5, 6]",1.0,1.0,0.2533540725708008,2.3238589763641357,0.2512378693568111,,541.0,0.0
Y,R,"[5, 7]",1.0,2.0,0.3619210720062256,2.0781900882720947,0.712398040778623,54.0,542.0,0.0
Y,R,"[5, 8]",1.0,3.0,0.23050522804260254,1.8680429458618164,0.6301220385069168,54.0,543.0,0.0
G,D,"[6, 8]",1.0,4.0,0.33087897300720215,1.6708788871765137,0.3184017705856463,54.0,544.0,0.0
Y,R,"[6, 9]",1.0,5.0,0.34351515769958496,2.0789530277252197,0.7304028482554932,54.0,545.0,0.0
Y,R,"[6, 10]",1.0,6.0,0.30599117279052734,1.8219470977783203,0.5025437386706028,54.0,546.0,0.0
R,U,"[5, 10]",1.0,7.0,0.25958800315856934,1.9650540351867676,0.7005996537805543,54.0,547.0,0.0
R,U,"[4, 10]",1.0,8.0,0.27388501167297363,1.5691328048706055,0.28692071477892894,54.0,548.0,0.0
B,L,"[4, 9]",1.0,9.0,0.3859391212463379,1.7148549556732178,0.31848297481761356,54.0,549.0,0.0
R,U,"[3, 9]",1.0,10.0,0.45267605781555176,1.9570560455322266,0.4921120055693916,54.0,550.0,0.0
,,"(6, 6)",,,,,,54.0,,
R,U,"[5, 6]",1.0,1.0,0.2585721015930176,3.941434860229492,0.4667727028183712,,551.0,0.0
Y,R,"[5, 7]",1.0,2.0,0.240919828414917,1.9610462188720703,0.7110348805074258,55.0,552.0,0.0
Y,R,"[5, 8]",1.0,3.0,0.25075292587280273,1.5891590118408203,0.3505138662616064,55.0,553.0,0.0
G,D,"[6, 8]",1.0,4.0,0.331834077835083,1.8415420055389404,0.5088613421146437,55.0,554.0,0.0
Y,R,"[6, 9]",1.0,5.0,0.2695889472961426,1.8978798389434814,0.6225784370798655,55.0,555.0,0.0
Y,R,"[6, 10]",1.0,6.0,0.25881314277648926,1.6541118621826172,0.39402520725066376,55.0,556.0,0.0
R,U,"[5, 10]",1.0,7.0,0.33408689498901367,1.8574559688568115,0.5181196297483981,55.0,557.0,0.0
R,U,"[4, 10]",1.0,8.0,0.3292269706726074,1.7014918327331543,0.36966430177979376,55.0,558.0,0.0
B,L,"[4, 9]",1.0,9.0,0.402371883392334,2.1083948612213135,0.6949338902989115,55.0,559.0,0.0
R,U,"[3, 9]",1.0,10.0,0.3722250461578369,1.6625289916992188,0.2907687379904589,55.0,560.0,0.0
,,"(6, 6)",,,,,,55.0,,
R,U,"[5, 6]",1.0,1.0,0.3050529956817627,2.7841172218322754,0.44165342573984046,,561.0,0.0
Y,R,"[5, 7]",1.0,2.0,0.3073389530181885,1.7009170055389404,0.3926485853405293,56.0,562.0,0.0
Y,R,"[5, 8]",1.0,3.0,0.29435110092163086,1.5818331241607666,0.2909394203944374,56.0,563.0,0.0
G,D,"[6, 8]",1.0,4.0,0.395097017288208,1.7906019687652588,0.39833285747586245,56.0,564.0,0.0
Y,R,"[6, 9]",1.0,5.0,0.2693309783935547,1.794463872909546,0.5094180752851913,56.0,565.0,0.0
Y,R,"[6, 10]",1.0,6.0,0.323106050491333,1.8448998928070068,0.5210529244690572,56.0,566.0,0.0
R,U,"[5, 10]",1.0,7.0,0.42402005195617676,1.8450968265533447,0.41641070039717054,56.0,567.0,0.0
R,U,"[4, 10]",1.0,8.0,0.2960829734802246,1.8957231044769287,0.595215225293685,56.0,568.0,0.0
B,L,"[4, 9]",1.0,9.0,0.38681697845458984,1.7944281101226807,0.40663142589664114,56.0,569.0,0.0
R,U,"[3, 9]",1.0,10.0,0.3938119411468506,1.87752103805542,0.4837650523559535,56.0,570.0,0.0
,,"(6, 6)",,,,,,56.0,,
R,U,"[5, 6]",1.0,1.0,0.2943229675292969,3.2702231407165527,0.7039237916689782,,571.0,0.0
Y,R,"[5, 7]",1.0,2.0,0.22086000442504883,1.8839919567108154,0.6547215001870483,57.0,572.0,0.0
Y,R,"[5, 8]",1.0,3.0,0.26484203338623047,1.7703509330749512,0.49207548043318794,57.0,573.0,0.0
G,D,"[6, 8]",1.0,4.0,0.3530590534210205,1.905344009399414,0.5470592838643749,57.0,574.0,0.0
Y,R,"[6, 9]",1.0,5.0,0.3555178642272949,1.6461780071258545,0.27718948429345747,57.0,575.0,0.0
Y,R,"[6, 10]",1.0,6.0,0.31029701232910156,1.9547181129455566,0.6480294108358788,57.0,576.0,0.0
R,U,"[5, 10]",1.0,7.0,0.3237898349761963,1.9569721221923828,0.6216870480883148,57.0,577.0,0.0
R,U,"[4, 10]",1.0,8.0,0.2626528739929199,1.5134069919586182,0.25226552328416285,57.0,578.0,0.0
B,L,"[4, 9]",1.0,9.0,0.5545291900634766,1.8725550174713135,0.3247919613057585,57.0,579.0,0.0
R,U,"[3, 9]",1.0,10.0,0.4234800338745117,2.1305620670318604,0.7048058488226674,57.0,580.0,0.0
,,"(6, 6)",,,,,,57.0,,
R,U,"[5, 6]",1.0,1.0,0.33905601501464844,4.0277769565582275,0.5830669369614134,,581.0,0.0
Y,R,"[5, 7]",1.0,2.0,0.2700231075286865,1.9668619632720947,0.6830386551978198,58.0,582.0,0.0
Y,R,"[5, 8]",1.0,3.0,0.26554107666015625,1.6497180461883545,0.36642730252855604,58.0,583.0,0.0
G,D,"[6, 8]",1.0,4.0,0.43965983390808105,1.7480239868164062,0.2979368682159052,58.0,584.0,0.0
Y,R,"[6, 9]",1.0,5.0,0.3905348777770996,1.891690969467163,0.4895358158237535,58.0,585.0,0.0
Y,R,"[6, 10]",1.0,6.0,0.23225998878479004,1.7940778732299805,0.5500697861340016,58.0,586.0,0.0
R,U,"[5, 10]",1.0,7.0,0.23828601837158203,1.6556358337402344,0.40589504440462537,58.0,587.0,0.0
R,U,"[4, 10]",1.0,8.0,0.21650981903076172,1.6815869808197021,0.4541442039767233,58.0,588.0,0.0
B,L,"[4, 9]",1.0,9.0,0.24182701110839844,1.5740280151367188,0.32841036956880004,58.0,589.0,0.0
R,U,"[3, 9]",1.0,10.0,0.46848011016845703,1.8715460300445557,0.3997608797146493,58.0,590.0,0.0
,,"(6, 6)",,,,,,58.0,,
R,U,"[5, 6]",1.0,1.0,0.3750431537628174,2.885990858078003,0.6522721170298735,,591.0,0.0
Y,R,"[5, 7]",1.0,2.0,0.2480909824371338,1.9106740951538086,0.6462299047077551,59.0,592.0,0.0
Y,R,"[5, 8]",1.0,3.0,0.27632594108581543,1.6092948913574219,0.3226079890044542,59.0,593.0,0.0
G,D,"[6, 8]",1.0,4.0,0.3904290199279785,1.7478148937225342,0.3537918446358908,59.0,594.0,0.0
Y,R,"[6, 9]",1.0,5.0,0.24922895431518555,1.5872719287872314,0.32431358671212407,59.0,595.0,0.0
Y,R,"[6, 10]",1.0,6.0,0.2771728038787842,1.5502450466156006,0.2746198803022407,59.0,596.0,0.0
R,U,"[5, 10]",1.0,7.0,0.26526498794555664,1.5264508724212646,0.25122259616894355,59.0,597.0,0.0
R,U,"[4, 10]",1.0,8.0,0.3650031089782715,1.990915060043335,0.6083716014504439,59.0,598.0,0.0
B,L,"[4, 9]",1.0,9.0,0.33565497398376465,1.7628350257873535,0.4213271827547226,59.0,599.0,0.0
R,U,"[3, 9]",1.0,10.0,0.42087507247924805,2.0871660709381104,0.6583162795952695,59.0,600.0,0.0
,,"(6, 6)",,,,,,59.0,,
R,U,"[5, 6]",1.0,1.0,0.2568650245666504,3.447519063949585,0.4894349472504868,,601.0,0.0
Y,R,"[5, 7]",1.0,2.0,0.237900972366333,1.8790209293365479,0.6349951574462234,60.0,602.0,0.0
Y,R,"[5, 8]",1.0,3.0,0.32087016105651855,1.727916955947876,0.39649136255194817,60.0,603.0,0.0
G,D,"[6, 8]",1.0,4.0,0.29631996154785156,1.6943309307098389,0.390808111905321,60.0,604.0,0.0
B,L,"[6, 7]",0.0,4.0,0.3342580795288086,1.9236559867858887,0.5977050268624793,60.0,605.0,0.0
Y,R,"[6, 8]",0.0,4.0,0.7897908687591553,2.5158939361572266,0.7135685225903909,60.0,606.0,0.0
R,U,"[5, 8]",0.0,4.0,0.4382658004760742,1.9621059894561768,0.5092369379320661,60.0,607.0,0.0
R,U,"[4, 8]",0.0,4.0,0.10240793228149414,1.5680949687957764,0.460917087340908,60.0,608.0,0.0
B,L,"[4, 7]",0.0,4.0,0.1232750415802002,1.730855941772461,0.6081886759166314,60.0,609.0,0.0
B,L,"[4, 6]",0.0,4.0,0.12541794776916504,1.4123811721801758,0.2873660386349264,60.0,610.0,0.0
,,"(6, 6)",,,,,,60.0,,
R,U,"[5, 6]",1.0,1.0,0.6504349708557129,3.688391923904419,0.7088542997034223,,611.0,0.0
Y,R,"[5, 7]",1.0,2.0,0.20861506462097168,1.8103070259094238,0.602589326771806,61.0,612.0,0.0
Y,R,"[5, 8]",1.0,3.0,0.2501039505004883,1.6196870803833008,0.35595652037925635,61.0,613.0,0.0
G,D,"[6, 8]",1.0,4.0,0.29855799674987793,1.8511950969696045,0.5237708221801277,61.0,614.0,0.0
Y,R,"[6, 9]",1.0,5.0,0.35143399238586426,1.7260611057281494,0.3665597995247454,61.0,615.0,0.0
Y,R,"[6, 10]",1.0,6.0,0.34116291999816895,1.8811020851135254,0.5309790715536115,61.0,616.0,0.0
R,U,"[5, 10]",1.0,7.0,0.21445083618164062,1.650217056274414,0.4145732921874231,61.0,617.0,0.0
R,U,"[4, 10]",1.0,8.0,0.26518893241882324,1.9929959774017334,0.7240272761794315,61.0,618.0,0.0
B,L,"[4, 9]",1.0,9.0,0.20476078987121582,1.617128849029541,0.40807324971550124,61.0,619.0,0.0
R,U,"[3, 9]",1.0,10.0,0.2679119110107422,1.7482609748840332,0.4898223438824694,61.0,620.0,0.0
,,"(6, 6)",,,,,,61.0,,
R,U,"[5, 6]",1.0,1.0,0.20408296585083008,2.072519063949585,0.26245396144295274,,621.0,0.0
Y,R,"[5, 7]",1.0,2.0,0.26668405532836914,1.6658179759979248,0.3948997278532401,62.0,622.0,0.0
Y,R,"[5, 8]",1.0,3.0,0.24112200736999512,1.808319091796875,0.5694899984118014,62.0,623.0,0.0
G,D,"[6, 8]",1.0,4.0,0.2811870574951172,1.644059181213379,0.3637901680968698,62.0,624.0,0.0
Y,R,"[6, 9]",1.0,5.0,0.25936388969421387,1.7406339645385742,0.4713029721210261,62.0,625.0,0.0
Y,R,"[6, 10]",1.0,6.0,0.2218761444091797,1.5141727924346924,0.2855564829251756,62.0,626.0,0.0
R,U,"[5, 10]",1.0,7.0,0.310654878616333,1.7863929271697998,0.47179026673734764,62.0,627.0,0.0
R,U,"[4, 10]",1.0,8.0,0.24512219429016113,1.9246668815612793,0.6795388521832084,62.0,628.0,0.0
B,L,"[4, 9]",1.0,9.0,0.263045072555542,1.9537510871887207,0.68341630930537,62.0,629.0,0.0
R,U,"[3, 9]",1.0,10.0,0.3020057678222656,1.6841540336608887,0.36777396703402976,62.0,630.0,0.0
,,"(6, 6)",,,,,,62.0,,
R,U,"[5, 6]",1.0,1.0,0.2956860065460205,2.6410140991210938,0.5751326749290698,,631.0,0.0
Y,R,"[5, 7]",1.0,2.0,0.2193899154663086,1.5073561668395996,0.2828858868904265,63.0,632.0,0.0
Y,R,"[5, 8]",1.0,3.0,0.2597939968109131,1.5739960670471191,0.30700233127180937,63.0,633.0,0.0
G,D,"[6, 8]",1.0,4.0,0.4062800407409668,1.844438076019287,0.4344736754984672,63.0,634.0,0.0
Y,R,"[6, 9]",1.0,5.0,0.24874496459960938,1.893691062927246,0.6282388754055741,63.0,635.0,0.0
Y,R,"[6, 10]",1.0,6.0,0.21613001823425293,1.4847300052642822,0.26333071153220927,63.0,636.0,0.0
R,U,"[5, 10]",1.0,7.0,0.22115492820739746,1.568145990371704,0.33143229814733044,63.0,637.0,0.0
R,U,"[4, 10]",1.0,8.0,0.36243700981140137,1.751734972000122,0.3831690180425033,63.0,638.0,0.0
B,L,"[4, 9]",1.0,9.0,0.337677001953125,2.008211851119995,0.6576614754995682,63.0,639.0,0.0
R,U,"[3, 9]",1.0,10.0,0.3105309009552002,1.7192139625549316,0.4104139916818075,63.0,640.0,0.0
,,"(6, 6)",,,,,,63.0,,
R,U,"[5, 6]",1.0,1.0,0.21618294715881348,3.068603038787842,0.4956240680672884,,641.0,0.0
Y,R,"[5, 7]",1.0,2.0,0.21436095237731934,1.61415696144104,0.39326749952279927,64.0,642.0,0.0
Y,R,"[5, 8]",1.0,3.0,0.2507970333099365,1.515812873840332,0.25921967657679545,64.0,643.0,0.0
G,D,"[6, 8]",1.0,4.0,0.4132518768310547,1.8562521934509277,0.4487247884409381,64.0,644.0,0.0
Y,R,"[6, 9]",1.0,5.0,0.3505518436431885,1.8548660278320312,0.4869318374988494,64.0,645.0,0.0
Y,R,"[6, 10]",1.0,6.0,0.2773151397705078,1.5662879943847656,0.28674736579280563,64.0,646.0,0.0
R,U,"[5, 10]",1.0,7.0,0.32915782928466797,2.0072579383850098,0.6768415073803739,64.0,647.0,0.0
R,U,"[4, 10]",1.0,8.0,0.26317381858825684,1.6509790420532227,0.39487728449549736,64.0,648.0,0.0
B,L,"[4, 9]",1.0,9.0,0.27509284019470215,1.8733210563659668,0.6014966859187205,64.0,649.0,0.0
R,U,"[3, 9]",1.0,10.0,0.2898728847503662,1.615319013595581,0.3169693152394129,64.0,650.0,0.0
,,"(6, 6)",,,,,,64.0,,
R,U,"[5, 6]",1.0,1.0,0.22597694396972656,3.940203905105591,0.7236938441937697,,651.0,0.0
Y,R,"[5, 7]",1.0,2.0,0.2039949893951416,1.850506067276001,0.6407196945911857,65.0,652.0,0.0
Y,R,"[5, 8]",1.0,3.0,0.24432587623596191,1.6258649826049805,0.3837361688679023,65.0,653.0,0.0
G,D,"[6, 8]",1.0,4.0,0.2909369468688965,1.6450140476226807,0.3454745155514773,65.0,654.0,0.0
Y,R,"[6, 9]",1.0,5.0,0.2646918296813965,1.7679548263549805,0.5133595817853007,65.0,655.0,0.0
Y,R,"[6, 10]",1.0,6.0,0.21669816970825195,1.8189849853515625,0.582242690975346,65.0,656.0,0.0
R,U,"[5, 10]",1.0,7.0,0.2506580352783203,1.98478102684021,0.7170152491439632,65.0,657.0,0.0
R,U,"[4, 10]",1.0,8.0,0.21080899238586426,1.582650899887085,0.36649923725807765,65.0,658.0,0.0
B,L,"[4, 9]",1.0,9.0,0.39046692848205566,1.9544548988342285,0.5541810084703709,65.0,659.0,0.0
R,U,"[3, 9]",1.0,10.0,0.3289330005645752,1.7065420150756836,0.37764442449086993,65.0,660.0,0.0
,,"(6, 6)",,,,,,65.0,,
R,U,"[5, 6]",1.0,1.0,0.24756908416748047,2.858438014984131,0.7022633925047208,,661.0,0.0
Y,R,"[5, 7]",1.0,2.0,0.22889208793640137,1.9385530948638916,0.7076437283452365,66.0,662.0,0.0
Y,R,"[5, 8]",1.0,3.0,0.2654900550842285,1.6934762001037598,0.4347094067548243,66.0,663.0,0.0
G,D,"[6, 8]",1.0,4.0,0.3224461078643799,1.8950819969177246,0.5631424687020619,66.0,664.0,0.0
Y,R,"[6, 9]",1.0,5.0,0.24163603782653809,1.9780900478363037,0.7242215398399166,66.0,665.0,0.0
Y,R,"[6, 10]",1.0,6.0,0.27887797355651855,1.6682569980621338,0.3929177210366348,66.0,666.0,0.0
R,U,"[5, 10]",1.0,7.0,0.23131299018859863,1.7957229614257812,0.555334913819574,66.0,667.0,0.0
R,U,"[4, 10]",1.0,8.0,0.24138116836547852,1.5910148620605469,0.34656245725661544,66.0,668.0,0.0
B,L,"[4, 9]",1.0,9.0,0.2834298610687256,1.947382926940918,0.6436414816788362,66.0,669.0,0.0
R,U,"[3, 9]",1.0,10.0,0.2581620216369629,1.5801939964294434,0.3240810917747363,66.0,670.0,0.0
,,"(6, 6)",,,,,,66.0,,
R,U,"[5, 6]",1.0,1.0,0.23331499099731445,2.5891029834747314,0.7296452867834915,,671.0,0.0
Y,R,"[5, 7]",1.0,2.0,0.46094703674316406,1.9018640518188477,0.43163954567053187,67.0,672.0,0.0
Y,R,"[5, 8]",1.0,3.0,0.20520401000976562,1.582731008529663,0.3811720496190742,67.0,673.0,0.0
G,D,"[6, 8]",1.0,4.0,0.2648429870605469,1.64369797706604,0.37486616983583854,67.0,674.0,0.0
Y,R,"[6, 9]",1.0,5.0,0.2244889736175537,1.9191551208496094,0.6937019716855265,67.0,675.0,0.0
Y,R,"[6, 10]",1.0,6.0,0.21573901176452637,1.6650590896606445,0.4588966036062189,67.0,676.0,0.0
R,U,"[5, 10]",1.0,7.0,0.24910902976989746,1.5909981727600098,0.333568431397154,67.0,677.0,0.0
R,U,"[4, 10]",1.0,8.0,0.2792041301727295,1.569573163986206,0.28643485341958214,67.0,678.0,0.0
B,L,"[4, 9]",1.0,9.0,0.27492785453796387,1.8724510669708252,0.5918829503133024,67.0,679.0,0.0
R,U,"[3, 9]",1.0,10.0,0.3061349391937256,1.6665170192718506,0.3586682023095768,67.0,680.0,0.0
,,"(6, 6)",,,,,,67.0,,
R,U,"[5, 6]",1.0,1.0,0.16231203079223633,2.9694130420684814,0.5448790159322411,,681.0,0.0
Y,R,"[5, 7]",1.0,2.0,0.3558509349822998,1.7442960739135742,0.38929640337786486,68.0,682.0,0.0
Y,R,"[5, 8]",1.0,3.0,0.24996399879455566,1.9073998928070068,0.6465429670823344,68.0,683.0,0.0
G,D,"[6, 8]",1.0,4.0,0.22449612617492676,1.8185160160064697,0.5816011371370016,68.0,684.0,0.0
Y,R,"[6, 9]",1.0,5.0,0.22168898582458496,1.6981489658355713,0.46328467666402406,68.0,685.0,0.0
Y,R,"[6, 10]",1.0,6.0,0.33269214630126953,1.7919318675994873,0.4385064290483639,68.0,686.0,0.0
R,U,"[5, 10]",1.0,7.0,0.32862210273742676,1.7876229286193848,0.45944314001872577,68.0,687.0,0.0
R,U,"[4, 10]",1.0,8.0,0.2851238250732422,1.6786510944366455,0.3882850252498071,68.0,688.0,0.0
B,L,"[4, 9]",1.0,9.0,0.333935022354126,1.6733770370483398,0.3283703480684137,68.0,689.0,0.0
R,U,"[3, 9]",1.0,10.0,0.3377060890197754,1.6621208190917969,0.34059211657961214,68.0,690.0,0.0
,,"(6, 6)",,,,,,68.0,,
R,U,"[5, 6]",1.0,1.0,0.206071138381958,2.327483892440796,0.2679515483350912,,691.0,0.0
Y,R,"[5, 7]",1.0,2.0,0.30345702171325684,1.8419559001922607,0.5263746007555419,69.0,692.0,0.0
Y,R,"[5, 8]",1.0,3.0,0.19515013694763184,1.7979609966278076,0.6076501416226773,69.0,693.0,0.0
G,D,"[6, 8]",1.0,4.0,0.12932705879211426,1.4534759521484375,0.32808440623728363,69.0,694.0,0.0
Y,R,"[6, 9]",1.0,5.0,0.22821879386901855,1.7988460063934326,0.5767602695444562,69.0,695.0,0.0
Y,R,"[6, 10]",1.0,6.0,0.19053101539611816,1.884972095489502,0.6950007636641583,69.0,696.0,0.0
R,U,"[5, 10]",1.0,7.0,0.32406115531921387,1.9340989589691162,0.6125393490908517,69.0,697.0,0.0
R,U,"[4, 10]",1.0,8.0,0.2501399517059326,1.9154069423675537,0.6447306507551966,69.0,698.0,0.0
B,L,"[4, 9]",1.0,9.0,0.2082068920135498,1.5904600620269775,0.3854164632980865,69.0,699.0,0.0
R,U,"[3, 9]",1.0,10.0,0.3513009548187256,1.6867458820343018,0.33868745959793545,69.0,700.0,0.0
,,"(6, 6)",,,,,,69.0,,
R,U,"[5, 6]",1.0,1.0,0.17363405227661133,3.251879930496216,0.6569580278523908,,701.0,0.0
Y,R,"[5, 7]",1.0,2.0,0.22947001457214355,1.634993076324463,0.4091060276316511,70.0,702.0,0.0
Y,R,"[5, 8]",1.0,3.0,0.30115604400634766,1.5933690071105957,0.2858404120527646,70.0,703.0,0.0
G,D,"[6, 8]",1.0,4.0,0.27469491958618164,1.573868989944458,0.29308626062543575,70.0,704.0,0.0
Y,R,"[6, 9]",1.0,5.0,0.2703859806060791,1.9593420028686523,0.6856701193278114,70.0,705.0,0.0
Y,R,"[6, 10]",1.0,6.0,0.18761801719665527,1.6069300174713135,0.40916508440312527,70.0,706.0,0.0
R,U,"[5, 10]",1.0,7.0,0.34865617752075195,1.6416449546813965,0.3012360420775819,70.0,707.0,0.0
R,U,"[4, 10]",1.0,8.0,0.24777889251708984,1.6798088550567627,0.4307805316077562,70.0,708.0,0.0
B,L,"[4, 9]",1.0,9.0,0.2084360122680664,1.7912728786468506,0.5717721434179109,70.0,709.0,0.0
R,U,"[3, 9]",1.0,10.0,0.2810029983520508,1.7988030910491943,0.520707748332277,70.0,710.0,0.0
,,"(6, 6)",,,,,,70.0,,
R,U,"[5, 6]",1.0,1.0,0.18939495086669922,3.004547119140625,0.3255282808165299,,711.0,0.0
Y,R,"[5, 7]",1.0,2.0,0.2572751045227051,1.7940399646759033,0.5359630991981796,71.0,712.0,0.0
Y,R,"[5, 8]",1.0,3.0,0.26636409759521484,1.8325669765472412,0.5519256125262253,71.0,713.0,0.0
G,D,"[6, 8]",1.0,4.0,0.26804590225219727,1.5634970664978027,0.282386271616383,71.0,714.0,0.0
Y,R,"[6, 9]",1.0,5.0,0.3278679847717285,1.9391059875488281,0.6046574051232543,71.0,715.0,0.0
Y,R,"[6, 10]",1.0,6.0,0.21039915084838867,1.9269180297851562,0.7147474435036463,71.0,716.0,0.0
R,U,"[5, 10]",1.0,7.0,0.24692296981811523,1.9480650424957275,0.6962096391462431,71.0,717.0,0.0
R,U,"[4, 10]",1.0,8.0,0.27626490592956543,1.6454529762268066,0.3586234512127857,71.0,718.0,0.0
B,L,"[4, 9]",1.0,9.0,0.37089085578918457,1.7773988246917725,0.40258800110848636,71.0,719.0,0.0
R,U,"[3, 9]",1.0,10.0,0.32572102546691895,1.8093469142913818,0.47882788992185554,71.0,720.0,0.0
,,"(6, 6)",,,,,,71.0,,
R,U,"[5, 6]",1.0,1.0,0.1817028522491455,2.623450994491577,0.2689280284912881,,721.0,0.0
Y,R,"[5, 7]",1.0,2.0,0.3181610107421875,1.6716020107269287,0.34078539948049275,72.0,722.0,0.0
Y,R,"[5, 8]",1.0,3.0,0.33559107780456543,1.9059700965881348,0.5629745739195013,72.0,723.0,0.0
G,D,"[6, 8]",1.0,4.0,0.31092405319213867,1.8624799251556396,0.5421459816631186,72.0,724.0,0.0
Y,R,"[6, 9]",1.0,5.0,0.29813194274902344,1.7892060279846191,0.48152846279434014,72.0,725.0,0.0
Y,R,"[6, 10]",1.0,6.0,0.26324009895324707,1.8342499732971191,0.5659436821374149,72.0,726.0,0.0
R,U,"[5, 10]",1.0,7.0,0.2839701175689697,1.744041919708252,0.44334856907581344,72.0,727.0,0.0
R,U,"[4, 10]",1.0,8.0,0.28763914108276367,2.0193588733673096,0.7291378740449601,72.0,728.0,0.0
B,L,"[4, 9]",1.0,9.0,0.23659396171569824,1.5660431385040283,0.3122877472153379,72.0,729.0,0.0
R,U,"[3, 9]",1.0,10.0,0.3594388961791992,1.6292541027069092,0.2749298698336741,72.0,730.0,0.0
,,"(6, 6)",,,,,,72.0,,
R,U,"[5, 6]",1.0,1.0,0.21292686462402344,3.2545790672302246,0.34594532372311226,,731.0,0.0
Y,R,"[5, 7]",1.0,2.0,0.2441091537475586,1.878066062927246,0.6071573600225814,73.0,732.0,0.0
Y,R,"[5, 8]",1.0,3.0,0.20416903495788574,1.6933820247650146,0.48391698545367307,73.0,733.0,0.0
G,D,"[6, 8]",1.0,4.0,0.282210111618042,1.7576830387115479,0.47492317482089447,73.0,734.0,0.0
Y,R,"[6, 9]",1.0,5.0,0.23303818702697754,1.7337820529937744,0.49214146216049476,73.0,735.0,0.0
Y,R,"[6, 10]",1.0,6.0,0.1848278045654297,1.6781032085418701,0.4869523606695563,73.0,736.0,0.0
R,U,"[5, 10]",1.0,7.0,0.21723484992980957,1.707409143447876,0.4776607532823516,73.0,737.0,0.0
R,U,"[4, 10]",1.0,8.0,0.28862881660461426,1.8681399822235107,0.5791569087387354,73.0,738.0,0.0
B,L,"[4, 9]",1.0,9.0,0.23357200622558594,1.5455098152160645,0.291592450512682,73.0,739.0,0.0
R,U,"[3, 9]",1.0,10.0,0.4220600128173828,1.8185460567474365,0.39338437331075665,73.0,740.0,0.0
,,"(6, 6)",,,,,,73.0,,
R,U,"[5, 6]",1.0,1.0,0.17058706283569336,3.0085549354553223,0.3354749947917254,,741.0,0.0
Y,R,"[5, 7]",1.0,2.0,0.24301600456237793,1.6497149467468262,0.40181476595724547,74.0,742.0,0.0
Y,R,"[5, 8]",1.0,3.0,0.20000720024108887,1.6860840320587158,0.47126238231423334,74.0,743.0,0.0
G,D,"[6, 8]",1.0,4.0,0.28458595275878906,1.9977810382843018,0.7021231404254764,74.0,744.0,0.0
Y,R,"[6, 9]",1.0,5.0,0.2477271556854248,1.6556060314178467,0.3913933620710504,74.0,745.0,0.0
Y,R,"[6, 10]",1.0,6.0,0.20874786376953125,1.9061119556427002,0.6971894074213156,74.0,746.0,0.0
R,U,"[5, 10]",1.0,7.0,0.2462601661682129,1.6898918151855469,0.43747929184673995,74.0,747.0,0.0
R,U,"[4, 10]",1.0,8.0,0.27956509590148926,1.7663278579711914,0.48704720274429836,74.0,748.0,0.0
B,L,"[4, 9]",1.0,9.0,0.23219990730285645,1.497541904449463,0.2515467426865725,74.0,749.0,0.0
R,U,"[3, 9]",1.0,10.0,0.5253679752349854,1.9345381259918213,0.4026164388192015,74.0,750.0,0.0
,,"(6, 6)",,,,,,74.0,,
R,U,"[5, 6]",1.0,1.0,0.20833182334899902,3.265740156173706,0.5681879707449898,,751.0,0.0
Y,R,"[5, 7]",1.0,2.0,0.15946197509765625,1.5711569786071777,0.40618549869851256,75.0,752.0,0.0
Y,R,"[5, 8]",1.0,3.0,0.22288107872009277,1.9420719146728516,0.7147032228431154,75.0,753.0,0.0
G,D,"[6, 8]",1.0,4.0,0.30190587043762207,1.577639102935791,0.2594932872393105,75.0,754.0,0.0
Y,R,"[6, 9]",1.0,5.0,0.2773571014404297,1.6725959777832031,0.3985829310674837,75.0,755.0,0.0
Y,R,"[6, 10]",1.0,6.0,0.22924304008483887,1.6168708801269531,0.3821009533856544,75.0,756.0,0.0
R,U,"[5, 10]",1.0,7.0,0.29262590408325195,1.9144961833953857,0.6132885437372908,75.0,757.0,0.0
R,U,"[4, 10]",1.0,8.0,0.24704313278198242,1.9727160930633545,0.7190421664810436,75.0,758.0,0.0
B,L,"[4, 9]",1.0,9.0,0.1951899528503418,1.8334341049194336,0.6358989684902815,75.0,759.0,0.0
R,U,"[3, 9]",1.0,10.0,0.23594403266906738,1.9671540260314941,0.7362249242679428,75.0,760.0,0.0
,,"(6, 6)",,,,,,75.0,,
R,U,"[5, 6]",1.0,1.0,0.17648696899414062,3.167325973510742,0.6037995316980316,,761.0,0.0
Y,R,"[5, 7]",1.0,2.0,0.21756386756896973,1.8880178928375244,0.6584016586376242,76.0,762.0,0.0
Y,R,"[5, 8]",1.0,3.0,0.24349594116210938,1.6330180168151855,0.39182049037626365,76.0,763.0,0.0
G,D,"[6, 8]",1.0,4.0,0.2661781311035156,1.936141014099121,0.6608939925772656,76.0,764.0,0.0
Y,R,"[6, 9]",1.0,5.0,0.2448270320892334,1.9130210876464844,0.6739707331667791,76.0,765.0,0.0
Y,R,"[6, 10]",1.0,6.0,0.26532697677612305,1.6805238723754883,0.4215676053678064,76.0,766.0,0.0
R,U,"[5, 10]",1.0,7.0,0.3199431896209717,1.9838688373565674,0.6551136530784847,76.0,767.0,0.0
R,U,"[4, 10]",1.0,8.0,0.3317549228668213,2.056886911392212,0.7124065436890978,76.0,768.0,0.0
B,L,"[4, 9]",1.0,9.0,0.3322319984436035,1.847046136856079,0.5095932567432662,76.0,769.0,0.0
R,U,"[3, 9]",1.0,10.0,0.3230459690093994,1.730410099029541,0.406592242856759,76.0,770.0,0.0
,,"(6, 6)",,,,,,76.0,,
R,U,"[5, 6]",1.0,1.0,0.16098713874816895,12.482310056686401,0.5555724345371194,,771.0,0.0
Y,R,"[5, 7]",1.0,2.0,0.19762897491455078,1.6513211727142334,0.45686080989914957,77.0,772.0,0.0
Y,R,"[5, 8]",1.0,3.0,0.21475887298583984,1.733454942703247,0.5070635239825948,77.0,773.0,0.0
G,D,"[6, 8]",1.0,4.0,0.2593698501586914,1.9712600708007812,0.7113650862861741,77.0,774.0,0.0
Y,R,"[6, 9]",1.0,5.0,0.20775508880615234,1.6389460563659668,0.43391727842227595,77.0,775.0,0.0
Y,R,"[6, 10]",1.0,6.0,0.21701717376708984,1.542133092880249,0.30976661407566625,77.0,776.0,0.0
R,U,"[5, 10]",1.0,7.0,0.27671194076538086,1.904006004333496,0.6303018302541934,77.0,777.0,0.0
R,U,"[4, 10]",-1.0,7.0,0.05543088912963867,5.616422891616821,0.43006558402560896,77.0,778.0,0.0
R,U,"[3, 10]",0.0,7.0,0.25692319869995117,1.6227588653564453,0.3528276564662282,77.0,779.0,0.0
B,L,"[3, 9]",1.0,8.0,0.7088761329650879,1.99375319480896,0.2799709356905571,77.0,780.0,0.0
,,"(6, 6)",,,,,,77.0,,
R,U,"[5, 6]",1.0,1.0,0.16291189193725586,24.08579707145691,0.7158645523088947,,781.0,0.0
Y,R,"[5, 7]",1.0,2.0,0.20149588584899902,1.5969579219818115,0.3798102567788933,78.0,782.0,0.0
Y,R,"[5, 8]",1.0,3.0,0.305570125579834,1.9741339683532715,0.6536667296083728,78.0,783.0,0.0
G,D,"[6, 8]",1.0,4.0,0.2876420021057129,1.7181131839752197,0.4219277681644283,78.0,784.0,0.0
Y,R,"[6, 9]",1.0,5.0,0.2426900863647461,1.5760328769683838,0.33148728745467676,78.0,785.0,0.0
Y,R,"[6, 10]",1.0,6.0,0.25896286964416504,1.8291370868682861,0.5605790946285455,78.0,786.0,0.0
R,U,"[5, 10]",1.0,7.0,0.2684810161590576,1.7873561382293701,0.5145039241137037,78.0,787.0,0.0
R,U,"[4, 10]",1.0,8.0,0.245650053024292,1.9339029788970947,0.6816623732108005,78.0,788.0,0.0
B,L,"[4, 9]",1.0,9.0,0.211198091506958,1.7711188793182373,0.5527185467736757,78.0,789.0,0.0
R,U,"[3, 9]",1.0,10.0,0.24047207832336426,1.6416890621185303,0.3946144916919086,78.0,790.0,0.0
,,"(6, 6)",,,,,,78.0,,
R,U,"[5, 6]",1.0,1.0,0.21040105819702148,2.535517930984497,0.3135593669029906,,791.0,0.0
Y,R,"[5, 7]",1.0,2.0,0.2943141460418701,1.7802419662475586,0.47708328953793167,79.0,792.0,0.0
Y,R,"[5, 8]",1.0,3.0,0.26465797424316406,1.860804796218872,0.6043572895966616,79.0,793.0,0.0
G,D,"[6, 8]",1.0,4.0,0.3401041030883789,2.0231828689575195,0.6775929102975771,79.0,794.0,0.0
Y,R,"[6, 9]",1.0,5.0,0.2525930404663086,1.9862689971923828,0.7305241526492986,79.0,795.0,0.0
Y,R,"[6, 10]",1.0,6.0,0.2505521774291992,1.562838077545166,0.29399109726545297,79.0,796.0,0.0
R,U,"[5, 10]",1.0,7.0,0.4117138385772705,1.9993550777435303,0.5930460877558541,79.0,797.0,0.0
R,U,"[4, 10]",1.0,8.0,0.3018150329589844,1.828963041305542,0.5214835584573527,79.0,798.0,0.0
B,L,"[4, 9]",1.0,9.0,0.2675461769104004,1.78403902053833,0.5059033668236328,79.0,799.0,0.0
R,U,"[3, 9]",1.0,10.0,0.41329002380371094,2.1516058444976807,0.7406817011366089,79.0,800.0,0.0
,,"(6, 6)",,,,,,79.0,,
R,U,"[5, 6]",1.0,1.0,0.20294499397277832,2.556014060974121,0.7469795146402469,,801.0,0.0
Y,R,"[5, 7]",1.0,2.0,0.2008650302886963,1.8582329750061035,0.6386946313006615,80.0,802.0,0.0
Y,R,"[5, 8]",1.0,3.0,0.2491309642791748,1.6329460144042969,0.3881930036867961,80.0,803.0,0.0
G,D,"[6, 8]",1.0,4.0,0.4444730281829834,1.946026086807251,0.5010748502247067,80.0,804.0,0.0
Y,R,"[6, 9]",1.0,5.0,0.37878894805908203,2.0643081665039062,0.6819713213519771,80.0,805.0,0.0
Y,R,"[6, 10]",1.0,6.0,0.19800686836242676,1.6587178707122803,0.45728199035834366,80.0,806.0,0.0
R,U,"[5, 10]",1.0,7.0,0.3338890075683594,2.059458017349243,0.7169414192708351,80.0,807.0,0.0
R,U,"[4, 10]",1.0,8.0,0.2933990955352783,1.7583048343658447,0.4585255123204902,80.0,808.0,0.0
B,L,"[4, 9]",1.0,9.0,0.3726820945739746,2.0672309398651123,0.6921655443262732,80.0,809.0,0.0
R,U,"[3, 9]",1.0,10.0,0.31598615646362305,2.0423500537872314,0.717909774633112,80.0,810.0,0.0
,,"(6, 6)",,,,,,80.0,,
R,U,"[5, 6]",1.0,1.0,0.18073201179504395,2.680586814880371,0.34912510798970514,,811.0,0.0
Y,R,"[5, 7]",1.0,2.0,0.26957106590270996,1.7861700057983398,0.501588535061362,81.0,812.0,0.0
Y,R,"[5, 8]",1.0,3.0,0.23285913467407227,1.98073410987854,0.7489923798257149,81.0,813.0,0.0
G,D,"[6, 8]",1.0,4.0,0.27119898796081543,1.9279210567474365,0.6436317061542731,81.0,814.0,0.0
Y,R,"[6, 9]",1.0,5.0,0.3016011714935303,2.0056400299072266,0.715718801226699,81.0,815.0,0.0
Y,R,"[6, 10]",1.0,6.0,0.23800897598266602,1.835547924041748,0.5847883322456218,81.0,816.0,0.0
R,U,"[5, 10]",1.0,7.0,0.3336920738220215,1.6607038974761963,0.31255889716147045,81.0,817.0,0.0
R,U,"[4, 10]",1.0,8.0,0.33503103256225586,1.8435180187225342,0.5058214906208347,81.0,818.0,0.0
B,L,"[4, 9]",1.0,9.0,0.3448209762573242,2.031195878982544,0.6867947411162273,81.0,819.0,0.0
R,U,"[3, 9]",1.0,10.0,0.3552591800689697,1.7138659954071045,0.35115260434075357,81.0,820.0,0.0
,,"(6, 6)",,,,,,81.0,,
R,U,"[5, 6]",1.0,1.0,0.29331183433532715,4.128540992736816,0.4629151977445769,,821.0,0.0
Y,R,"[5, 7]",1.0,2.0,0.277911901473999,1.600153923034668,0.31324739136871893,82.0,822.0,0.0
Y,R,"[5, 8]",1.0,3.0,0.3937809467315674,1.9513659477233887,0.547993160433317,82.0,823.0,0.0
G,D,"[6, 8]",1.0,4.0,0.3010241985321045,2.0590670108795166,0.7400757141337497,82.0,824.0,0.0
Y,R,"[6, 9]",1.0,5.0,0.2398369312286377,1.9759161472320557,0.7325843771664016,82.0,825.0,0.0
Y,R,"[6, 10]",1.0,6.0,0.2666890621185303,1.5472331047058105,0.2634855397104132,82.0,826.0,0.0
R,U,"[5, 10]",1.0,7.0,0.3995509147644043,2.1526501178741455,0.7329851858415131,82.0,827.0,0.0
R,U,"[4, 10]",1.0,8.0,0.23369121551513672,1.9642970561981201,0.7138185251591018,82.0,828.0,0.0
B,L,"[4, 9]",1.0,9.0,0.3372080326080322,1.6967101097106934,0.344037583412581,82.0,829.0,0.0
R,U,"[3, 9]",1.0,10.0,0.52292799949646,2.1866509914398193,0.6636050011787109,82.0,830.0,0.0
,,"(6, 6)",,,,,,82.0,,
R,U,"[5, 6]",1.0,1.0,0.23449397087097168,2.770892858505249,0.6013740215572541,,831.0,0.0
Y,R,"[5, 7]",1.0,2.0,0.26947593688964844,1.6535530090332031,0.37195596707958206,83.0,832.0,0.0
Y,R,"[5, 8]",1.0,3.0,0.39839982986450195,1.932574987411499,0.5210269602768125,83.0,833.0,0.0
G,D,"[6, 8]",1.0,4.0,0.270143985748291,1.5307819843292236,0.25199821860634036,83.0,834.0,0.0
Y,R,"[6, 9]",1.0,5.0,0.36481189727783203,1.6803159713745117,0.3157126121820452,83.0,835.0,0.0
Y,R,"[6, 10]",1.0,6.0,0.3055129051208496,1.9971120357513428,0.6790636896890317,83.0,836.0,0.0
R,U,"[5, 10]",1.0,7.0,0.37564587593078613,1.712820053100586,0.32561541944571304,83.0,837.0,0.0
R,U,"[4, 10]",1.0,8.0,0.27190208435058594,1.9510600566864014,0.6763472890202418,83.0,838.0,0.0
B,L,"[4, 9]",1.0,9.0,0.2657809257507324,1.5376710891723633,0.2644661914441351,83.0,839.0,0.0
R,U,"[3, 9]",1.0,10.0,0.6058850288391113,2.0205578804016113,0.40170452527499534,83.0,840.0,0.0
,,"(6, 6)",,,,,,83.0,,
R,U,"[5, 6]",1.0,1.0,0.219404935836792,3.9584310054779053,0.676307786267888,,841.0,0.0
Y,R,"[5, 7]",1.0,2.0,0.1616840362548828,1.6373579502105713,0.48082263185086316,84.0,842.0,0.0
Y,R,"[5, 8]",1.0,3.0,0.23644614219665527,1.7341558933258057,0.4817188812542886,84.0,843.0,0.0
G,D,"[6, 8]",1.0,4.0,0.48833489418029785,2.1412761211395264,0.6394241206720763,84.0,844.0,0.0
Y,R,"[6, 9]",1.0,5.0,0.2899608612060547,1.571946144104004,0.2783988524802955,84.0,845.0,0.0
Y,R,"[6, 10]",1.0,6.0,0.32834410667419434,1.7614531517028809,0.43965385817937397,84.0,846.0,0.0
R,U,"[5, 10]",1.0,7.0,0.3496730327606201,2.0858020782470703,0.7250922042790704,84.0,847.0,0.0
R,U,"[4, 10]",1.0,8.0,0.249222993850708,1.754176139831543,0.49638853062602384,84.0,848.0,0.0
B,L,"[4, 9]",1.0,9.0,0.27781105041503906,1.8602490425109863,0.573219979184223,84.0,849.0,0.0
R,U,"[3, 9]",1.0,10.0,0.38500213623046875,2.078552007675171,0.6851059738175174,84.0,850.0,0.0
,,"(6, 6)",,,,,,84.0,,
R,U,"[5, 6]",1.0,1.0,0.3054618835449219,2.572774887084961,0.7078328129752663,,851.0,0.0
Y,R,"[5, 7]",1.0,2.0,0.31516504287719727,2.055180072784424,0.7461213599018124,85.0,852.0,0.0
Y,R,"[5, 8]",1.0,3.0,0.2325589656829834,1.7490010261535645,0.49540427325400477,85.0,853.0,0.0
G,D,"[6, 8]",1.0,4.0,0.34716200828552246,1.7040798664093018,0.36642298324485373,85.0,854.0,0.0
Y,R,"[6, 9]",1.0,5.0,0.2488551139831543,1.7794229984283447,0.5125643958906768,85.0,855.0,0.0
Y,R,"[6, 10]",1.0,6.0,0.3643300533294678,1.8553581237792969,0.4845239222134632,85.0,856.0,0.0
R,U,"[5, 10]",1.0,7.0,0.22235393524169922,1.501460075378418,0.2861565020089885,85.0,857.0,0.0
R,U,"[4, 10]",1.0,8.0,0.2823219299316406,1.6933910846710205,0.39610931289826884,85.0,858.0,0.0
B,L,"[4, 9]",1.0,9.0,0.3066520690917969,1.6312360763549805,0.3107033165544014,85.0,859.0,0.0
R,U,"[3, 9]",1.0,10.0,0.3648099899291992,1.8750529289245605,0.5023129999798461,85.0,860.0,0.0
,,"(6, 6)",,,,,,85.0,,
R,U,"[5, 6]",1.0,1.0,0.17310190200805664,2.3438241481781006,0.37963153115848286,,861.0,0.0
Y,R,"[5, 7]",1.0,2.0,0.26678895950317383,1.6161119937896729,0.3291445360558396,86.0,862.0,0.0
Y,R,"[5, 8]",1.0,3.0,0.3975820541381836,1.7542119026184082,0.3665993444653837,86.0,863.0,0.0
G,D,"[6, 8]",1.0,4.0,0.3709981441497803,2.0859358310699463,0.7022960409765118,86.0,864.0,0.0
Y,R,"[6, 9]",1.0,5.0,0.45379018783569336,1.7910540103912354,0.32697018261689254,86.0,865.0,0.0
Y,R,"[6, 10]",1.0,6.0,0.5494179725646973,1.9549720287322998,0.39869509969423345,86.0,866.0,0.0
R,U,"[5, 10]",1.0,7.0,0.3028988838195801,1.5995028018951416,0.2816898325613983,86.0,867.0,0.0
R,U,"[4, 10]",1.0,8.0,0.352938175201416,1.854245901107788,0.4855706440197991,86.0,868.0,0.0
B,L,"[4, 9]",1.0,9.0,0.27005505561828613,1.5843498706817627,0.3035164154978847,86.0,869.0,0.0
R,U,"[3, 9]",1.0,10.0,0.4817829132080078,1.8470849990844727,0.3506696331341282,86.0,870.0,0.0
,,"(6, 6)",,,,,,86.0,,
R,U,"[5, 6]",1.0,1.0,0.23084211349487305,2.464679002761841,0.5318379019569021,,871.0,0.0
Y,R,"[5, 7]",1.0,2.0,0.27419590950012207,1.554413080215454,0.2697465186831876,87.0,872.0,0.0
Y,R,"[5, 8]",1.0,3.0,0.46147894859313965,2.128387928009033,0.6645435311714762,87.0,873.0,0.0
G,D,"[6, 8]",1.0,4.0,0.4790968894958496,2.1365439891815186,0.6511584843163232,87.0,874.0,0.0
Y,R,"[6, 9]",1.0,5.0,0.2419579029083252,1.577096939086914,0.3286205541509709,87.0,875.0,0.0
Y,R,"[6, 10]",1.0,6.0,0.30712199211120605,1.775454044342041,0.47074664821030227,87.0,876.0,0.0
R,U,"[5, 10]",1.0,7.0,0.32154202461242676,1.78761887550354,0.4582753641815346,87.0,877.0,0.0
R,U,"[4, 10]",1.0,8.0,0.28751492500305176,1.905501127243042,0.6135553946923493,87.0,878.0,0.0
B,L,"[4, 9]",1.0,9.0,0.3318319320678711,1.622183084487915,0.28609908076836393,87.0,879.0,0.0
R,U,"[3, 9]",1.0,10.0,0.4793968200683594,2.135759115219116,0.65483467991668,87.0,880.0,0.0
,,"(6, 6)",,,,,,87.0,,
R,U,"[5, 6]",1.0,1.0,0.2333390712738037,3.0491139888763428,0.40422863548318716,,881.0,0.0
Y,R,"[5, 7]",1.0,2.0,0.281386137008667,1.6338448524475098,0.3384003405547888,88.0,882.0,0.0
Y,R,"[5, 8]",1.0,3.0,0.4580237865447998,1.8382248878479004,0.37648421975515933,88.0,883.0,0.0
G,D,"[6, 8]",1.0,4.0,0.32959699630737305,1.8820879459381104,0.558412837242545,88.0,884.0,0.0
Y,R,"[6, 9]",1.0,5.0,0.28831911087036133,1.5509259700775146,0.25954695011036166,88.0,885.0,0.0
Y,R,"[6, 10]",1.0,6.0,0.41661810874938965,1.7851088047027588,0.3614460430569471,88.0,886.0,0.0
R,U,"[5, 10]",1.0,7.0,0.33406805992126465,1.8024230003356934,0.46359944592265967,88.0,887.0,0.0
R,U,"[4, 10]",1.0,8.0,0.3685019016265869,1.700416088104248,0.31439170514552683,88.0,888.0,0.0
B,L,"[4, 9]",1.0,9.0,0.468580961227417,2.2324252128601074,0.7462112213976972,88.0,889.0,0.0
R,U,"[3, 9]",1.0,10.0,0.3074629306793213,1.729875087738037,0.4099003336427577,88.0,890.0,0.0
,,"(6, 6)",,,,,,88.0,,
R,U,"[5, 6]",1.0,1.0,0.1369631290435791,2.480186939239502,0.5232637055116942,,891.0,0.0
Y,R,"[5, 7]",1.0,2.0,0.2514479160308838,1.6237518787384033,0.36384800147116836,89.0,892.0,0.0
Y,R,"[5, 8]",1.0,3.0,0.45615696907043457,1.9236760139465332,0.4541139247391066,89.0,893.0,0.0
G,D,"[6, 8]",1.0,4.0,0.4206099510192871,2.1525521278381348,0.7231274638252139,89.0,894.0,0.0
Y,R,"[6, 9]",1.0,5.0,0.37381911277770996,2.0717179775238037,0.6949321321866363,89.0,895.0,0.0
Y,R,"[6, 10]",1.0,6.0,0.25805020332336426,1.962141990661621,0.7069227480910905,89.0,896.0,0.0
R,U,"[5, 10]",1.0,7.0,0.3525810241699219,1.8338801860809326,0.47444597345274864,89.0,897.0,0.0
R,U,"[4, 10]",1.0,8.0,0.2411060333251953,1.5200910568237305,0.2781228691857152,89.0,898.0,0.0
B,L,"[4, 9]",1.0,9.0,0.28654003143310547,1.6065521240234375,0.31787869818606473,89.0,899.0,0.0
R,U,"[3, 9]",1.0,10.0,0.3149890899658203,1.7456989288330078,0.4136876357725852,89.0,900.0,0.0
,,"(6, 6)",,,,,,89.0,,
R,U,"[5, 6]",1.0,1.0,0.2250669002532959,2.9364449977874756,0.6999657809433056,,901.0,0.0
Y,R,"[5, 7]",1.0,2.0,0.25095605850219727,1.6332368850708008,0.36671791699960754,90.0,902.0,0.0
Y,R,"[5, 8]",1.0,3.0,0.30942797660827637,1.654977798461914,0.33869499981228185,90.0,903.0,0.0
G,D,"[6, 8]",1.0,4.0,0.3856081962585449,1.7654750347137451,0.3707650278019718,90.0,904.0,0.0
Y,R,"[6, 9]",1.0,5.0,0.45086193084716797,2.041490077972412,0.5787090520098129,90.0,905.0,0.0
Y,R,"[6, 10]",1.0,6.0,0.3106989860534668,1.9211421012878418,0.6162950814443765,90.0,906.0,0.0
R,U,"[5, 10]",1.0,7.0,0.4167749881744385,2.0480000972747803,0.6144331614641154,90.0,907.0,0.0
R,U,"[4, 10]",1.0,8.0,0.3764650821685791,1.7897140979766846,0.4045643050180178,90.0,908.0,0.0
B,L,"[4, 9]",1.0,9.0,0.6624231338500977,1.9615750312805176,0.2995490971224487,90.0,909.0,0.0
R,U,"[3, 9]",1.0,10.0,0.5256099700927734,2.0148370265960693,0.4808020795800781,90.0,910.0,0.0
,,"(6, 6)",,,,,,90.0,,
R,U,"[5, 6]",1.0,1.0,0.2572460174560547,2.411029100418091,0.5583903842473694,,911.0,0.0
Y,R,"[5, 7]",1.0,2.0,0.35837602615356445,1.703683853149414,0.3455945190776791,91.0,912.0,0.0
Y,R,"[5, 8]",1.0,3.0,0.4301879405975342,1.8017809391021729,0.3807923002004441,91.0,913.0,0.0
G,D,"[6, 8]",1.0,4.0,0.41096997261047363,1.8328020572662354,0.41356841314264586,91.0,914.0,0.0
Y,R,"[6, 9]",1.0,5.0,0.4202461242675781,1.8572800159454346,0.4209854383917231,91.0,915.0,0.0
Y,R,"[6, 10]",1.0,6.0,0.44356703758239746,1.7000110149383545,0.25432807931133083,91.0,916.0,0.0
R,U,"[5, 10]",1.0,7.0,0.34299182891845703,1.6020300388336182,0.2564032139133597,91.0,917.0,0.0
R,U,"[4, 10]",1.0,8.0,0.3384370803833008,1.7260098457336426,0.38228621809852953,91.0,918.0,0.0
B,L,"[4, 9]",1.0,9.0,0.4170238971710205,2.1612048149108887,0.7434155620092686,91.0,919.0,0.0
R,U,"[3, 9]",1.0,10.0,0.23523783683776855,1.7150640487670898,0.4753482095222572,91.0,920.0,0.0
,,"(6, 6)",,,,,,91.0,,
R,U,"[5, 6]",1.0,1.0,0.28673696517944336,2.1689720153808594,0.39451237940182105,,921.0,0.0
Y,R,"[5, 7]",1.0,2.0,0.29912900924682617,1.5963561534881592,0.29035494351129715,92.0,922.0,0.0
Y,R,"[5, 8]",1.0,3.0,0.40607595443725586,2.029658079147339,0.6202569937822259,92.0,923.0,0.0
G,D,"[6, 8]",1.0,4.0,0.31656908988952637,2.0234360694885254,0.693703717034284,92.0,924.0,0.0
Y,R,"[6, 9]",1.0,5.0,0.3142521381378174,1.626612901687622,0.32048716549102285,92.0,925.0,0.0
Y,R,"[6, 10]",1.0,6.0,0.4257678985595703,1.841176986694336,0.4116697718859287,92.0,926.0,0.0
R,U,"[5, 10]",1.0,7.0,0.3016171455383301,1.7925519943237305,0.4874369765656789,92.0,927.0,0.0
R,U,"[4, 10]",1.0,8.0,0.22986102104187012,1.5280568599700928,0.2991477103059198,92.0,928.0,0.0
B,L,"[4, 9]",1.0,9.0,0.3734560012817383,1.753190040588379,0.3688510926320623,92.0,929.0,0.0
R,U,"[3, 9]",1.0,10.0,0.31870293617248535,1.9064691066741943,0.575105354117853,92.0,930.0,0.0
,,"(6, 6)",,,,,,92.0,,
R,U,"[5, 6]",1.0,1.0,0.20105314254760742,2.4026620388031006,0.478255220469917,,931.0,0.0
Y,R,"[5, 7]",1.0,2.0,0.2586050033569336,1.970386028289795,0.7150198216988524,93.0,932.0,0.0
Y,R,"[5, 8]",1.0,3.0,0.2933681011199951,1.8530778884887695,0.5516728724321791,93.0,933.0,0.0
G,D,"[6, 8]",1.0,4.0,0.25847697257995605,1.6490280628204346,0.3839066766194873,93.0,934.0,0.0
Y,R,"[6, 9]",1.0,5.0,0.2764410972595215,1.746884822845459,0.4642158942736143,93.0,935.0,0.0
Y,R,"[6, 10]",1.0,6.0,0.39760708808898926,2.1216299533843994,0.7187640450892667,93.0,936.0,0.0
R,U,"[5, 10]",1.0,7.0,0.3019249439239502,2.0423989295959473,0.7278925160123675,93.0,937.0,0.0
R,U,"[4, 10]",1.0,8.0,0.31666994094848633,1.6549551486968994,0.333366028637644,93.0,938.0,0.0
B,L,"[4, 9]",1.0,9.0,0.3270149230957031,1.622683048248291,0.2894795270228339,93.0,939.0,0.0
R,U,"[3, 9]",1.0,10.0,0.4154338836669922,1.8903839588165283,0.46293224434112,93.0,940.0,0.0
,,"(6, 6)",,,,,,93.0,,
R,U,"[5, 6]",1.0,1.0,0.26518678665161133,2.646243095397949,0.7089719857189458,,941.0,0.0
Y,R,"[5, 7]",1.0,2.0,0.29239511489868164,1.586719036102295,0.29610386253388027,94.0,942.0,0.0
Y,R,"[5, 8]",1.0,3.0,0.3863060474395752,1.6933259963989258,0.2895381412884843,94.0,943.0,0.0
G,D,"[6, 8]",1.0,4.0,0.36286091804504395,2.0447919368743896,0.684084657232034,94.0,944.0,0.0
Y,R,"[6, 9]",1.0,5.0,0.25696802139282227,1.9587681293487549,0.6929133750516963,94.0,945.0,0.0
Y,R,"[6, 10]",1.0,6.0,0.27419304847717285,1.6425790786743164,0.36912282746378355,94.0,946.0,0.0
R,U,"[5, 10]",1.0,7.0,0.3403470516204834,1.6112902164459229,0.2638995461142677,94.0,947.0,0.0
R,U,"[4, 10]",1.0,8.0,0.34262609481811523,1.8482320308685303,0.4952783181836762,94.0,948.0,0.0
B,L,"[4, 9]",1.0,9.0,0.31335878372192383,1.8670291900634766,0.5621687539120397,94.0,949.0,0.0
R,U,"[3, 9]",1.0,10.0,0.33068108558654785,1.576004981994629,0.2552089479345479,94.0,950.0,0.0
,,"(6, 6)",,,,,,94.0,,
R,U,"[5, 6]",1.0,1.0,0.2359299659729004,3.3735358715057373,0.7281500528816767,,951.0,0.0
Y,R,"[5, 7]",1.0,2.0,0.2500021457672119,1.9254498481750488,0.6703983158705757,95.0,952.0,0.0
Y,R,"[5, 8]",1.0,3.0,0.31238579750061035,1.9361729621887207,0.6232257361042204,95.0,953.0,0.0
G,D,"[6, 8]",1.0,4.0,0.36131906509399414,1.6867051124572754,0.32694702587490354,95.0,954.0,0.0
Y,R,"[6, 9]",1.0,5.0,0.40628695487976074,1.9163689613342285,0.5099901196553496,95.0,955.0,0.0
Y,R,"[6, 10]",1.0,6.0,0.30887603759765625,1.839845895767212,0.5331943203637954,95.0,956.0,0.0
R,U,"[5, 10]",1.0,7.0,0.3676149845123291,1.8582298755645752,0.4747998292247731,95.0,957.0,0.0
R,U,"[4, 10]",1.0,8.0,0.30247998237609863,1.7446568012237549,0.4360610752703323,95.0,958.0,0.0
B,L,"[4, 9]",1.0,9.0,0.3560190200805664,2.0352799892425537,0.6711986050544808,95.0,959.0,0.0
R,U,"[3, 9]",1.0,10.0,0.3513948917388916,1.8363189697265625,0.4742684474448675,95.0,960.0,0.0
,,"(6, 6)",,,,,,95.0,,
R,U,"[5, 6]",1.0,1.0,0.208906888961792,3.0611660480499268,0.6519551684440259,,961.0,0.0
Y,R,"[5, 7]",1.0,2.0,0.3255650997161865,2.0104849338531494,0.6791230500934178,96.0,962.0,0.0
Y,R,"[5, 8]",1.0,3.0,0.2449660301208496,1.6811208724975586,0.4271815820651672,96.0,963.0,0.0
G,D,"[6, 8]",1.0,4.0,0.434359073638916,1.7094287872314453,0.2701064707443531,96.0,964.0,0.0
Y,R,"[6, 9]",1.0,5.0,0.2764129638671875,1.8348958492279053,0.5548322669623578,96.0,965.0,0.0
Y,R,"[6, 10]",1.0,6.0,0.28035998344421387,1.9450600147247314,0.6664332293147351,96.0,966.0,0.0
R,U,"[5, 10]",1.0,7.0,0.29746198654174805,1.7421140670776367,0.44211357681541086,96.0,967.0,0.0
R,U,"[4, 10]",1.0,8.0,0.36025118827819824,1.6898961067199707,0.3321850855520877,96.0,968.0,0.0
B,L,"[4, 9]",1.0,9.0,0.5903069972991943,1.8954441547393799,0.2944564535787189,96.0,969.0,0.0
R,U,"[3, 9]",1.0,10.0,0.4862251281738281,1.991969108581543,0.5030692002128553,96.0,970.0,0.0
,,"(6, 6)",,,,,,96.0,,
R,U,"[5, 6]",1.0,1.0,0.15398502349853516,2.8005919456481934,0.33687850106886247,,971.0,0.0
Y,R,"[5, 7]",1.0,2.0,0.2670300006866455,1.981450080871582,0.7013418852133613,97.0,972.0,0.0
Y,R,"[5, 8]",1.0,3.0,0.21800589561462402,1.7637310028076172,0.532027845291875,97.0,973.0,0.0
G,D,"[6, 8]",1.0,4.0,0.28766298294067383,1.9447779655456543,0.6598423531195325,97.0,974.0,0.0
Y,R,"[6, 9]",1.0,5.0,0.2779541015625,2.0228450298309326,0.749447080791421,97.0,975.0,0.0
Y,R,"[6, 10]",1.0,6.0,0.270719051361084,1.8635098934173584,0.580147029128756,97.0,976.0,0.0
R,U,"[5, 10]",1.0,7.0,0.3080408573150635,1.7761120796203613,0.4563119008495773,97.0,977.0,0.0
R,U,"[4, 10]",1.0,8.0,0.3055911064147949,1.6996281147003174,0.3891734333971699,97.0,978.0,0.0
B,L,"[4, 9]",1.0,9.0,0.2786140441894531,2.0183470249176025,0.7404809238139705,97.0,979.0,0.0
R,U,"[3, 9]",1.0,10.0,0.2742960453033447,1.9321470260620117,0.6560333161783728,97.0,980.0,0.0
,,"(6, 6)",,,,,,97.0,,
R,U,"[5, 6]",1.0,1.0,0.23480606079101562,2.4517228603363037,0.5246101974073676,,981.0,0.0
Y,R,"[5, 7]",1.0,2.0,0.2656888961791992,1.9938879013061523,0.7350523950767857,98.0,982.0,0.0
Y,R,"[5, 8]",1.0,3.0,0.24934911727905273,2.005021810531616,0.7400662071219268,98.0,983.0,0.0
G,D,"[6, 8]",1.0,4.0,0.31483912467956543,1.9662249088287354,0.65635828298678,98.0,984.0,0.0
Y,R,"[6, 9]",1.0,5.0,0.44530606269836426,1.7995920181274414,0.3562532730191064,98.0,985.0,0.0
Y,R,"[6, 10]",1.0,6.0,0.47032713890075684,1.7444899082183838,0.2676931624737814,98.0,986.0,0.0
R,U,"[5, 10]",1.0,7.0,0.50046706199646,2.049175977706909,0.5498550152023389,98.0,987.0,0.0
R,U,"[4, 10]",1.0,8.0,0.2644350528717041,1.8857040405273438,0.61895556941886,98.0,988.0,0.0
B,L,"[4, 9]",1.0,9.0,0.22534704208374023,1.8517918586730957,0.6206336895224008,98.0,989.0,0.0
R,U,"[3, 9]",1.0,10.0,0.344390869140625,1.6502788066864014,0.3046682211618854,98.0,990.0,0.0
,,"(6, 6)",,,,,,98.0,,
R,U,"[5, 6]",1.0,1.0,0.17468881607055664,2.8515219688415527,0.6556284578935321,,991.0,0.0
Y,R,"[5, 7]",1.0,2.0,0.23639488220214844,1.9733951091766357,0.7293825277305022,99.0,992.0,0.0
Y,R,"[5, 8]",1.0,3.0,0.22208094596862793,1.9500069618225098,0.7127746664388825,99.0,993.0,0.0
G,D,"[6, 8]",1.0,4.0,0.3491380214691162,1.7526659965515137,0.3823930135394488,99.0,994.0,0.0
Y,R,"[6, 9]",1.0,5.0,0.2942500114440918,2.0499019622802734,0.7480269677430178,99.0,995.0,0.0
Y,R,"[6, 10]",1.0,6.0,0.252338171005249,1.789273977279663,0.5211805632923059,99.0,996.0,0.0
R,U,"[5, 10]",1.0,7.0,0.2737569808959961,1.9081790447235107,0.6293053097446268,99.0,997.0,0.0
R,U,"[4, 10]",1.0,8.0,0.21956610679626465,1.8943369388580322,0.6569536666999185,99.0,998.0,0.0
B,L,"[4, 9]",1.0,9.0,0.2541680335998535,1.6940619945526123,0.4347195896418067,99.0,999.0,0.0
R,U,"[3, 9]",1.0,10.0,0.3098421096801758,1.6892049312591553,0.37406669704324613,99.0,1000.0,0.0
