button_choice,action_choice,coordinate_choice,reward,cumulative_reward,rt,total_trial_time,iti,block_n,trial_n,trial_type
R,U,"[5, 6]",1.0,1.0,0.7816669940948486,2.506294012069702,0.7068687873097961,0.0,1.0,0.0
Y,R,"[5, 7]",1.0,2.0,0.20529985427856445,1.9573779106140137,0.7475137651823567,0.0,2.0,0.0
Y,R,"[5, 8]",1.0,3.0,0.18958377838134766,1.9210009574890137,0.71847738762254,0.0,3.0,0.0
G,D,"[6, 8]",1.0,4.0,0.2398068904876709,1.7855088710784912,0.5374870937437404,0.0,4.0,0.0
Y,R,"[6, 9]",1.0,5.0,0.24541401863098145,1.5193960666656494,0.27381595528427927,0.0,5.0,0.0
Y,R,"[6, 10]",1.0,6.0,0.38871192932128906,1.720789909362793,0.32783737681996317,0.0,6.0,0.0
R,U,"[5, 10]",1.0,7.0,0.3592660427093506,1.863105058670044,0.507358576798812,0.0,7.0,0.0
R,U,"[4, 10]",1.0,8.0,0.2793619632720947,1.6993370056152344,0.42342954939142546,0.0,8.0,0.0
B,L,"[4, 9]",1.0,9.0,0.23433279991149902,1.8450918197631836,0.6183465938578827,0.0,9.0,0.0
R,U,"[3, 9]",1.0,10.0,0.12934613227844238,1.5501480102539062,0.41849114226486095,0.0,10.0,0.0
,,"(6, 6)",,,,,,,,
R,U,"[5, 6]",1.0,1.0,0.7019221782684326,6.378338813781738,0.6137426864702529,1.0,11.0,0.0
Y,R,"[5, 7]",1.0,2.0,0.19397687911987305,1.9206008911132812,0.7170743104452186,1.0,12.0,0.0
Y,R,"[5, 8]",1.0,3.0,0.23224115371704102,1.6877689361572266,0.4550565457934312,1.0,13.0,0.0
G,D,"[6, 8]",1.0,4.0,0.3589198589324951,1.9072201251983643,0.5454955898260689,1.0,14.0,0.0
Y,R,"[6, 9]",1.0,5.0,0.23733806610107422,1.7884490489959717,0.5507449556163687,1.0,15.0,0.0
Y,R,"[6, 10]",1.0,6.0,0.2209479808807373,1.8034510612487793,0.5872980634992031,1.0,16.0,0.0
G,D,"[7, 10]",0.0,6.0,0.30091190338134766,1.83565092086792,0.5394792507143252,1.0,17.0,0.0
R,U,"[6, 10]",0.0,6.0,0.24849987030029297,1.7866899967193604,0.5429465930944252,1.0,18.0,0.0
B,L,"[6, 9]",0.0,6.0,0.24621796607971191,1.952867031097412,0.712157305429572,1.0,19.0,0.0
R,U,"[5, 9]",0.0,6.0,0.23352599143981934,1.6113829612731934,0.3738683768303971,1.0,20.0,0.0
,,"(6, 6)",,,,,,,,
R,U,"[5, 6]",1.0,1.0,0.62965989112854,7.8635571002960205,0.37063499780293196,2.0,21.0,0.0
Y,R,"[5, 7]",1.0,2.0,0.2507619857788086,1.6667780876159668,0.42063955708415973,2.0,22.0,0.0
Y,R,"[5, 8]",1.0,3.0,0.2399580478668213,1.984976053237915,0.7388420725364782,2.0,23.0,0.0
G,D,"[6, 8]",1.0,4.0,0.17472100257873535,1.6405911445617676,0.4627923503017017,2.0,24.0,0.0
Y,R,"[6, 9]",1.0,5.0,0.20970797538757324,1.6830079555511475,0.4624533166303855,2.0,25.0,0.0
Y,R,"[6, 10]",1.0,6.0,0.20936799049377441,1.9230749607086182,0.7019288185145331,2.0,26.0,0.0
R,U,"[5, 10]",1.0,7.0,0.22792410850524902,1.7461979389190674,0.5149054946056054,2.0,27.0,0.0
R,U,"[4, 10]",1.0,8.0,0.23865294456481934,1.6687471866607666,0.43358957419250443,2.0,28.0,0.0
B,L,"[4, 9]",1.0,9.0,0.28101301193237305,1.8003461360931396,0.5172938680001797,2.0,29.0,0.0
R,U,"[3, 9]",1.0,10.0,0.2760019302368164,1.9843719005584717,0.7014294555555806,2.0,30.0,0.0
,,"(6, 6)",,,,,,,,
R,U,"[5, 6]",1.0,1.0,0.7887120246887207,4.268748998641968,0.27042650760129155,3.0,31.0,0.0
Y,R,"[5, 7]",1.0,2.0,0.28296613693237305,1.7447938919067383,0.4649798776816104,3.0,32.0,0.0
Y,R,"[5, 8]",1.0,3.0,0.20316195487976074,1.4689440727233887,0.2674285300369667,3.0,33.0,0.0
G,D,"[6, 8]",1.0,4.0,0.3688371181488037,1.6988868713378906,0.33292967687474184,3.0,34.0,0.0
Y,R,"[6, 9]",1.0,5.0,0.23127293586730957,1.9375200271606445,0.7033551567269043,3.0,35.0,0.0
Y,R,"[6, 10]",1.0,6.0,0.1919088363647461,1.6978859901428223,0.5014105706155914,3.0,36.0,0.0
R,U,"[5, 10]",1.0,7.0,0.21689200401306152,1.6987860202789307,0.48345952621408855,3.0,37.0,0.0
R,U,"[4, 10]",1.0,8.0,0.23690295219421387,1.7233588695526123,0.490143132943544,3.0,38.0,0.0
B,L,"[4, 9]",1.0,9.0,0.23621296882629395,1.5543220043182373,0.32799380884942375,3.0,39.0,0.0
R,U,"[3, 9]",1.0,10.0,0.26955485343933105,1.869292974472046,0.6135130809015936,3.0,40.0,0.0
,,"(6, 6)",,,,,,,,
R,U,"[5, 6]",1.0,1.0,0.6696250438690186,3.987112045288086,0.45069131247925037,4.0,41.0,0.0
Y,R,"[5, 7]",1.0,2.0,0.22452306747436523,1.9378001689910889,0.7049800512586125,4.0,42.0,0.0
Y,R,"[5, 8]",1.0,3.0,0.2041020393371582,1.9206159114837646,0.7255453247658585,4.0,43.0,0.0
G,D,"[6, 8]",1.0,4.0,0.23656702041625977,1.97011399269104,0.7455135410276408,4.0,44.0,0.0
Y,R,"[6, 9]",1.0,5.0,0.19312787055969238,1.7624180316925049,0.5583893979750076,4.0,45.0,0.0
Y,R,"[6, 10]",1.0,6.0,0.2592477798461914,1.5650529861450195,0.30668537937550056,4.0,46.0,0.0
R,U,"[5, 10]",1.0,7.0,0.2604398727416992,1.7802801132202148,0.5200752861170341,4.0,47.0,0.0
R,U,"[4, 10]",1.0,8.0,0.20904207229614258,1.768273115158081,0.5549714817814448,4.0,48.0,0.0
B,L,"[4, 9]",1.0,9.0,0.2784159183502197,1.927645206451416,0.6493949253270472,4.0,49.0,0.0
R,U,"[3, 9]",1.0,10.0,0.19708013534545898,1.842468023300171,0.6415212344643738,4.0,50.0,0.0
,,"(6, 6)",,,,,,,,
R,U,"[5, 6]",1.0,1.0,0.7779037952423096,3.443397045135498,0.26855329316522825,5.0,51.0,0.0
Y,R,"[5, 7]",1.0,2.0,0.2637021541595459,1.7495439052581787,0.48465068787061294,5.0,52.0,0.0
Y,R,"[5, 8]",1.0,3.0,0.24361300468444824,1.5506258010864258,0.3019404053483398,5.0,53.0,0.0
G,D,"[6, 8]",1.0,4.0,0.2906529903411865,1.6718859672546387,0.37379034753229445,5.0,54.0,0.0
Y,R,"[6, 9]",1.0,5.0,0.20747590065002441,1.5358028411865234,0.32628555622348626,5.0,55.0,0.0
Y,R,"[6, 10]",1.0,6.0,0.2796139717102051,1.9223768711090088,0.6481948810441407,5.0,56.0,0.0
R,U,"[5, 10]",1.0,7.0,0.23727107048034668,1.6372480392456055,0.4024333905057231,5.0,57.0,0.0
R,U,"[4, 10]",1.0,8.0,0.23604893684387207,1.7127339839935303,0.4816834514945308,5.0,58.0,0.0
B,L,"[4, 9]",1.0,9.0,0.24361014366149902,1.9656689167022705,0.7137012873310413,5.0,59.0,0.0
R,U,"[3, 9]",1.0,10.0,0.1668550968170166,1.5412747859954834,0.3719113415638497,5.0,60.0,0.0
,,"(6, 6)",,,,,,,,
R,U,"[5, 6]",1.0,1.0,0.7444071769714355,3.0114288330078125,0.4165807168587237,6.0,61.0,0.0
Y,R,"[5, 7]",1.0,2.0,0.2595670223236084,1.8532299995422363,0.5863701530921146,6.0,62.0,0.0
Y,R,"[5, 8]",1.0,3.0,0.2095658779144287,1.7589001655578613,0.5451773025795055,6.0,63.0,0.0
G,D,"[6, 8]",1.0,4.0,0.20909714698791504,1.719299077987671,0.49792978011208283,6.0,64.0,0.0
Y,R,"[6, 9]",1.0,5.0,0.1932051181793213,1.9322209358215332,0.730331616656307,6.0,65.0,0.0
Y,R,"[6, 10]",1.0,6.0,0.22780203819274902,1.731903076171875,0.49530976619904776,6.0,66.0,0.0
R,U,"[5, 10]",1.0,7.0,0.23749494552612305,1.7421460151672363,0.5041041817256895,6.0,67.0,0.0
R,U,"[4, 10]",1.0,8.0,0.2491610050201416,1.8335998058319092,0.5879480147429148,6.0,68.0,0.0
B,L,"[4, 9]",1.0,9.0,0.24292707443237305,1.992516040802002,0.7465402414353719,6.0,69.0,0.0
R,U,"[3, 9]",1.0,10.0,0.19984197616577148,1.731369972229004,0.5280814639345447,6.0,70.0,0.0
,,"(6, 6)",,,,,,,,
R,U,"[5, 6]",1.0,1.0,0.7396199703216553,3.0135350227355957,0.45815612621163276,7.0,71.0,0.0
Y,R,"[5, 7]",1.0,2.0,0.21641182899475098,1.7768349647521973,0.568307456125332,7.0,72.0,0.0
Y,R,"[5, 8]",1.0,3.0,0.21113991737365723,1.7517478466033936,0.536714247999986,7.0,73.0,0.0
G,D,"[6, 8]",1.0,4.0,0.2580909729003906,1.9540610313415527,0.6905270841429862,7.0,74.0,0.0
Y,R,"[6, 9]",1.0,5.0,0.20708203315734863,1.6088800430297852,0.39959405281323473,7.0,75.0,0.0
Y,R,"[6, 10]",1.0,6.0,0.23939990997314453,1.5078709125518799,0.2576867829667328,7.0,76.0,0.0
R,U,"[5, 10]",1.0,7.0,0.3793509006500244,1.9592640399932861,0.5832624098141741,7.0,77.0,0.0
R,U,"[4, 10]",1.0,8.0,0.16973519325256348,1.4984378814697266,0.331985927230356,7.0,78.0,0.0
B,L,"[4, 9]",1.0,9.0,0.23967289924621582,1.845005989074707,0.5932836726559536,7.0,79.0,0.0
R,U,"[3, 9]",1.0,10.0,0.2013239860534668,1.4942269325256348,0.30444357143760603,7.0,80.0,0.0
,,"(6, 6)",,,,,,,,
R,U,"[5, 6]",1.0,1.0,0.8465778827667236,3.7114789485931396,0.5155772722853351,8.0,81.0,0.0
Y,R,"[5, 7]",1.0,2.0,0.24467086791992188,1.8249800205230713,0.5738611851196611,8.0,82.0,0.0
Y,R,"[5, 8]",1.0,3.0,0.24700093269348145,1.5523271560668945,0.30975149441814437,8.0,83.0,0.0
G,D,"[6, 8]",1.0,4.0,0.35494184494018555,1.8457400798797607,0.505212230030343,8.0,84.0,0.0
Y,R,"[6, 9]",1.0,5.0,0.26119303703308105,1.9546570777893066,0.6930216912005901,8.0,85.0,0.0
Y,R,"[6, 10]",1.0,6.0,0.1989748477935791,1.516664981842041,0.32656585735984744,8.0,86.0,0.0
R,U,"[5, 10]",1.0,7.0,0.37824487686157227,1.6510260105133057,0.27768845344460985,8.0,87.0,0.0
R,U,"[4, 10]",1.0,8.0,0.3262300491333008,1.9518539905548096,0.6291872015511064,8.0,88.0,0.0
B,L,"[4, 9]",1.0,9.0,0.2529420852661133,1.9315950870513916,0.6773861662964858,8.0,89.0,0.0
R,U,"[3, 9]",1.0,10.0,0.19090700149536133,1.595548152923584,0.4063729569241565,8.0,90.0,0.0
,,"(6, 6)",,,,,,,,
R,U,"[5, 6]",1.0,1.0,0.6858811378479004,3.172528028488159,0.4956656155168878,9.0,91.0,0.0
Y,R,"[5, 7]",1.0,2.0,0.22051596641540527,1.5483968257904053,0.3272351716488369,9.0,92.0,0.0
Y,R,"[5, 8]",1.0,3.0,0.43516087532043457,1.7053840160369873,0.28272958197463766,9.0,93.0,0.0
G,D,"[6, 8]",1.0,4.0,0.34861302375793457,1.7878549098968506,0.4370091723678069,9.0,94.0,0.0
Y,R,"[6, 9]",1.0,5.0,0.22610211372375488,1.671968936920166,0.44236972250474194,9.0,95.0,0.0
Y,R,"[6, 10]",1.0,6.0,0.20752978324890137,1.6871600151062012,0.4794173407441404,9.0,96.0,0.0
R,U,"[5, 10]",1.0,7.0,0.3304579257965088,1.8373379707336426,0.5000325967321162,9.0,97.0,0.0
R,U,"[4, 10]",1.0,8.0,0.23013710975646973,1.9243779182434082,0.6908689948293367,9.0,98.0,0.0
B,L,"[4, 9]",1.0,9.0,0.2446880340576172,1.4984161853790283,0.2562504816641779,9.0,99.0,0.0
R,U,"[3, 9]",1.0,10.0,0.3818399906158447,2.028499126434326,0.6510961254009537,9.0,100.0,0.0
,,"(6, 6)",,,,,,,,
R,U,"[5, 6]",1.0,1.0,0.79178786277771,3.923625946044922,0.34159210477515733,10.0,101.0,0.0
Y,R,"[5, 7]",1.0,2.0,0.20363712310791016,1.5874049663543701,0.39558901567269866,10.0,102.0,0.0
Y,R,"[5, 8]",1.0,3.0,0.22936701774597168,1.7031521797180176,0.4653039937958787,10.0,103.0,0.0
G,D,"[6, 8]",1.0,4.0,0.21644186973571777,1.7384300231933594,0.5202055635438476,10.0,104.0,0.0
Y,R,"[6, 9]",1.0,5.0,0.21501803398132324,1.859921932220459,0.6466989914183954,10.0,105.0,0.0
Y,R,"[6, 10]",1.0,6.0,0.21143293380737305,1.5207910537719727,0.3010755836035707,10.0,106.0,0.0
R,U,"[5, 10]",1.0,7.0,0.28569793701171875,2.032210111618042,0.7495451539727158,10.0,107.0,0.0
R,U,"[4, 10]",1.0,8.0,0.20941591262817383,1.5014939308166504,0.2848006720974546,10.0,108.0,0.0
B,L,"[4, 9]",1.0,9.0,0.394287109375,1.7812848091125488,0.3825164525707167,10.0,109.0,0.0
R,U,"[3, 9]",1.0,10.0,0.2429790496826172,1.9376518726348877,0.6865485539612406,10.0,110.0,0.0
,,"(6, 6)",,,,,,,,
R,U,"[5, 6]",1.0,1.0,0.774648904800415,2.8007400035858154,0.47078614213402004,11.0,111.0,0.0
Y,R,"[5, 7]",1.0,2.0,0.21163105964660645,1.7605321407318115,0.5478190528640206,11.0,112.0,0.0
Y,R,"[5, 8]",1.0,3.0,0.2248680591583252,1.9261510372161865,0.6905661984644493,11.0,113.0,0.0
G,D,"[6, 8]",1.0,4.0,0.22323107719421387,1.7482600212097168,0.5222764205782243,11.0,114.0,0.0
Y,R,"[6, 9]",1.0,5.0,0.20421791076660156,1.5961530208587646,0.38516323544356873,11.0,115.0,0.0
Y,R,"[6, 10]",1.0,6.0,0.2452239990234375,1.6290879249572754,0.380979136408815,11.0,116.0,0.0
R,U,"[5, 10]",1.0,7.0,0.26689600944519043,1.6299829483032227,0.3607662657918246,11.0,117.0,0.0
R,U,"[4, 10]",1.0,8.0,0.3321859836578369,1.6059958934783936,0.283605992880741,11.0,118.0,0.0
B,L,"[4, 9]",1.0,9.0,0.3075101375579834,1.920022964477539,0.6032414035470313,11.0,119.0,0.0
R,U,"[3, 9]",1.0,10.0,0.2038707733154297,1.6280760765075684,0.43166410748470335,11.0,120.0,0.0
,,"(6, 6)",,,,,,,,
R,U,"[5, 6]",1.0,1.0,0.6673588752746582,2.4570858478546143,0.42180480674864085,12.0,121.0,0.0
Y,R,"[5, 7]",1.0,2.0,0.2076408863067627,1.7585978507995605,0.5469657309912246,12.0,122.0,0.0
Y,R,"[5, 8]",1.0,3.0,0.20528292655944824,1.9010469913482666,0.6813440937327964,12.0,123.0,0.0
G,D,"[6, 8]",1.0,4.0,0.21883010864257812,1.594308853149414,0.3757422179256718,12.0,124.0,0.0
Y,R,"[6, 9]",1.0,5.0,0.21246719360351562,1.9203698635101318,0.7124161645255871,12.0,125.0,0.0
Y,R,"[6, 10]",1.0,6.0,0.18714308738708496,1.626183032989502,0.43879878046615495,12.0,126.0,0.0
R,U,"[5, 10]",1.0,7.0,0.23943686485290527,1.8584840297698975,0.6137425447035698,12.0,127.0,0.0
R,U,"[4, 10]",1.0,8.0,0.20390796661376953,1.4816901683807373,0.27907191920997715,12.0,128.0,0.0
B,L,"[4, 9]",1.0,9.0,0.3394300937652588,2.0247559547424316,0.6698902367438755,12.0,129.0,0.0
R,U,"[3, 9]",1.0,10.0,0.20474004745483398,1.4818859100341797,0.28568888288422223,12.0,130.0,0.0
,,"(6, 6)",,,,,,,,
R,U,"[5, 6]",1.0,1.0,0.7322959899902344,3.129396915435791,0.28157252133461735,13.0,131.0,0.0
Y,R,"[5, 7]",1.0,2.0,0.2729940414428711,1.9346539974212646,0.6658360708141025,13.0,132.0,0.0
Y,R,"[5, 8]",1.0,3.0,0.20577502250671387,1.6706781387329102,0.4533403486514334,13.0,133.0,0.0
G,D,"[6, 8]",1.0,4.0,0.23006892204284668,1.5218050479888916,0.29185092046803535,13.0,134.0,0.0
Y,R,"[6, 9]",1.0,5.0,0.32028698921203613,1.9596190452575684,0.6512192083750403,13.0,135.0,0.0
Y,R,"[6, 10]",1.0,6.0,0.20082902908325195,1.7274267673492432,0.5286219395822879,13.0,136.0,0.0
R,U,"[5, 10]",1.0,7.0,0.20031309127807617,1.874216079711914,0.6693722589158555,13.0,137.0,0.0
R,U,"[4, 10]",1.0,8.0,0.21393895149230957,1.9281997680664062,0.7141053465751053,13.0,138.0,0.0
B,L,"[4, 9]",1.0,9.0,0.22136402130126953,1.8855419158935547,0.6496884485321636,13.0,139.0,0.0
R,U,"[3, 9]",1.0,10.0,0.16692304611206055,1.4482388496398926,0.28167495438550183,13.0,140.0,0.0
,,"(6, 6)",,,,,,,,
R,U,"[5, 6]",1.0,1.0,0.6817669868469238,2.738697052001953,0.7365216511851734,14.0,141.0,0.0
Y,R,"[5, 7]",1.0,2.0,0.20559191703796387,1.5217020511627197,0.32528092159098587,14.0,142.0,0.0
Y,R,"[5, 8]",1.0,3.0,0.24909090995788574,1.8294451236724854,0.5877770815847636,14.0,143.0,0.0
G,D,"[6, 8]",1.0,4.0,0.18350911140441895,1.697432041168213,0.5185560473746431,14.0,144.0,0.0
Y,R,"[6, 9]",1.0,5.0,0.18861794471740723,1.8126192092895508,0.6310545614069802,14.0,145.0,0.0
Y,R,"[6, 10]",1.0,6.0,0.20284318923950195,1.612684965133667,0.41041908022958423,14.0,146.0,0.0
R,U,"[5, 10]",1.0,7.0,0.306149959564209,1.9031050205230713,0.6134647075516072,14.0,147.0,0.0
R,U,"[4, 10]",1.0,8.0,0.19713592529296875,1.8181750774383545,0.6147950099583761,14.0,148.0,0.0
B,L,"[4, 9]",1.0,9.0,0.2204878330230713,1.851243019104004,0.6326123121445903,14.0,149.0,0.0
R,U,"[3, 9]",1.0,10.0,0.16245198249816895,1.4912340641021729,0.32421233512820186,14.0,150.0,0.0
,,"(6, 6)",,,,,,,,
R,U,"[5, 6]",1.0,1.0,0.6323180198669434,2.8358821868896484,0.5764894434772191,15.0,151.0,0.0
Y,R,"[5, 7]",1.0,2.0,0.22178411483764648,1.576742172241211,0.36993556502141073,15.0,152.0,0.0
Y,R,"[5, 8]",1.0,3.0,0.2144460678100586,1.6841199398040771,0.4707017231351662,15.0,153.0,0.0
G,D,"[6, 8]",1.0,4.0,0.26007914543151855,1.8954029083251953,0.6326247113117118,15.0,154.0,0.0
Y,R,"[6, 9]",1.0,5.0,0.20616984367370605,1.8174481391906738,0.6000561352064542,15.0,155.0,0.0
Y,R,"[6, 10]",1.0,6.0,0.2015528678894043,1.9089329242706299,0.7087814267922452,15.0,156.0,0.0
R,U,"[5, 10]",1.0,7.0,0.11316418647766113,1.5855989456176758,0.4778483640664029,15.0,157.0,0.0
R,U,"[4, 10]",1.0,8.0,0.2600429058074951,1.795121192932129,0.5396466461739979,15.0,158.0,0.0
B,L,"[4, 9]",1.0,9.0,0.25901293754577637,1.9652159214019775,0.7044967448449145,15.0,159.0,0.0
R,U,"[3, 9]",1.0,10.0,0.22532200813293457,1.8250980377197266,0.5963989622562075,15.0,160.0,0.0
,,"(6, 6)",,,,,,,,
R,U,"[5, 6]",1.0,1.0,0.6445980072021484,2.2864630222320557,0.299757845552361,16.0,161.0,0.0
Y,R,"[5, 7]",1.0,2.0,0.2736661434173584,1.9912688732147217,0.7073459693857289,16.0,162.0,0.0
Y,R,"[5, 8]",1.0,3.0,0.24529504776000977,1.7577378749847412,0.5152960133678597,16.0,163.0,0.0
G,D,"[6, 8]",1.0,4.0,0.32676005363464355,1.7239229679107666,0.38911539841638054,16.0,164.0,0.0
Y,R,"[6, 9]",1.0,5.0,0.203934907913208,1.8283882141113281,0.6339278927964151,16.0,165.0,0.0
Y,R,"[6, 10]",1.0,6.0,0.2055799961090088,1.94594407081604,0.7301104507219315,16.0,166.0,0.0
R,U,"[5, 10]",1.0,7.0,0.18655014038085938,1.4844119548797607,0.29794455975536943,16.0,167.0,0.0
R,U,"[4, 10]",1.0,8.0,0.2702140808105469,1.7871310710906982,0.5181707520787406,16.0,168.0,0.0
B,L,"[4, 9]",1.0,9.0,0.20893001556396484,1.8038170337677002,0.5885552626754195,16.0,169.0,0.0
R,U,"[3, 9]",1.0,10.0,0.2079448699951172,1.764394998550415,0.552935915925933,16.0,170.0,0.0
,,"(6, 6)",,,,,,,,
R,U,"[5, 6]",1.0,1.0,0.5960040092468262,2.888859987258911,0.5750506557946078,17.0,171.0,0.0
Y,R,"[5, 7]",1.0,2.0,0.18405604362487793,1.6461660861968994,0.4711711640756595,17.0,172.0,0.0
Y,R,"[5, 8]",1.0,3.0,0.2346210479736328,1.7814490795135498,0.5526100375875378,17.0,173.0,0.0
G,D,"[6, 8]",1.0,4.0,0.35852694511413574,1.9691710472106934,0.6050356045691317,17.0,174.0,0.0
Y,R,"[6, 9]",1.0,5.0,0.20684194564819336,1.5064539909362793,0.3117133317068959,17.0,175.0,0.0
Y,R,"[6, 10]",1.0,6.0,0.480802059173584,1.758681058883667,0.28699463091581157,17.0,176.0,0.0
R,U,"[5, 10]",1.0,7.0,0.5263280868530273,2.0161969661712646,0.4862105975269778,17.0,177.0,0.0
R,U,"[4, 10]",1.0,8.0,0.25075292587280273,1.9890739917755127,0.7418093969916457,17.0,178.0,0.0
B,L,"[4, 9]",1.0,9.0,0.2524569034576416,1.777937889099121,0.5365750194357419,17.0,179.0,0.0
R,U,"[3, 9]",1.0,10.0,0.2788088321685791,1.6120519638061523,0.33215616805141784,17.0,180.0,0.0
,,"(6, 6)",,,,,,,,
R,U,"[5, 6]",1.0,1.0,0.6745748519897461,2.587886095046997,0.3698651792602445,18.0,181.0,0.0
Y,R,"[5, 7]",1.0,2.0,0.2707180976867676,1.8203389644622803,0.5566546608834773,18.0,182.0,0.0
Y,R,"[5, 8]",1.0,3.0,0.20606708526611328,1.9517199993133545,0.7415605447417176,18.0,183.0,0.0
G,D,"[6, 8]",1.0,4.0,0.22505903244018555,1.5243160724639893,0.2994827806472932,18.0,184.0,0.0
Y,R,"[6, 9]",1.0,5.0,0.3096928596496582,1.6214468479156494,0.3043414683652662,18.0,185.0,0.0
Y,R,"[6, 10]",1.0,6.0,0.34503817558288574,1.6661450862884521,0.32043261785572763,18.0,186.0,0.0
R,U,"[5, 10]",1.0,7.0,0.35230112075805664,1.9331779479980469,0.5866552402085874,18.0,187.0,0.0
R,U,"[4, 10]",1.0,8.0,0.21706795692443848,1.6084158420562744,0.39521197854822293,18.0,188.0,0.0
B,L,"[4, 9]",1.0,9.0,0.26876306533813477,1.9338409900665283,0.6786468975110977,18.0,189.0,0.0
R,U,"[3, 9]",1.0,10.0,0.20298194885253906,1.8168411254882812,0.6121592892616483,18.0,190.0,0.0
,,"(6, 6)",,,,,,,,
R,U,"[5, 6]",1.0,1.0,0.6510889530181885,2.643662929534912,0.7056974396441322,19.0,191.0,0.0
Y,R,"[5, 7]",1.0,2.0,0.18900108337402344,1.937065839767456,0.7427972220671302,19.0,192.0,0.0
Y,R,"[5, 8]",1.0,3.0,0.20861196517944336,1.8384499549865723,0.6312265678941673,19.0,193.0,0.0
G,D,"[6, 8]",1.0,4.0,0.26662492752075195,1.5286881923675537,0.2602127435394914,19.0,194.0,0.0
Y,R,"[6, 9]",1.0,5.0,0.2529139518737793,1.6267499923706055,0.3868281222812902,19.0,195.0,0.0
Y,R,"[6, 10]",1.0,6.0,0.23359417915344238,1.4941248893737793,0.2643654293226019,19.0,196.0,0.0
R,U,"[5, 10]",1.0,7.0,0.32158803939819336,1.93221116065979,0.6127868901242085,19.0,197.0,0.0
R,U,"[4, 10]",1.0,8.0,0.2032010555267334,1.8952431678771973,0.6913456648378494,19.0,198.0,0.0
B,L,"[4, 9]",1.0,9.0,0.2319331169128418,1.4940690994262695,0.2692386940025269,19.0,199.0,0.0
R,U,"[3, 9]",1.0,10.0,0.37204408645629883,1.966444969177246,0.6018696275954778,19.0,200.0,0.0
,,"(6, 6)",,,,,,,,
R,U,"[5, 6]",1.0,1.0,0.6445140838623047,2.6812949180603027,0.40002800598080057,20.0,201.0,0.0
Y,R,"[5, 7]",1.0,2.0,0.22400307655334473,1.5557959079742432,0.3392019438581071,20.0,202.0,0.0
Y,R,"[5, 8]",1.0,3.0,0.25724315643310547,1.6340491771697998,0.3731619705883441,20.0,203.0,0.0
G,D,"[6, 8]",1.0,4.0,0.38371992111206055,1.8096089363098145,0.432533519861473,20.0,204.0,0.0
Y,R,"[6, 9]",1.0,5.0,0.2570841312408447,1.929455041885376,0.6619043885556761,20.0,205.0,0.0
Y,R,"[6, 10]",1.0,6.0,0.17003893852233887,1.4621870517730713,0.3076764791732818,20.0,206.0,0.0
R,U,"[5, 10]",1.0,7.0,0.3659708499908447,1.753697156906128,0.39452129627838245,20.0,207.0,0.0
R,U,"[4, 10]",1.0,8.0,0.39746594429016113,2.015275001525879,0.6261913859373903,20.0,208.0,0.0
B,L,"[4, 9]",1.0,9.0,0.19071698188781738,1.8709230422973633,0.6803285921148657,20.0,209.0,0.0
R,U,"[3, 9]",1.0,10.0,0.19274401664733887,1.6680989265441895,0.4653020859450648,20.0,210.0,0.0
,,"(6, 6)",,,,,,,,
R,U,"[5, 6]",1.0,1.0,0.7514619827270508,2.6720950603485107,0.5540184799117686,21.0,211.0,0.0
Y,R,"[5, 7]",1.0,2.0,0.2331528663635254,1.7070798873901367,0.4776887989594224,21.0,212.0,0.0
Y,R,"[5, 8]",1.0,3.0,0.2180500030517578,1.5026438236236572,0.29714053744564034,21.0,213.0,0.0
G,D,"[6, 8]",1.0,4.0,0.3793678283691406,2.0011861324310303,0.6146487624508354,21.0,214.0,0.0
Y,R,"[6, 9]",1.0,5.0,0.17334699630737305,1.6199800968170166,0.4348817101089196,21.0,215.0,0.0
Y,R,"[6, 10]",1.0,6.0,0.18064594268798828,1.4437170028686523,0.26202962909892474,21.0,216.0,0.0
R,U,"[5, 10]",1.0,7.0,0.8422980308532715,2.177867889404297,0.33981885479513535,21.0,217.0,0.0
R,U,"[4, 10]",1.0,8.0,0.31194496154785156,1.6617529392242432,0.3514242747123694,21.0,218.0,0.0
B,L,"[4, 9]",1.0,9.0,0.2513010501861572,1.8543641567230225,0.6055649755576988,21.0,219.0,0.0
R,U,"[3, 9]",1.0,10.0,0.22638797760009766,1.9176840782165527,0.6897271070973874,21.0,220.0,0.0
,,"(6, 6)",,,,,,,,
R,U,"[5, 6]",1.0,1.0,0.7718029022216797,2.890519142150879,0.663648965108675,22.0,221.0,0.0
Y,R,"[5, 7]",1.0,2.0,0.16256189346313477,1.6946330070495605,0.5249209167213666,22.0,222.0,0.0
Y,R,"[5, 8]",1.0,3.0,0.23781299591064453,1.4752349853515625,0.2503946812027422,22.0,223.0,0.0
G,D,"[6, 8]",1.0,4.0,0.31283116340637207,1.810060977935791,0.4934607542143908,22.0,224.0,0.0
Y,R,"[6, 9]",1.0,5.0,0.1789991855621338,1.7391901016235352,0.5660273574673659,22.0,225.0,0.0
Y,R,"[6, 10]",1.0,6.0,0.1974191665649414,1.9485180377960205,0.7476278169562576,22.0,226.0,0.0
R,U,"[5, 10]",1.0,7.0,0.23194289207458496,1.972895860671997,0.7371733962989058,22.0,227.0,0.0
R,U,"[4, 10]",1.0,8.0,0.23178410530090332,1.5014069080352783,0.2723709558795485,22.0,228.0,0.0
B,L,"[4, 9]",1.0,9.0,0.3072490692138672,1.6795709133148193,0.36834481296074445,22.0,229.0,0.0
R,U,"[3, 9]",1.0,10.0,0.2888619899749756,1.8222780227661133,0.5405453821464261,22.0,230.0,0.0
,,"(6, 6)",,,,,,,,
R,U,"[5, 6]",1.0,1.0,0.7403891086578369,2.469844102859497,0.46040424723875834,23.0,231.0,0.0
Y,R,"[5, 7]",1.0,2.0,0.2514829635620117,1.924511194229126,0.6846424760057044,23.0,232.0,0.0
Y,R,"[5, 8]",1.0,3.0,0.22620797157287598,1.5929880142211914,0.36124780419550634,23.0,233.0,0.0
G,D,"[6, 8]",1.0,4.0,0.371783971786499,1.6731829643249512,0.30113023382783133,23.0,234.0,0.0
Y,R,"[6, 9]",1.0,5.0,0.23855996131896973,1.9526679515838623,0.7032716478728586,23.0,235.0,0.0
Y,R,"[6, 10]",1.0,6.0,0.24442100524902344,1.9518611431121826,0.7052175607940103,23.0,236.0,0.0
R,U,"[5, 10]",-1.0,6.0,0.04299211502075195,5.446091175079346,0.35152738377726234,23.0,237.0,0.0
R,U,"[4, 10]",1.0,7.0,0.35361194610595703,1.699394941329956,0.3508198327158737,23.0,238.0,0.0
B,L,"[4, 9]",1.0,8.0,0.3363478183746338,1.9731130599975586,0.640273777926313,23.0,239.0,0.0
R,U,"[3, 9]",1.0,9.0,0.30915188789367676,1.5674419403076172,0.2746134343018283,23.0,240.0,0.0
,,"(6, 6)",,,,,,,,
R,U,"[5, 6]",1.0,1.0,0.7274668216705322,3.386291980743408,0.41075657670755283,24.0,241.0,0.0
Y,R,"[5, 7]",1.0,2.0,0.2586688995361328,1.653630018234253,0.3976838869059317,24.0,242.0,0.0
Y,R,"[5, 8]",1.0,3.0,0.3649778366088867,2.096715211868286,0.7274712657925593,24.0,243.0,0.0
G,D,"[6, 8]",1.0,4.0,0.24484491348266602,1.7555041313171387,0.5164777326025882,24.0,244.0,0.0
Y,R,"[6, 9]",1.0,5.0,0.2179429531097412,1.8007099628448486,0.5837144326443093,24.0,245.0,0.0
Y,R,"[6, 10]",1.0,6.0,0.24306988716125488,1.7946979999542236,0.5449909931788481,24.0,246.0,0.0
R,U,"[5, 10]",1.0,7.0,0.33022594451904297,1.68756103515625,0.3660861695773069,24.0,247.0,0.0
R,U,"[4, 10]",1.0,8.0,0.3016078472137451,1.8334410190582275,0.5329907089466723,24.0,248.0,0.0
B,L,"[4, 9]",1.0,9.0,0.327272891998291,1.9519059658050537,0.6178284080472252,24.0,249.0,0.0
R,U,"[3, 9]",1.0,10.0,0.2162489891052246,1.6225440502166748,0.4071172207644912,24.0,250.0,0.0
,,"(6, 6)",,,,,,,,
R,U,"[5, 6]",1.0,1.0,0.7694351673126221,2.813046932220459,0.5532837465054049,25.0,251.0,0.0
Y,R,"[5, 7]",1.0,2.0,0.2330639362335205,1.783815860748291,0.553818858521214,25.0,252.0,0.0
Y,R,"[5, 8]",1.0,3.0,0.3385429382324219,1.8348610401153564,0.48871093529114223,25.0,253.0,0.0
G,D,"[6, 8]",1.0,4.0,0.30715417861938477,1.7050340175628662,0.3937365531301736,25.0,254.0,0.0
Y,R,"[6, 9]",1.0,5.0,0.2881648540496826,1.6427769660949707,0.369921411757196,25.0,255.0,0.0
Y,R,"[6, 10]",1.0,6.0,0.4891660213470459,2.0157110691070557,0.5187333488770904,25.0,256.0,0.0
R,U,"[5, 10]",1.0,7.0,0.2584850788116455,1.9903209209442139,0.7255144513213408,25.0,257.0,0.0
R,U,"[4, 10]",1.0,8.0,0.22813200950622559,1.6398749351501465,0.4155358168475367,25.0,258.0,0.0
B,L,"[4, 9]",1.0,9.0,0.25821900367736816,1.9026319980621338,0.6346221882507772,25.0,259.0,0.0
R,U,"[3, 9]",1.0,10.0,0.2034289836883545,1.8507580757141113,0.6520620609432007,25.0,260.0,0.0
,,"(6, 6)",,,,,,,,
R,U,"[5, 6]",1.0,1.0,0.7038919925689697,2.8995590209960938,0.2519812155593619,26.0,261.0,0.0
Y,R,"[5, 7]",1.0,2.0,0.3231008052825928,1.681839942932129,0.36687589906407114,26.0,262.0,0.0
Y,R,"[5, 8]",1.0,3.0,0.30483198165893555,1.7725560665130615,0.4726294170740777,26.0,263.0,0.0
G,D,"[6, 8]",1.0,4.0,0.23508095741271973,1.54811692237854,0.32085698432981063,26.0,264.0,0.0
Y,R,"[6, 9]",1.0,5.0,0.2314589023590088,1.8435180187225342,0.6140456940055063,26.0,265.0,0.0
Y,R,"[6, 10]",1.0,6.0,0.2241659164428711,1.7868399620056152,0.551001422312134,26.0,266.0,0.0
R,U,"[5, 10]",1.0,7.0,0.23863911628723145,1.4989609718322754,0.2669473640908896,26.0,267.0,0.0
R,U,"[4, 10]",1.0,8.0,0.350693941116333,1.6572508811950684,0.3074040662625891,26.0,268.0,0.0
B,L,"[4, 9]",1.0,9.0,0.3556690216064453,2.035876989364624,0.6761754240467948,26.0,269.0,0.0
R,U,"[3, 9]",1.0,10.0,0.18629813194274902,1.7411911487579346,0.5673940693710424,26.0,270.0,0.0
,,"(6, 6)",,,,,,,,
R,U,"[5, 6]",1.0,1.0,0.6045670509338379,2.727485179901123,0.7446479312541213,27.0,271.0,0.0
Y,R,"[5, 7]",1.0,2.0,0.19770193099975586,1.6634910106658936,0.47508750876671496,27.0,272.0,0.0
Y,R,"[5, 8]",1.0,3.0,0.24713706970214844,1.736948013305664,0.4953337035247647,27.0,273.0,0.0
G,D,"[6, 8]",1.0,4.0,0.34447288513183594,1.8818600177764893,0.5271216069417084,27.0,274.0,0.0
Y,R,"[6, 9]",1.0,5.0,0.2352309226989746,1.5829930305480957,0.3601763767092107,27.0,275.0,0.0
Y,R,"[6, 10]",1.0,6.0,0.401975154876709,1.8219621181488037,0.4319578322162057,27.0,276.0,0.0
R,U,"[5, 10]",1.0,7.0,0.2945740222930908,1.6596691608428955,0.3584512976868263,27.0,277.0,0.0
R,U,"[4, 10]",1.0,8.0,0.33863306045532227,2.0328269004821777,0.6912206828271932,27.0,278.0,0.0
B,L,"[4, 9]",1.0,9.0,0.1582479476928711,1.7864930629730225,0.6274173188462319,27.0,279.0,0.0
R,U,"[3, 9]",1.0,10.0,0.19381999969482422,1.845201015472412,0.6558642313847676,27.0,280.0,0.0
,,"(6, 6)",,,,,,,,
R,U,"[5, 6]",1.0,1.0,0.697437047958374,2.7686851024627686,0.6245153464490276,28.0,281.0,0.0
Y,R,"[5, 7]",1.0,2.0,0.21431207656860352,1.610280990600586,0.40171129990128573,28.0,282.0,0.0
Y,R,"[5, 8]",1.0,3.0,0.32745790481567383,1.9715030193328857,0.6397902577327925,28.0,283.0,0.0
G,D,"[6, 8]",1.0,4.0,0.19977402687072754,1.9211628437042236,0.7273239774877206,28.0,284.0,0.0
Y,R,"[6, 9]",1.0,5.0,0.19112300872802734,1.5959930419921875,0.4068669694438818,28.0,285.0,0.0
Y,R,"[6, 10]",1.0,6.0,0.2313380241394043,1.8619608879089355,0.635636259008163,28.0,286.0,0.0
R,U,"[5, 10]",1.0,7.0,0.26343607902526855,1.5858280658721924,0.3212766683006936,28.0,287.0,0.0
R,U,"[4, 10]",1.0,8.0,0.24988603591918945,1.8699910640716553,0.6243915257579795,28.0,288.0,0.0
B,L,"[4, 9]",1.0,9.0,0.2488558292388916,1.4980931282043457,0.2561074167235934,28.0,289.0,0.0
R,U,"[3, 9]",1.0,10.0,0.36141514778137207,1.9341049194335938,0.5731011469137376,28.0,290.0,0.0
,,"(6, 6)",,,,,,,,
R,U,"[5, 6]",1.0,1.0,0.6642677783966064,2.701050043106079,0.6245417617112334,29.0,291.0,0.0
Y,R,"[5, 7]",1.0,2.0,0.25200605392456055,1.702775001525879,0.46032951269920513,29.0,292.0,0.0
Y,R,"[5, 8]",1.0,3.0,0.30802392959594727,1.674785852432251,0.3685493633800677,29.0,293.0,0.0
G,D,"[6, 8]",1.0,4.0,0.3827199935913086,2.1247048377990723,0.7427593261200267,29.0,294.0,0.0
Y,R,"[6, 9]",1.0,5.0,0.5044469833374023,2.239778995513916,0.7491477389898133,29.0,295.0,0.0
Y,R,"[6, 10]",1.0,6.0,0.20102286338806152,1.4793729782104492,0.27901364023767045,29.0,296.0,0.0
R,U,"[5, 10]",1.0,7.0,0.36958980560302734,1.6674039363861084,0.2962798717730349,29.0,297.0,0.0
R,U,"[4, 10]",1.0,8.0,0.45898008346557617,1.9336109161376953,0.4630380098267251,29.0,298.0,0.0
B,L,"[4, 9]",1.0,9.0,0.29960012435913086,1.987224817276001,0.6833875520768927,29.0,299.0,0.0
R,U,"[3, 9]",1.0,10.0,0.24826502799987793,1.6886060237884521,0.43883756580293765,29.0,300.0,0.0
,,"(6, 6)",,,,,,,,
R,U,"[5, 6]",1.0,1.0,0.7405960559844971,2.6849889755249023,0.3738123136927359,30.0,301.0,0.0
Y,R,"[5, 7]",1.0,2.0,0.2645840644836426,1.605989933013916,0.34653873459404694,30.0,302.0,0.0
Y,R,"[5, 8]",1.0,3.0,0.3018817901611328,1.9644711017608643,0.6606800759107705,30.0,303.0,0.0
G,D,"[6, 8]",1.0,4.0,0.22011709213256836,1.5293450355529785,0.32367996318290015,30.0,304.0,0.0
Y,R,"[6, 9]",1.0,5.0,0.31473302841186523,1.7920281887054443,0.4821542126285019,30.0,305.0,0.0
Y,R,"[6, 10]",1.0,6.0,0.2645759582519531,1.7593040466308594,0.4913533913795984,30.0,306.0,0.0
R,U,"[5, 10]",1.0,7.0,0.3075220584869385,1.9038190841674805,0.5949637331456196,30.0,307.0,0.0
R,U,"[4, 10]",1.0,8.0,0.19926190376281738,1.4490950107574463,0.2611532995571484,30.0,308.0,0.0
B,L,"[4, 9]",1.0,9.0,0.43650102615356445,1.9011578559875488,0.47869572465775184,30.0,309.0,0.0
R,U,"[3, 9]",1.0,10.0,0.3008289337158203,1.8556568622589111,0.5508890850371004,30.0,310.0,0.0
,,"(6, 6)",,,,,,,,
R,U,"[5, 6]",1.0,1.0,0.6506140232086182,2.682647943496704,0.6169705192400992,31.0,311.0,0.0
Y,R,"[5, 7]",1.0,2.0,0.18553900718688965,1.8673670291900635,0.6840279615776813,31.0,312.0,0.0
Y,R,"[5, 8]",1.0,3.0,0.19479894638061523,1.8876450061798096,0.6882308449457764,31.0,313.0,0.0
G,D,"[6, 8]",1.0,4.0,0.24871015548706055,1.758944034576416,0.5139269748670596,31.0,314.0,0.0
Y,R,"[6, 9]",1.0,5.0,0.22176814079284668,1.7885470390319824,0.569209402659507,31.0,315.0,0.0
Y,R,"[6, 10]",1.0,6.0,0.21637392044067383,1.5011558532714844,0.2871212409740649,31.0,316.0,0.0
R,U,"[5, 10]",1.0,7.0,0.35239696502685547,1.6075539588928223,0.2613318919842726,31.0,317.0,0.0
R,U,"[4, 10]",1.0,8.0,0.4983711242675781,1.9890589714050293,0.5002658527552898,31.0,318.0,0.0
B,L,"[4, 9]",1.0,9.0,0.2524709701538086,1.8482658863067627,0.5983739431613277,31.0,319.0,0.0
R,U,"[3, 9]",1.0,10.0,0.1963188648223877,1.63053297996521,0.4290048832244849,31.0,320.0,0.0
,,"(6, 6)",,,,,,,,
R,U,"[5, 6]",1.0,1.0,0.556502103805542,3.5113298892974854,0.7233061073620974,32.0,321.0,0.0
Y,R,"[5, 7]",1.0,2.0,0.22502493858337402,1.8577630519866943,0.6311707509592961,32.0,322.0,0.0
Y,R,"[5, 8]",1.0,3.0,0.2323291301727295,1.7954280376434326,0.5598527431628095,32.0,323.0,0.0
G,D,"[6, 8]",1.0,4.0,0.22025084495544434,1.9523870944976807,0.7454667201839298,32.0,324.0,0.0
Y,R,"[6, 9]",1.0,5.0,0.18735003471374512,1.7296760082244873,0.5418980866911234,32.0,325.0,0.0
Y,R,"[6, 10]",1.0,6.0,0.2705559730529785,2.0072669982910156,0.7490616979425073,32.0,326.0,0.0
R,U,"[5, 10]",1.0,7.0,0.23499107360839844,1.8695459365844727,0.6351753670067684,32.0,327.0,0.0
R,U,"[4, 10]",1.0,8.0,0.17023682594299316,1.8641788959503174,0.6992119559855796,32.0,328.0,0.0
B,L,"[4, 9]",1.0,9.0,0.2446742057800293,1.933109998703003,0.6823336243286733,32.0,329.0,0.0
R,U,"[3, 9]",1.0,10.0,0.20545101165771484,1.7708990573883057,0.5700234143982118,32.0,330.0,0.0
,,"(6, 6)",,,,,,,,
R,U,"[5, 6]",1.0,1.0,0.8015661239624023,2.7879600524902344,0.6244606475739345,33.0,331.0,0.0
Y,R,"[5, 7]",1.0,2.0,0.240203857421875,1.9901669025421143,0.7478886018420787,33.0,332.0,0.0
Y,R,"[5, 8]",1.0,3.0,0.22321510314941406,1.5785508155822754,0.34339137635829214,33.0,333.0,0.0
G,D,"[6, 8]",1.0,4.0,0.3404970169067383,1.629640817642212,0.2898132711471792,33.0,334.0,0.0
Y,R,"[6, 9]",1.0,5.0,0.27620983123779297,1.914391040802002,0.6370288617971898,33.0,335.0,0.0
Y,R,"[6, 10]",1.0,6.0,0.24643301963806152,1.5369479656219482,0.29111090291049324,33.0,336.0,0.0
R,U,"[5, 10]",1.0,7.0,0.2941138744354248,1.9612019062042236,0.6685351505521454,33.0,337.0,0.0
R,U,"[4, 10]",1.0,8.0,0.19670581817626953,1.5311739444732666,0.3332797411215056,33.0,338.0,0.0
G,D,"[5, 10]",0.0,8.0,0.3601698875427246,1.8493659496307373,0.48249098643057453,33.0,339.0,0.0
R,U,"[4, 10]",0.0,8.0,0.20206594467163086,1.4971520900726318,0.29637690478567746,33.0,340.0,0.0
,,"(6, 6)",,,,,,,,
R,U,"[5, 6]",1.0,1.0,0.684952974319458,2.6457340717315674,0.3087794593309596,34.0,341.0,0.0
Y,R,"[5, 7]",1.0,2.0,0.2067558765411377,1.5177390575408936,0.30987504995786364,34.0,342.0,0.0
Y,R,"[5, 8]",1.0,3.0,0.2510831356048584,1.666308879852295,0.42592288010100543,34.0,343.0,0.0
G,D,"[6, 8]",1.0,4.0,0.2974519729614258,1.8388278484344482,0.5479712982671507,34.0,344.0,0.0
Y,R,"[6, 9]",1.0,5.0,0.18228697776794434,1.5319769382476807,0.34681019986483874,34.0,345.0,0.0
Y,R,"[6, 10]",1.0,6.0,0.26501917839050293,1.6008000373840332,0.3309293523069704,34.0,346.0,0.0
R,U,"[5, 10]",1.0,7.0,0.24605703353881836,1.787254810333252,0.5346532079082682,34.0,347.0,0.0
R,U,"[4, 10]",1.0,8.0,0.17165899276733398,1.4769940376281738,0.3117890252948912,34.0,348.0,0.0
B,L,"[4, 9]",1.0,9.0,0.32201313972473145,1.8195831775665283,0.49780054342911867,34.0,349.0,0.0
R,U,"[3, 9]",1.0,10.0,0.1937110424041748,1.8237760066986084,0.6214218702100336,34.0,350.0,0.0
,,"(6, 6)",,,,,,,,
R,U,"[5, 6]",1.0,1.0,0.5469930171966553,2.4048311710357666,0.509683521251113,35.0,351.0,0.0
Y,R,"[5, 7]",-1.0,1.0,0.030625104904174805,5.827856063842773,0.7371374515380936,35.0,352.0,0.0
Y,R,"[5, 8]",1.0,2.0,0.2576310634613037,1.7623460292816162,0.4997111203505834,35.0,353.0,0.0
Y,R,"[5, 9]",0.0,2.0,0.25093507766723633,1.5646228790283203,0.31449127181101394,35.0,354.0,0.0
R,U,"[4, 9]",1.0,3.0,0.3992269039154053,2.1078438758850098,0.7051024021657886,35.0,355.0,0.0
B,L,"[4, 8]",0.0,3.0,0.24625015258789062,1.5741639137268066,0.3297255723315655,35.0,356.0,0.0
R,U,"[3, 8]",0.0,3.0,0.2598898410797119,1.6653311252593994,0.3948674660049463,35.0,357.0,0.0
R,U,"[2, 8]",0.0,3.0,0.3258390426635742,1.7673320770263672,0.4455831383732037,35.0,358.0,0.0
R,U,"[1, 8]",0.0,3.0,0.3575761318206787,1.7706639766693115,0.39953903439760113,35.0,359.0,0.0
B,L,"[1, 7]",0.0,3.0,0.4078700542449951,1.6695630550384521,0.252506578434079,35.0,360.0,0.0
,,"(6, 6)",,,,,,,,
R,U,"[5, 6]",1.0,1.0,0.7072939872741699,5.643554925918579,0.6621203073871434,36.0,361.0,0.0
Y,R,"[5, 7]",1.0,2.0,0.2444000244140625,1.6910359859466553,0.43677993796896664,36.0,362.0,0.0
Y,R,"[5, 8]",1.0,3.0,0.28679895401000977,1.757012128829956,0.4769331311776647,36.0,363.0,0.0
G,D,"[6, 8]",1.0,4.0,0.2637939453125,1.6761670112609863,0.419925584376369,36.0,364.0,0.0
Y,R,"[6, 9]",1.0,5.0,0.2404320240020752,1.5690150260925293,0.32224050096750934,36.0,365.0,0.0
Y,R,"[6, 10]",1.0,6.0,0.48908495903015137,2.050135850906372,0.5721768470990289,36.0,366.0,0.0
R,U,"[5, 10]",1.0,7.0,0.20570802688598633,1.7415220737457275,0.5303976294580715,36.0,367.0,0.0
R,U,"[4, 10]",1.0,8.0,0.2311849594116211,1.5374300479888916,0.30129531164974865,36.0,368.0,0.0
B,L,"[4, 9]",1.0,9.0,0.3354160785675049,1.6379427909851074,0.3059231364568648,36.0,369.0,0.0
R,U,"[3, 9]",1.0,10.0,0.259289026260376,1.7687509059906006,0.5076827944810303,36.0,370.0,0.0
,,"(6, 6)",,,,,,,,
R,U,"[5, 6]",1.0,1.0,0.8542358875274658,2.9228861331939697,0.2807586857841563,37.0,371.0,0.0
Y,R,"[5, 7]",1.0,2.0,0.22495698928833008,1.967773199081421,0.7313991618186118,37.0,372.0,0.0
Y,R,"[5, 8]",1.0,3.0,0.20533084869384766,1.6420660018920898,0.423703516534406,37.0,373.0,0.0
G,D,"[6, 8]",1.0,4.0,0.29000306129455566,1.8545808792114258,0.5615253008671426,37.0,374.0,0.0
Y,R,"[6, 9]",1.0,5.0,0.19996213912963867,1.561842918395996,0.3734896041246509,37.0,375.0,0.0
Y,R,"[6, 10]",1.0,6.0,0.22844409942626953,1.7684071063995361,0.5416710438717606,37.0,376.0,0.0
R,U,"[5, 10]",1.0,7.0,0.23853302001953125,1.9610700607299805,0.7357992379713794,37.0,377.0,0.0
R,U,"[4, 10]",1.0,8.0,0.20495295524597168,1.743013858795166,0.5456466718707328,37.0,378.0,0.0
B,L,"[4, 9]",1.0,9.0,0.31598806381225586,1.6407248973846436,0.3199707013416219,37.0,379.0,0.0
R,U,"[3, 9]",1.0,10.0,0.2456209659576416,1.549941062927246,0.30318251230386406,37.0,380.0,0.0
,,"(6, 6)",,,,,,,,
R,U,"[5, 6]",1.0,1.0,0.5911338329315186,5.218923091888428,0.42189145850974713,38.0,381.0,0.0
Y,R,"[5, 7]",1.0,2.0,0.2158679962158203,1.7825751304626465,0.5709821301241562,38.0,382.0,0.0
Y,R,"[5, 8]",1.0,3.0,0.18654799461364746,1.8551409244537354,0.6759677000658681,38.0,383.0,0.0
G,D,"[6, 8]",1.0,4.0,0.2526538372039795,1.716951847076416,0.4764017396513987,38.0,384.0,0.0
Y,R,"[6, 9]",1.0,5.0,0.2068040370941162,1.6771540641784668,0.47043463929846024,38.0,385.0,0.0
Y,R,"[6, 10]",1.0,6.0,0.19852685928344727,1.7942500114440918,0.5974922331545074,38.0,386.0,0.0
R,U,"[5, 10]",1.0,7.0,0.23246383666992188,1.8406920433044434,0.6049816867726061,38.0,387.0,0.0
R,U,"[4, 10]",1.0,8.0,0.23471808433532715,1.7943830490112305,0.5660853480170795,38.0,388.0,0.0
B,L,"[4, 9]",1.0,9.0,0.21915316581726074,1.5198910236358643,0.3027543200447444,38.0,389.0,0.0
R,U,"[3, 9]",1.0,10.0,0.2714378833770752,1.8516981601715088,0.5707389518475385,38.0,390.0,0.0
,,"(6, 6)",,,,,,,,
R,U,"[5, 6]",1.0,1.0,0.792658805847168,3.009506940841675,0.2638786862467572,39.0,391.0,0.0
Y,R,"[5, 7]",1.0,2.0,0.24779391288757324,1.9414350986480713,0.6880763294487668,39.0,392.0,0.0
Y,R,"[5, 8]",1.0,3.0,0.23138809204101562,1.517751932144165,0.2896385690637765,39.0,393.0,0.0
G,D,"[6, 8]",1.0,4.0,0.4037141799926758,1.697016954421997,0.30330480113658537,39.0,394.0,0.0
Y,R,"[6, 9]",1.0,5.0,0.2520010471343994,1.8380110263824463,0.5909809254560485,39.0,395.0,0.0
Y,R,"[6, 10]",1.0,6.0,0.20836591720581055,1.811830997467041,0.6027016465695327,39.0,396.0,0.0
R,U,"[5, 10]",1.0,7.0,0.2036731243133545,1.8191909790039062,0.6222116506003793,39.0,397.0,0.0
R,U,"[4, 10]",1.0,8.0,0.19103002548217773,1.688817024230957,0.4941708413127879,39.0,398.0,0.0
B,L,"[4, 9]",1.0,9.0,0.2616760730743408,1.5335371494293213,0.2779265854733128,39.0,399.0,0.0
R,U,"[3, 9]",1.0,10.0,0.2583298683166504,1.8690569400787354,0.6131393288620341,39.0,400.0,0.0
,,"(6, 6)",,,,,,,,
R,U,"[5, 6]",1.0,1.0,0.704193115234375,2.9975838661193848,0.6272227303385496,40.0,401.0,0.0
Y,R,"[5, 7]",1.0,2.0,0.1886310577392578,1.4806139469146729,0.30816347391685994,40.0,402.0,0.0
Y,R,"[5, 8]",1.0,3.0,0.4057488441467285,1.737213134765625,0.32875570252642344,40.0,403.0,0.0
G,D,"[6, 8]",1.0,4.0,0.45661091804504395,1.9459350109100342,0.4911680610084783,40.0,404.0,0.0
Y,R,"[6, 9]",1.0,5.0,0.21894097328186035,1.8299708366394043,0.6212354315263191,40.0,405.0,0.0
Y,R,"[6, 10]",1.0,6.0,0.26458215713500977,1.5480618476867676,0.28583670227525976,40.0,406.0,0.0
R,U,"[5, 10]",1.0,7.0,0.30753302574157715,1.6039819717407227,0.28993968526399677,40.0,407.0,0.0
R,U,"[4, 10]",1.0,8.0,0.35604095458984375,2.026650905609131,0.6660891300110745,40.0,408.0,0.0
B,L,"[4, 9]",1.0,9.0,0.26689887046813965,1.9502441883087158,0.6830595055047723,40.0,409.0,0.0
R,U,"[3, 9]",1.0,10.0,0.2072751522064209,1.8023149967193604,0.5853717337612913,40.0,410.0,0.0
,,"(6, 6)",,,,,,,,
R,U,"[5, 6]",1.0,1.0,0.6668839454650879,2.6421611309051514,0.4275625011292767,41.0,411.0,0.0
Y,R,"[5, 7]",1.0,2.0,0.24681901931762695,1.7313997745513916,0.49229898951521484,41.0,412.0,0.0
Y,R,"[5, 8]",1.0,3.0,0.18058490753173828,1.690903902053833,0.5165603047319595,41.0,413.0,0.0
G,D,"[6, 8]",1.0,4.0,0.21861815452575684,1.5347399711608887,0.3180399445859877,41.0,414.0,0.0
Y,R,"[6, 9]",1.0,5.0,0.3502790927886963,2.041516065597534,0.6928422669536344,41.0,415.0,0.0
Y,R,"[6, 10]",1.0,6.0,0.19481301307678223,1.481590986251831,0.2909756461435084,41.0,416.0,0.0
R,U,"[5, 10]",1.0,7.0,0.2704899311065674,1.7054100036621094,0.4462196874504114,41.0,417.0,0.0
R,U,"[4, 10]",1.0,8.0,0.21680402755737305,1.7850911617279053,0.5645416572939513,41.0,418.0,0.0
B,L,"[4, 9]",1.0,9.0,0.24454092979431152,1.65358304977417,0.40161881815026784,41.0,419.0,0.0
R,U,"[3, 9]",1.0,10.0,0.15944194793701172,1.4493980407714844,0.2844215189006435,41.0,420.0,0.0
,,"(6, 6)",,,,,,,,
R,U,"[5, 6]",1.0,1.0,0.6541450023651123,2.710850954055786,0.295264760689913,42.0,421.0,0.0
Y,R,"[5, 7]",1.0,2.0,0.2543928623199463,1.7645888328552246,0.5262266301483904,42.0,422.0,0.0
Y,R,"[5, 8]",1.0,3.0,0.25313591957092285,1.7334389686584473,0.493150809256997,42.0,423.0,0.0
G,D,"[6, 8]",1.0,4.0,0.24139094352722168,1.8838129043579102,0.643453289771366,42.0,424.0,0.0
Y,R,"[6, 9]",1.0,5.0,0.16802597045898438,1.5159251689910889,0.35944572515841733,42.0,425.0,0.0
Y,R,"[6, 10]",1.0,6.0,0.3373291492462158,1.973452091217041,0.6491988008556984,42.0,426.0,0.0
R,U,"[5, 10]",1.0,7.0,0.253277063369751,1.5215740203857422,0.27103315805296846,42.0,427.0,0.0
R,U,"[4, 10]",1.0,8.0,0.3192739486694336,1.5669059753417969,0.2545910982248675,42.0,428.0,0.0
B,L,"[4, 9]",1.0,9.0,0.3515200614929199,1.7889890670776367,0.4434559121363056,42.0,429.0,0.0
R,U,"[3, 9]",1.0,10.0,0.2673461437225342,1.649317979812622,0.3928033345091078,42.0,430.0,0.0
,,"(6, 6)",,,,,,,,
R,U,"[5, 6]",1.0,1.0,0.5982520580291748,3.711351156234741,0.637154083670753,43.0,431.0,0.0
Y,R,"[5, 7]",1.0,2.0,0.20760393142700195,1.6890580654144287,0.4764006046581151,43.0,432.0,0.0
Y,R,"[5, 8]",1.0,3.0,0.25027012825012207,1.8762791156768799,0.6356534666972815,43.0,433.0,0.0
G,D,"[6, 8]",1.0,4.0,0.2448561191558838,1.6552319526672363,0.4078404882221724,43.0,434.0,0.0
Y,R,"[6, 9]",1.0,5.0,0.2622079849243164,1.7886769771575928,0.52973597985156,43.0,435.0,0.0
Y,R,"[6, 10]",1.0,6.0,0.29193997383117676,1.6156010627746582,0.3122098019565652,43.0,436.0,0.0
R,U,"[5, 10]",1.0,7.0,0.24946999549865723,1.972815990447998,0.7345555349946613,43.0,437.0,0.0
R,U,"[4, 10]",1.0,8.0,0.20256590843200684,1.6318888664245605,0.43336215154014707,43.0,438.0,0.0
B,L,"[4, 9]",1.0,9.0,0.27619504928588867,1.6984648704528809,0.4151908165702785,43.0,439.0,0.0
R,U,"[3, 9]",1.0,10.0,0.2432548999786377,1.8735668659210205,0.6217610495597843,43.0,440.0,0.0
,,"(6, 6)",,,,,,,,
R,U,"[5, 6]",1.0,1.0,0.733147144317627,2.9853429794311523,0.45721833598618106,44.0,441.0,0.0
Y,R,"[5, 7]",1.0,2.0,0.25216102600097656,1.516944169998169,0.2743032713383453,44.0,442.0,0.0
Y,R,"[5, 8]",1.0,3.0,0.33845019340515137,1.5943470001220703,0.25198209733058596,44.0,443.0,0.0
G,D,"[6, 8]",1.0,4.0,0.2995028495788574,1.9624419212341309,0.6641120425899246,44.0,444.0,0.0
Y,R,"[6, 9]",1.0,5.0,0.20292997360229492,1.8599860668182373,0.6574886435107614,44.0,445.0,0.0
Y,R,"[6, 10]",1.0,6.0,0.21175789833068848,1.747493028640747,0.5381320308066526,44.0,446.0,0.0
R,U,"[5, 10]",1.0,7.0,0.18976402282714844,1.710953950881958,0.5323173234289617,44.0,447.0,0.0
R,U,"[4, 10]",1.0,8.0,0.21433377265930176,1.6474318504333496,0.4299491571039526,44.0,448.0,0.0
B,L,"[4, 9]",1.0,9.0,0.24608492851257324,1.5744109153747559,0.32109914198861234,44.0,449.0,0.0
R,U,"[3, 9]",1.0,10.0,0.21342706680297852,1.5515367984771729,0.3391930334259748,44.0,450.0,0.0
,,"(6, 6)",,,,,,,,
R,U,"[5, 6]",1.0,1.0,0.7497000694274902,3.5841448307037354,0.7066321374304729,45.0,451.0,0.0
Y,R,"[5, 7]",1.0,2.0,0.19806790351867676,1.466036081314087,0.2726144284489404,45.0,452.0,0.0
Y,R,"[5, 8]",1.0,3.0,0.23432302474975586,1.707732915878296,0.4801347970132738,45.0,453.0,0.0
G,D,"[6, 8]",1.0,4.0,0.21968889236450195,1.7536780834197998,0.5337641790098573,45.0,454.0,0.0
Y,R,"[6, 9]",1.0,5.0,0.20264792442321777,1.9093880653381348,0.7095758034246502,45.0,455.0,0.0
Y,R,"[6, 10]",1.0,6.0,0.24374103546142578,1.5039870738983154,0.2638865317579178,45.0,456.0,0.0
R,U,"[5, 10]",1.0,7.0,0.23392200469970703,1.5540659427642822,0.3180017783076303,45.0,457.0,0.0
R,U,"[4, 10]",1.0,8.0,0.2939770221710205,1.7304158210754395,0.43159325960867384,45.0,458.0,0.0
B,L,"[4, 9]",1.0,9.0,0.2777268886566162,1.804866075515747,0.5196010347484686,45.0,459.0,0.0
R,U,"[3, 9]",1.0,10.0,0.23157596588134766,1.699699878692627,0.46939010451579916,45.0,460.0,0.0
,,"(6, 6)",,,,,,,,
R,U,"[5, 6]",1.0,1.0,0.6514260768890381,2.6466751098632812,0.5325914215560921,46.0,461.0,0.0
Y,R,"[5, 7]",1.0,2.0,0.133544921875,1.8770759105682373,0.7427028180417423,46.0,462.0,0.0
Y,R,"[5, 8]",1.0,3.0,0.23388409614562988,1.6269729137420654,0.40333516212838555,46.0,463.0,0.0
G,D,"[6, 8]",1.0,4.0,0.4345521926879883,2.1614010334014893,0.7310896874343054,46.0,464.0,0.0
Y,R,"[6, 9]",1.0,5.0,0.15982294082641602,1.6700918674468994,0.5013647446809053,46.0,465.0,0.0
Y,R,"[6, 10]",1.0,6.0,0.2952260971069336,1.8874638080596924,0.5886756808634265,46.0,466.0,0.0
R,U,"[5, 10]",1.0,7.0,0.26682400703430176,1.641366958618164,0.38025683253059894,46.0,467.0,0.0
R,U,"[4, 10]",1.0,8.0,0.28482913970947266,1.6308999061584473,0.3444301877714717,46.0,468.0,0.0
B,L,"[4, 9]",1.0,9.0,0.3431718349456787,2.0747389793395996,0.7353401573548194,46.0,469.0,0.0
R,U,"[3, 9]",1.0,10.0,0.1808028221130371,1.8233661651611328,0.6421124435875152,46.0,470.0,0.0
,,"(6, 6)",,,,,,,,
R,U,"[5, 6]",1.0,1.0,0.8276031017303467,3.0622730255126953,0.671053983959037,47.0,471.0,0.0
Y,R,"[5, 7]",1.0,2.0,0.20226407051086426,1.691532850265503,0.49605196882637415,47.0,472.0,0.0
Y,R,"[5, 8]",1.0,3.0,0.24738311767578125,1.8557019233703613,0.6015562983913003,47.0,473.0,0.0
G,D,"[6, 8]",1.0,4.0,0.2164461612701416,1.8662550449371338,0.6511536624302086,47.0,474.0,0.0
Y,R,"[6, 9]",1.0,5.0,0.18776607513427734,1.692591905593872,0.5105186498238888,47.0,475.0,0.0
Y,R,"[6, 10]",1.0,6.0,0.20842409133911133,1.7696728706359863,0.5634392611201482,47.0,476.0,0.0
R,U,"[5, 10]",1.0,7.0,0.2552950382232666,1.6148109436035156,0.34492453764312453,47.0,477.0,0.0
R,U,"[4, 10]",1.0,8.0,0.2170579433441162,1.6922240257263184,0.4870655999654715,47.0,478.0,0.0
B,L,"[4, 9]",1.0,9.0,0.32904696464538574,2.0317869186401367,0.7018905769435235,47.0,479.0,0.0
R,U,"[3, 9]",1.0,10.0,0.19089412689208984,1.8190441131591797,0.6210141474812182,47.0,480.0,0.0
,,"(6, 6)",,,,,,,,
R,U,"[5, 6]",1.0,1.0,0.6724638938903809,3.151618003845215,0.3727501024042487,48.0,481.0,0.0
Y,R,"[5, 7]",1.0,2.0,0.21243596076965332,1.592803955078125,0.38220149888270155,48.0,482.0,0.0
Y,R,"[5, 8]",1.0,3.0,0.21630406379699707,1.4988868236541748,0.28117936854769915,48.0,483.0,0.0
G,D,"[6, 8]",1.0,4.0,0.2950260639190674,1.7442610263824463,0.44185263285476684,48.0,484.0,0.0
Y,R,"[6, 9]",1.0,5.0,0.22862505912780762,1.4832239151000977,0.2586335291454795,48.0,485.0,0.0
Y,R,"[6, 10]",1.0,6.0,0.3193168640136719,1.5698120594024658,0.2618102032877137,48.0,486.0,0.0
R,U,"[5, 10]",1.0,7.0,0.3785121440887451,2.067997932434082,0.6959294799359543,48.0,487.0,0.0
R,U,"[4, 10]",1.0,8.0,0.1873319149017334,1.5125329494476318,0.3088423809458283,48.0,488.0,0.0
B,L,"[4, 9]",1.0,9.0,0.40825414657592773,2.0243871212005615,0.6165342989612412,48.0,489.0,0.0
R,U,"[3, 9]",1.0,10.0,0.1548480987548828,1.7740859985351562,0.6235176289406195,48.0,490.0,0.0
,,"(6, 6)",,,,,,,,
R,U,"[5, 6]",1.0,1.0,0.6183280944824219,2.442852020263672,0.46653951344414607,49.0,491.0,0.0
Y,R,"[5, 7]",1.0,2.0,0.18512487411499023,1.8771541118621826,0.6933056706419068,49.0,492.0,0.0
Y,R,"[5, 8]",1.0,3.0,0.20850086212158203,1.6785061359405518,0.4721667775907529,49.0,493.0,0.0
G,D,"[6, 8]",1.0,4.0,0.207197904586792,1.5435678958892822,0.33251653519193547,49.0,494.0,0.0
Y,R,"[6, 9]",1.0,5.0,0.23621606826782227,1.5821058750152588,0.3478288223615099,49.0,495.0,0.0
Y,R,"[6, 10]",1.0,6.0,0.23892498016357422,1.6785309314727783,0.4264577933120339,49.0,496.0,0.0
R,U,"[5, 10]",1.0,7.0,0.30211591720581055,1.9011669158935547,0.6104153879467415,49.0,497.0,0.0
R,U,"[4, 10]",1.0,8.0,0.3190910816192627,1.9978289604187012,0.6915795223497285,49.0,498.0,0.0
B,L,"[4, 9]",1.0,9.0,0.2041170597076416,1.781571865081787,0.5899077931233301,49.0,499.0,0.0
R,U,"[3, 9]",1.0,10.0,0.19381999969482422,1.7192280292510986,0.5258005065652835,49.0,500.0,0.0
,,"(6, 6)",,,,,,,,
R,U,"[5, 6]",1.0,1.0,0.734389066696167,3.181981086730957,0.4744712912483352,50.0,501.0,0.0
Y,R,"[5, 7]",1.0,2.0,0.27173781394958496,1.8361711502075195,0.5770828634024884,50.0,502.0,0.0
Y,R,"[5, 8]",1.0,3.0,0.20141077041625977,1.620837926864624,0.4314074698466121,50.0,503.0,0.0
G,D,"[6, 8]",1.0,4.0,0.26128697395324707,1.8801448345184326,0.6113716638868727,50.0,504.0,0.0
Y,R,"[6, 9]",1.0,5.0,0.15448284149169922,1.5399510860443115,0.40159488071772853,50.0,505.0,0.0
Y,R,"[6, 10]",1.0,6.0,0.2814188003540039,1.887343168258667,0.6051853013245452,50.0,506.0,0.0
R,U,"[5, 10]",1.0,7.0,0.2109999656677246,1.5957810878753662,0.3845519985051499,50.0,507.0,0.0
R,U,"[4, 10]",1.0,8.0,0.24906587600708008,1.9624369144439697,0.7132911868701742,50.0,508.0,0.0
B,L,"[4, 9]",1.0,9.0,0.27331089973449707,1.5529179573059082,0.26659249349829817,50.0,509.0,0.0
R,U,"[3, 9]",1.0,10.0,0.34656500816345215,1.8395040035247803,0.4892037855646575,50.0,510.0,0.0
,,"(6, 6)",,,,,,,,
R,U,"[5, 6]",1.0,1.0,0.747352123260498,2.854326009750366,0.5433914840081769,51.0,511.0,0.0
Y,R,"[5, 7]",1.0,2.0,0.19395208358764648,1.5469560623168945,0.3570741278286984,51.0,512.0,0.0
Y,R,"[5, 8]",1.0,3.0,0.336928129196167,1.9585528373718262,0.6320613555215144,51.0,513.0,0.0
G,D,"[6, 8]",1.0,4.0,0.3191971778869629,1.9484999179840088,0.6304680215725371,51.0,514.0,0.0
Y,R,"[6, 9]",1.0,5.0,0.24931001663208008,1.8898861408233643,0.6370207745980149,51.0,515.0,0.0
Y,R,"[6, 10]",1.0,6.0,0.22333502769470215,1.702589988708496,0.47305620645717483,51.0,516.0,0.0
R,U,"[5, 10]",1.0,7.0,0.20291876792907715,1.606031894683838,0.4124126998106349,51.0,517.0,0.0
R,U,"[4, 10]",1.0,8.0,0.24533987045288086,1.5174059867858887,0.26319232037854745,51.0,518.0,0.0
B,L,"[4, 9]",1.0,9.0,0.432528018951416,1.868091106414795,0.43111917015334933,51.0,519.0,0.0
R,U,"[3, 9]",1.0,10.0,0.23084712028503418,1.939073085784912,0.7033187172023105,51.0,520.0,0.0
,,"(6, 6)",,,,,,,,
R,U,"[5, 6]",1.0,1.0,0.6948587894439697,2.7512600421905518,0.47135084102663566,52.0,521.0,0.0
Y,R,"[5, 7]",1.0,2.0,0.20514607429504395,1.797550916671753,0.5853599570554389,52.0,522.0,0.0
Y,R,"[5, 8]",1.0,3.0,0.25751805305480957,1.731050968170166,0.4666404390555749,52.0,523.0,0.0
G,D,"[6, 8]",1.0,4.0,0.28218579292297363,1.7442200183868408,0.4607755755488575,52.0,524.0,0.0
Y,R,"[6, 9]",1.0,5.0,0.18778300285339355,1.7806580066680908,0.5912221398460922,52.0,525.0,0.0
Y,R,"[6, 10]",1.0,6.0,0.20054388046264648,1.9013030529022217,0.7090713219161181,52.0,526.0,0.0
R,U,"[5, 10]",1.0,7.0,0.25752782821655273,1.6083669662475586,0.35104492140996874,52.0,527.0,0.0
R,U,"[4, 10]",1.0,8.0,0.44187092781066895,2.1115758419036865,0.6622566894455287,52.0,528.0,0.0
B,L,"[4, 9]",1.0,9.0,0.26932406425476074,1.9455289840698242,0.6744982913254722,52.0,529.0,0.0
R,U,"[3, 9]",1.0,10.0,0.17966294288635254,1.5982887744903564,0.4228896495161614,52.0,530.0,0.0
,,"(6, 6)",,,,,,,,
R,U,"[5, 6]",1.0,1.0,0.8034458160400391,3.3414318561553955,0.58079132847916,53.0,531.0,0.0
Y,R,"[5, 7]",1.0,2.0,0.2017350196838379,1.9472038745880127,0.744515570667666,53.0,532.0,0.0
Y,R,"[5, 8]",1.0,3.0,0.22080206871032715,1.4904439449310303,0.2853022201764878,53.0,533.0,0.0
G,D,"[6, 8]",1.0,4.0,0.573354959487915,1.9291260242462158,0.36444217690628844,53.0,534.0,0.0
Y,R,"[6, 9]",1.0,5.0,0.4850168228149414,1.781507968902588,0.2959686829141833,53.0,535.0,0.0
Y,R,"[6, 10]",1.0,6.0,0.4366610050201416,1.963176965713501,0.5255494895068663,53.0,536.0,0.0
R,U,"[5, 10]",1.0,7.0,0.26276111602783203,1.6775128841400146,0.4197929890451482,53.0,537.0,0.0
R,U,"[4, 10]",1.0,8.0,0.3153510093688965,1.7631590366363525,0.44968784254854227,53.0,538.0,0.0
B,L,"[4, 9]",1.0,9.0,0.2586350440979004,1.9789869785308838,0.7115907776646443,53.0,539.0,0.0
R,U,"[3, 9]",1.0,10.0,0.18968701362609863,1.8267958164215088,0.655046596549409,53.0,540.0,0.0
,,"(6, 6)",,,,,,,,
R,U,"[5, 6]",1.0,1.0,0.7499630451202393,4.139243841171265,0.5442521555764162,54.0,541.0,0.0
Y,R,"[5, 7]",1.0,2.0,0.2302091121673584,1.7135260105133057,0.49100165686768277,54.0,542.0,0.0
Y,R,"[5, 8]",1.0,3.0,0.30157899856567383,1.7850539684295654,0.49282801275892113,54.0,543.0,0.0
G,D,"[6, 8]",1.0,4.0,0.25879812240600586,1.850142002105713,0.5928492628689412,54.0,544.0,0.0
Y,R,"[6, 9]",1.0,5.0,0.21516990661621094,1.7118110656738281,0.5046997140168918,54.0,545.0,0.0
Y,R,"[6, 10]",1.0,6.0,0.30513715744018555,1.930582046508789,0.6184881353340645,54.0,546.0,0.0
R,U,"[5, 10]",1.0,7.0,0.2441859245300293,1.5490868091583252,0.3010946758072747,54.0,547.0,0.0
R,U,"[4, 10]",1.0,8.0,0.3851888179779053,2.0588231086730957,0.6761561733198043,54.0,548.0,0.0
B,L,"[4, 9]",1.0,9.0,0.2861790657043457,1.598271131515503,0.32472156668623675,54.0,549.0,0.0
R,U,"[3, 9]",1.0,10.0,0.3180670738220215,2.0563080310821533,0.747374419091283,54.0,550.0,0.0
,,"(6, 6)",,,,,,,,
R,U,"[5, 6]",1.0,1.0,0.798253059387207,2.8650481700897217,0.3793605419235588,55.0,551.0,0.0
Y,R,"[5, 7]",1.0,2.0,0.26392602920532227,1.6091070175170898,0.3383930270374435,55.0,552.0,0.0
Y,R,"[5, 8]",1.0,3.0,0.2267749309539795,1.9435088634490967,0.7149149657274658,55.0,553.0,0.0
G,D,"[6, 8]",1.0,4.0,0.1880500316619873,1.8066399097442627,0.6214871203951039,55.0,554.0,0.0
Y,R,"[6, 9]",1.0,5.0,0.26378607749938965,1.6589739322662354,0.3974078638132309,55.0,555.0,0.0
Y,R,"[6, 10]",1.0,6.0,0.2730979919433594,1.8863749504089355,0.6002562358437076,55.0,556.0,0.0
R,U,"[5, 10]",1.0,7.0,0.27669501304626465,1.969270944595337,0.6864418286816625,55.0,557.0,0.0
R,U,"[4, 10]",1.0,8.0,0.18225789070129395,1.709928035736084,0.5294763952895867,55.0,558.0,0.0
B,L,"[4, 9]",1.0,9.0,0.3224020004272461,1.7940089702606201,0.45680836132300057,55.0,559.0,0.0
R,U,"[3, 9]",1.0,10.0,0.2939908504486084,1.699181079864502,0.4060438084115364,55.0,560.0,0.0
,,"(6, 6)",,,,,,,,
R,U,"[5, 6]",1.0,1.0,0.743628978729248,2.632362127304077,0.5215362746231518,56.0,561.0,0.0
Y,R,"[5, 7]",1.0,2.0,0.29366183280944824,1.9717841148376465,0.6764803889578122,56.0,562.0,0.0
Y,R,"[5, 8]",1.0,3.0,0.20297503471374512,1.8276190757751465,0.637376119892396,56.0,563.0,0.0
G,D,"[6, 8]",1.0,4.0,0.422605037689209,1.8559701442718506,0.42684068689145327,56.0,564.0,0.0
Y,R,"[6, 9]",1.0,5.0,0.27877092361450195,1.7207579612731934,0.44745305088009857,56.0,565.0,0.0
Y,R,"[6, 10]",1.0,6.0,0.27238988876342773,1.5561389923095703,0.2704066163655824,56.0,566.0,0.0
R,U,"[5, 10]",1.0,7.0,0.33428311347961426,1.6705410480499268,0.34090422029004774,56.0,567.0,0.0
R,U,"[4, 10]",1.0,8.0,0.46658802032470703,1.981994867324829,0.5226455114671311,56.0,568.0,0.0
B,L,"[4, 9]",1.0,9.0,0.28319597244262695,1.678171157836914,0.4009700485366802,56.0,569.0,0.0
R,U,"[3, 9]",1.0,10.0,0.24292898178100586,1.5333220958709717,0.2842817452249331,56.0,570.0,0.0
,,"(6, 6)",,,,,,,,
R,U,"[5, 6]",1.0,1.0,0.9483640193939209,3.3806190490722656,0.7144188180720228,57.0,571.0,0.0
Y,R,"[5, 7]",1.0,2.0,0.20723295211791992,1.4996411800384521,0.2812304651534473,57.0,572.0,0.0
Y,R,"[5, 8]",1.0,3.0,0.2521700859069824,1.9918489456176758,0.7392318792957784,57.0,573.0,0.0
G,D,"[6, 8]",1.0,4.0,0.16791415214538574,1.7144949436187744,0.5538715239562019,57.0,574.0,0.0
Y,R,"[6, 9]",1.0,5.0,0.1891639232635498,1.6323800086975098,0.436304432129483,57.0,575.0,0.0
Y,R,"[6, 10]",1.0,6.0,0.2087860107421875,1.6942288875579834,0.4805070595483682,57.0,576.0,0.0
R,U,"[5, 10]",1.0,7.0,0.21290183067321777,1.9569108486175537,0.7371236841747908,57.0,577.0,0.0
R,U,"[4, 10]",1.0,8.0,0.16942787170410156,1.7921888828277588,0.6294169930255853,57.0,578.0,0.0
B,L,"[4, 9]",1.0,9.0,0.40384411811828613,2.055996894836426,0.6520218998432852,57.0,579.0,0.0
R,U,"[3, 9]",1.0,10.0,0.19675993919372559,1.7195119857788086,0.5215852621687853,57.0,580.0,0.0
,,"(6, 6)",,,,,,,,
R,U,"[5, 6]",1.0,1.0,0.6855840682983398,2.503710985183716,0.525224202632719,58.0,581.0,0.0
Y,R,"[5, 7]",1.0,2.0,0.19504594802856445,1.8203749656677246,0.6289563667358513,58.0,582.0,0.0
Y,R,"[5, 8]",1.0,3.0,0.193619966506958,1.5126018524169922,0.3082031489275889,58.0,583.0,0.0
G,D,"[6, 8]",1.0,4.0,0.562701940536499,2.21583890914917,0.6571007277282372,58.0,584.0,0.0
Y,R,"[6, 9]",1.0,5.0,0.2071390151977539,1.466200828552246,0.2735716678457957,58.0,585.0,0.0
Y,R,"[6, 10]",1.0,6.0,0.372344970703125,1.6637768745422363,0.3039801085501457,58.0,586.0,0.0
R,U,"[5, 10]",1.0,7.0,0.2737119197845459,1.6652088165283203,0.3858161745769841,58.0,587.0,0.0
R,U,"[4, 10]",1.0,8.0,0.46205592155456543,1.9126100540161133,0.4483215146293591,58.0,588.0,0.0
B,L,"[4, 9]",1.0,9.0,0.34932494163513184,2.0633270740509033,0.7113683469934975,58.0,589.0,0.0
R,U,"[3, 9]",1.0,10.0,0.22431278228759766,1.6519341468811035,0.4300542939358152,58.0,590.0,0.0
,,"(6, 6)",,,,,,,,
R,U,"[5, 6]",1.0,1.0,0.6377849578857422,4.467267990112305,0.6138856845075111,59.0,591.0,0.0
Y,R,"[5, 7]",1.0,2.0,0.2588939666748047,1.6115498542785645,0.3423070123673232,59.0,592.0,0.0
Y,R,"[5, 8]",1.0,3.0,0.2829160690307617,1.5501768589019775,0.2757645537820645,59.0,593.0,0.0
G,D,"[6, 8]",1.0,4.0,0.3022758960723877,1.8756070137023926,0.5844514798736076,59.0,594.0,0.0
Y,R,"[6, 9]",1.0,5.0,0.1908578872680664,1.6258399486541748,0.4269703432381838,59.0,595.0,0.0
Y,R,"[6, 10]",1.0,6.0,0.31789398193359375,1.7132439613342285,0.4068800727456564,59.0,596.0,0.0
R,U,"[5, 10]",1.0,7.0,0.24317383766174316,1.8192241191864014,0.575966491347702,59.0,597.0,0.0
R,U,"[4, 10]",1.0,8.0,0.2385420799255371,1.6968560218811035,0.47280629904002763,59.0,598.0,0.0
B,L,"[4, 9]",1.0,9.0,0.2385261058807373,1.528721809387207,0.30172439188525135,59.0,599.0,0.0
R,U,"[3, 9]",1.0,10.0,0.26118993759155273,1.5807268619537354,0.31577526367150155,59.0,600.0,0.0
,,"(6, 6)",,,,,,,,
R,U,"[5, 6]",1.0,1.0,0.6246089935302734,2.8814849853515625,0.3971511635099653,60.0,601.0,0.0
Y,R,"[5, 7]",1.0,2.0,0.27751684188842773,1.8080079555511475,0.5217871493599606,60.0,602.0,0.0
Y,R,"[5, 8]",1.0,3.0,0.2127668857574463,1.696815013885498,0.48500769832172713,60.0,603.0,0.0
G,D,"[6, 8]",1.0,4.0,0.2167508602142334,1.6313791275024414,0.41654018028359263,60.0,604.0,0.0
Y,R,"[6, 9]",1.0,5.0,0.2930729389190674,1.9742000102996826,0.6742000697545487,60.0,605.0,0.0
Y,R,"[6, 10]",1.0,6.0,0.3544278144836426,2.04853892326355,0.7055228499977235,60.0,606.0,0.0
R,U,"[5, 10]",1.0,7.0,0.26160097122192383,1.521549940109253,0.26072385566104156,60.0,607.0,0.0
R,U,"[4, 10]",1.0,8.0,0.33775901794433594,1.8808250427246094,0.5578450319426413,60.0,608.0,0.0
B,L,"[4, 9]",1.0,9.0,0.2623739242553711,1.9957001209259033,0.7367672083138305,60.0,609.0,0.0
R,U,"[3, 9]",1.0,10.0,0.20750713348388672,1.7811040878295898,0.5680227005004694,60.0,610.0,0.0
,,"(6, 6)",,,,,,,,
R,U,"[5, 6]",1.0,1.0,0.8089139461517334,3.0843920707702637,0.5026985059056692,61.0,611.0,0.0
Y,R,"[5, 7]",1.0,2.0,0.21663212776184082,1.7736451625823975,0.5592714782164607,61.0,612.0,0.0
Y,R,"[5, 8]",1.0,3.0,0.25412583351135254,1.9723000526428223,0.7313365935469627,61.0,613.0,0.0
G,D,"[6, 8]",1.0,4.0,0.24459004402160645,1.8360121250152588,0.5842805581477107,61.0,614.0,0.0
Y,R,"[6, 9]",1.0,5.0,0.2333369255065918,1.8545150756835938,0.6219665829911605,61.0,615.0,0.0
Y,R,"[6, 10]",1.0,6.0,0.23929214477539062,1.5521800518035889,0.30769222621003584,61.0,616.0,0.0
R,U,"[5, 10]",1.0,7.0,0.492372989654541,2.0420498847961426,0.5494159261021244,61.0,617.0,0.0
R,U,"[4, 10]",1.0,8.0,0.2602729797363281,1.5435538291931152,0.2765593001386294,61.0,618.0,0.0
B,L,"[4, 9]",1.0,9.0,0.38190698623657227,1.7644250392913818,0.3908327877193437,61.0,619.0,0.0
R,U,"[3, 9]",1.0,10.0,0.4462089538574219,1.9027938842773438,0.4602709591608772,61.0,620.0,0.0
,,"(6, 6)",,,,,,,,
R,U,"[5, 6]",1.0,1.0,0.6121749877929688,2.3087821006774902,0.36899201747426685,62.0,621.0,0.0
Y,R,"[5, 7]",1.0,2.0,0.31253910064697266,1.5839288234710693,0.26978318857979255,62.0,622.0,0.0
Y,R,"[5, 8]",1.0,3.0,0.4784541130065918,2.1602630615234375,0.6794586395811519,62.0,623.0,0.0
G,D,"[6, 8]",1.0,4.0,0.2155160903930664,1.7121989727020264,0.4917992314621592,62.0,624.0,0.0
Y,R,"[6, 9]",1.0,5.0,0.21950888633728027,1.9286000728607178,0.7202684686423728,62.0,625.0,0.0
Y,R,"[6, 10]",1.0,6.0,0.299544095993042,1.6062910556793213,0.3102339885816636,62.0,626.0,0.0
R,U,"[5, 10]",1.0,7.0,0.32123899459838867,1.999082088470459,0.6756294049644438,62.0,627.0,0.0
R,U,"[4, 10]",1.0,8.0,0.22854900360107422,1.6979870796203613,0.47366000641449835,62.0,628.0,0.0
B,L,"[4, 9]",1.0,9.0,0.310168981552124,1.8132030963897705,0.5036669588758917,62.0,629.0,0.0
R,U,"[3, 9]",1.0,10.0,0.28151512145996094,1.7204351425170898,0.44076211933585824,62.0,630.0,0.0
,,"(6, 6)",,,,,,,,
R,U,"[5, 6]",1.0,1.0,0.605341911315918,2.616939067840576,0.3741686868392116,63.0,631.0,0.0
Y,R,"[5, 7]",1.0,2.0,0.24311017990112305,1.6578359603881836,0.41542098546071393,63.0,632.0,0.0
Y,R,"[5, 8]",1.0,3.0,0.25643086433410645,1.5705251693725586,0.30260596723883476,63.0,633.0,0.0
G,D,"[6, 8]",1.0,4.0,0.37276196479797363,2.070878028869629,0.689775816711345,63.0,634.0,0.0
Y,R,"[6, 9]",1.0,5.0,0.24314379692077637,1.7989342212677002,0.5554305665871712,63.0,635.0,0.0
Y,R,"[6, 10]",1.0,6.0,0.3340628147125244,1.8887710571289062,0.5608151538264003,63.0,636.0,0.0
R,U,"[5, 10]",1.0,7.0,0.23267412185668945,1.677427053451538,0.45499016118540747,63.0,637.0,0.0
R,U,"[4, 10]",1.0,8.0,0.25656819343566895,1.7492032051086426,0.504097466141165,63.0,638.0,0.0
B,L,"[4, 9]",1.0,9.0,0.2713170051574707,1.70405912399292,0.4415078994777179,63.0,639.0,0.0
R,U,"[3, 9]",1.0,10.0,0.22498106956481934,1.476607084274292,0.2682653950541685,63.0,640.0,0.0
,,"(6, 6)",,,,,,,,
R,U,"[5, 6]",1.0,1.0,0.6592910289764404,3.0310070514678955,0.5656135046104933,64.0,641.0,0.0
Y,R,"[5, 7]",1.0,2.0,0.3037149906158447,1.691781997680664,0.39079219783120955,64.0,642.0,0.0
Y,R,"[5, 8]",1.0,3.0,0.24457001686096191,1.5961189270019531,0.3535954383848709,64.0,643.0,0.0
G,D,"[6, 8]",1.0,4.0,0.36426782608032227,1.7353639602661133,0.3722670651526829,64.0,644.0,0.0
Y,R,"[6, 9]",1.0,5.0,0.2619209289550781,1.5353679656982422,0.2743338423628615,64.0,645.0,0.0
Y,R,"[6, 10]",1.0,6.0,0.39895081520080566,1.7090940475463867,0.3167711615266986,64.0,646.0,0.0
R,U,"[5, 10]",1.0,7.0,0.29800915718078613,1.6031279563903809,0.3032104396508928,64.0,647.0,0.0
R,U,"[4, 10]",1.0,8.0,0.4718940258026123,1.879922866821289,0.41616700492562986,64.0,648.0,0.0
B,L,"[4, 9]",1.0,9.0,0.279573917388916,1.705549955368042,0.42169906362448606,64.0,649.0,0.0
R,U,"[3, 9]",1.0,10.0,0.3175389766693115,1.7794609069824219,0.46800751158207127,64.0,650.0,0.0
,,"(6, 6)",,,,,,,,
R,U,"[5, 6]",1.0,1.0,0.5449748039245605,2.88222599029541,0.3501424061653621,65.0,651.0,0.0
Y,R,"[5, 7]",1.0,2.0,0.22887086868286133,1.5268771648406982,0.29365912579915365,65.0,652.0,0.0
Y,R,"[5, 8]",1.0,3.0,0.287186861038208,1.8652851581573486,0.5920211001668095,65.0,653.0,0.0
G,D,"[6, 8]",1.0,4.0,0.312824010848999,1.6562459468841553,0.3483848847125364,65.0,654.0,0.0
Y,R,"[6, 9]",1.0,5.0,0.4188239574432373,1.9387118816375732,0.5202162368935994,65.0,655.0,0.0
Y,R,"[6, 10]",1.0,6.0,0.2934730052947998,1.664139986038208,0.3678088933792298,65.0,656.0,0.0
R,U,"[5, 10]",1.0,7.0,0.2678098678588867,1.5457711219787598,0.2803147730390462,65.0,657.0,0.0
R,U,"[4, 10]",1.0,8.0,0.3528110980987549,1.7660369873046875,0.4128927024339141,65.0,658.0,0.0
B,L,"[4, 9]",1.0,9.0,0.24450397491455078,1.7592170238494873,0.5052243744591405,65.0,659.0,0.0
R,U,"[3, 9]",1.0,10.0,0.24112701416015625,1.5129961967468262,0.2684703441996426,65.0,660.0,0.0
,,"(6, 6)",,,,,,,,
R,U,"[5, 6]",1.0,1.0,0.5086719989776611,3.812385082244873,0.43065982956894683,66.0,661.0,0.0
Y,R,"[5, 7]",1.0,2.0,0.28177404403686523,1.9958031177520752,0.7098216714363504,66.0,662.0,0.0
Y,R,"[5, 8]",1.0,3.0,0.22639012336730957,1.6431989669799805,0.4195763165454189,66.0,663.0,0.0
G,D,"[6, 8]",1.0,4.0,0.21233892440795898,1.7936859130859375,0.5796365906290308,66.0,664.0,0.0
Y,R,"[6, 9]",1.0,5.0,0.23036694526672363,1.843782901763916,0.6067091913298588,66.0,665.0,0.0
Y,R,"[6, 10]",1.0,6.0,0.20106291770935059,1.8530011177062988,0.6596846486888297,66.0,666.0,0.0
R,U,"[5, 10]",1.0,7.0,0.2870020866394043,1.7660751342773438,0.4925459301446498,66.0,667.0,0.0
R,U,"[4, 10]",1.0,8.0,0.25272083282470703,1.8982501029968262,0.657550508879326,66.0,668.0,0.0
B,L,"[4, 9]",1.0,9.0,0.2253429889678955,1.9523820877075195,0.7261100463563093,66.0,669.0,0.0
R,U,"[3, 9]",1.0,10.0,0.2923128604888916,1.938324213027954,0.6479484311116471,66.0,670.0,0.0
,,"(6, 6)",,,,,,,,
R,U,"[5, 6]",1.0,1.0,0.47882080078125,3.2701001167297363,0.5346945991906159,67.0,671.0,0.0
Y,R,"[5, 7]",1.0,2.0,0.20454907417297363,1.77103590965271,0.5723063374993278,67.0,672.0,0.0
Y,R,"[5, 8]",1.0,3.0,0.24887585639953613,1.927551031112671,0.6830663661167883,67.0,673.0,0.0
G,D,"[6, 8]",1.0,4.0,0.2542078495025635,1.743035078048706,0.49290214982703356,67.0,674.0,0.0
Y,R,"[6, 9]",1.0,5.0,0.24419307708740234,1.5235421657562256,0.28330112199119983,67.0,675.0,0.0
Y,R,"[6, 10]",1.0,6.0,0.3970301151275635,1.9649369716644287,0.5645645541500113,67.0,676.0,0.0
R,U,"[5, 10]",1.0,7.0,0.26620006561279297,1.7085769176483154,0.43995256437046637,67.0,677.0,0.0
R,U,"[4, 10]",1.0,8.0,0.3012049198150635,1.9182829856872559,0.624912535315884,67.0,678.0,0.0
B,L,"[4, 9]",1.0,9.0,0.2476179599761963,1.4990160465240479,0.2573378524713048,67.0,679.0,0.0
R,U,"[3, 9]",1.0,10.0,0.44159412384033203,1.9701550006866455,0.5271222618886879,67.0,680.0,0.0
,,"(6, 6)",,,,,,,,
R,U,"[5, 6]",1.0,1.0,0.8998939990997314,4.845969915390015,0.33987772961107904,68.0,681.0,0.0
Y,R,"[5, 7]",1.0,2.0,0.34679508209228516,1.7857389450073242,0.44219172823126945,68.0,682.0,0.0
Y,R,"[5, 8]",1.0,3.0,0.2894449234008789,1.7101140022277832,0.43551949204899726,68.0,683.0,0.0
G,D,"[6, 8]",1.0,4.0,0.32079100608825684,1.8799989223480225,0.5653079840223176,68.0,684.0,0.0
Y,R,"[6, 9]",1.0,5.0,0.21941184997558594,1.7767560482025146,0.5587144850820687,68.0,685.0,0.0
Y,R,"[6, 10]",1.0,6.0,0.20374393463134766,1.6997830867767334,0.508528910318299,68.0,686.0,0.0
R,U,"[5, 10]",1.0,7.0,0.20766305923461914,1.6232130527496338,0.41508493469522983,68.0,687.0,0.0
R,U,"[4, 10]",1.0,8.0,0.2743709087371826,1.8929810523986816,0.6078396074457102,68.0,688.0,0.0
B,L,"[4, 9]",1.0,9.0,0.25104689598083496,1.5669398307800293,0.3250425677047262,68.0,689.0,0.0
R,U,"[3, 9]",1.0,10.0,0.36738085746765137,2.105175018310547,0.746407738118,68.0,690.0,0.0
,,"(6, 6)",,,,,,,,
R,U,"[5, 6]",1.0,1.0,0.8262038230895996,2.4806530475616455,0.3109275875308082,69.0,691.0,0.0
Y,R,"[5, 7]",1.0,2.0,0.4955110549926758,1.9074900150299072,0.4182981368763447,69.0,692.0,0.0
Y,R,"[5, 8]",1.0,3.0,0.23037290573120117,1.964076042175293,0.731875070026438,69.0,693.0,0.0
G,D,"[6, 8]",1.0,4.0,0.2576761245727539,1.9969210624694824,0.7288715563639097,69.0,694.0,0.0
Y,R,"[6, 9]",1.0,5.0,0.24263501167297363,1.8955490589141846,0.6411078680663129,69.0,695.0,0.0
Y,R,"[6, 10]",1.0,6.0,0.2164139747619629,1.924455165863037,0.7154544637348973,69.0,696.0,0.0
R,U,"[5, 10]",1.0,7.0,0.3019599914550781,1.8863451480865479,0.5851163306521113,69.0,697.0,0.0
R,U,"[4, 10]",1.0,8.0,0.2386031150817871,1.8092730045318604,0.577786336769989,69.0,698.0,0.0
B,L,"[4, 9]",1.0,9.0,0.40761303901672363,1.9574878215789795,0.5519126055403617,69.0,699.0,0.0
R,U,"[3, 9]",1.0,10.0,0.30788707733154297,1.7142279148101807,0.3995730850738515,69.0,700.0,0.0
,,"(6, 6)",,,,,,,,
R,U,"[5, 6]",-2.0,0.0,1.1250989437103271,3.120457887649536,0.5364647668423739,70.0,701.0,0.0
R,U,"[4, 6]",0.0,0.0,0.23357605934143066,1.706099033355713,0.476026481847372,70.0,702.0,0.0
Y,R,"[4, 7]",0.0,0.0,0.359699010848999,1.9339179992675781,0.5763113265119157,70.0,703.0,0.0
Y,R,"[4, 8]",0.0,0.0,0.3701670169830322,1.6967120170593262,0.3399069689730799,70.0,704.0,0.0
B,L,"[4, 7]",-1.0,0.0,0.0802621841430664,5.777497053146362,0.6170654643304632,70.0,705.0,0.0
Y,R,"[4, 8]",0.0,0.0,0.19178199768066406,1.8584301471710205,0.6586713373700785,70.0,706.0,0.0
R,U,"[3, 8]",0.0,0.0,0.1673429012298584,1.8800311088562012,0.7222252362212987,70.0,707.0,0.0
G,D,"[4, 8]",0.0,0.0,0.20951604843139648,1.8665199279785156,0.6555181599415492,70.0,708.0,0.0
R,U,"[3, 8]",0.0,0.0,0.4637610912322998,2.0733659267425537,0.6118830493193588,70.0,709.0,0.0
B,L,"[3, 7]",0.0,0.0,0.6375069618225098,2.2326860427856445,0.5945804894226578,70.0,710.0,0.0
,,"(6, 6)",,,,,,,,
R,U,"[5, 6]",1.0,1.0,0.6972951889038086,4.53485107421875,0.4295306042128254,71.0,711.0,0.0
Y,R,"[5, 7]",1.0,2.0,0.2847599983215332,1.6721620559692383,0.38488259874379327,71.0,712.0,0.0
Y,R,"[5, 8]",1.0,3.0,0.3640248775482178,2.0961949825286865,0.7308203759010864,71.0,713.0,0.0
G,D,"[6, 8]",1.0,4.0,0.17999696731567383,1.7963519096374512,0.6105306321024269,71.0,714.0,0.0
Y,R,"[6, 9]",1.0,5.0,0.20365500450134277,1.8152618408203125,0.6257894772954379,71.0,715.0,0.0
Y,R,"[6, 10]",1.0,6.0,0.2120828628540039,1.6487219333648682,0.44131071718299697,71.0,716.0,0.0
R,U,"[5, 10]",1.0,7.0,0.31595587730407715,1.749873161315918,0.44118608937585607,71.0,717.0,0.0
R,U,"[4, 10]",1.0,8.0,0.22988319396972656,1.7730591297149658,0.5474485733202801,71.0,718.0,0.0
B,L,"[4, 9]",1.0,9.0,0.2561638355255127,1.6006040573120117,0.3482178976682336,71.0,719.0,0.0
R,U,"[3, 9]",1.0,10.0,0.33473920822143555,1.796457052230835,0.461042559326154,71.0,720.0,0.0
,,"(6, 6)",,,,,,,,
R,U,"[5, 6]",1.0,1.0,0.7209417819976807,4.397853851318359,0.6920647567220739,72.0,721.0,0.0
Y,R,"[5, 7]",1.0,2.0,0.2051839828491211,1.896723985671997,0.705393861657162,72.0,722.0,0.0
Y,R,"[5, 8]",1.0,3.0,0.19523286819458008,1.495988130569458,0.3017134018245557,72.0,723.0,0.0
G,D,"[6, 8]",1.0,4.0,0.26619696617126465,1.7603130340576172,0.49506503226442233,72.0,724.0,0.0
Y,R,"[6, 9]",1.0,5.0,0.22092294692993164,1.915452003479004,0.7105013847574746,72.0,725.0,0.0
Y,R,"[6, 10]",1.0,6.0,0.24055194854736328,1.6124918460845947,0.37317906326549716,72.0,726.0,0.0
R,U,"[5, 10]",1.0,7.0,0.3700859546661377,1.7724289894104004,0.4121251844601248,72.0,727.0,0.0
R,U,"[4, 10]",1.0,8.0,0.23590302467346191,1.5495870113372803,0.31170446091617043,72.0,728.0,0.0
B,L,"[4, 9]",1.0,9.0,0.28612303733825684,1.639833927154541,0.3682021521310735,72.0,729.0,0.0
R,U,"[3, 9]",1.0,10.0,0.26143407821655273,1.9416489601135254,0.6761578763754241,72.0,730.0,0.0
,,"(6, 6)",,,,,,,,
R,U,"[5, 6]",1.0,1.0,0.6559090614318848,2.4642889499664307,0.4573155592568813,73.0,731.0,0.0
Y,R,"[5, 7]",1.0,2.0,0.24324703216552734,1.583070993423462,0.3404830180236147,73.0,732.0,0.0
Y,R,"[5, 8]",1.0,3.0,0.4598410129547119,2.029906988143921,0.5699794658217796,73.0,733.0,0.0
G,D,"[6, 8]",1.0,4.0,0.49652099609375,2.0870370864868164,0.590405922590987,73.0,734.0,0.0
Y,R,"[6, 9]",1.0,5.0,0.21912813186645508,1.6573240756988525,0.44781010496853374,73.0,735.0,0.0
Y,R,"[6, 10]",1.0,6.0,0.28141212463378906,1.5376970767974854,0.2523759763627774,73.0,736.0,0.0
R,U,"[5, 10]",1.0,7.0,0.3351321220397949,1.965198040008545,0.6340475653562356,73.0,737.0,0.0
R,U,"[4, 10]",1.0,8.0,0.22149896621704102,1.877135992050171,0.6608883499697074,73.0,738.0,0.0
B,L,"[4, 9]",1.0,9.0,0.25871896743774414,1.718559980392456,0.4629333754793583,73.0,739.0,0.0
R,U,"[3, 9]",1.0,10.0,0.2233428955078125,1.8403360843658447,0.6031099888745514,73.0,740.0,0.0
,,"(6, 6)",,,,,,,,
R,U,"[5, 6]",1.0,1.0,0.6020848751068115,3.302051067352295,0.7215218796087268,74.0,741.0,0.0
Y,R,"[5, 7]",1.0,2.0,0.20404982566833496,1.9074199199676514,0.7122180193151122,74.0,742.0,0.0
Y,R,"[5, 8]",1.0,3.0,0.13332605361938477,1.7443368434906006,0.6066535476951235,74.0,743.0,0.0
G,D,"[6, 8]",1.0,4.0,0.22995591163635254,1.6697368621826172,0.4434582363165824,74.0,744.0,0.0
Y,R,"[6, 9]",1.0,5.0,0.2762949466705322,1.928623914718628,0.6549446786007544,74.0,745.0,0.0
Y,R,"[6, 10]",1.0,6.0,0.24597907066345215,1.9855949878692627,0.7403726351261706,74.0,746.0,0.0
R,U,"[5, 10]",1.0,7.0,0.22662019729614258,1.6767241954803467,0.45073977648485897,74.0,747.0,0.0
R,U,"[4, 10]",1.0,8.0,0.42225098609924316,1.767730951309204,0.35190404548734827,74.0,748.0,0.0
B,L,"[4, 9]",1.0,9.0,0.40358710289001465,1.907593011856079,0.5091903680045906,74.0,749.0,0.0
R,U,"[3, 9]",1.0,10.0,0.25066184997558594,1.655019998550415,0.41433293081768446,74.0,750.0,0.0
,,"(6, 6)",,,,,,,,
R,U,"[5, 6]",1.0,1.0,0.6259641647338867,3.6128721237182617,0.42731856008175007,75.0,751.0,0.0
Y,R,"[5, 7]",1.0,2.0,0.259876012802124,1.8012919425964355,0.544929831419076,75.0,752.0,0.0
Y,R,"[5, 8]",1.0,3.0,0.4358351230621338,1.972391128540039,0.5507914678418727,75.0,753.0,0.0
G,D,"[6, 8]",1.0,4.0,0.28368091583251953,1.9871330261230469,0.7041206696039846,75.0,754.0,0.0
Y,R,"[6, 9]",1.0,5.0,0.2463209629058838,1.8166189193725586,0.570948122426703,75.0,755.0,0.0
Y,R,"[6, 10]",1.0,6.0,0.25661587715148926,1.9636650085449219,0.7011663745066209,75.0,756.0,0.0
R,U,"[5, 10]",1.0,7.0,0.22783708572387695,1.5317449569702148,0.2998994568700923,75.0,757.0,0.0
R,U,"[4, 10]",1.0,8.0,0.31359314918518066,1.8268628120422363,0.5098406654000261,75.0,758.0,0.0
B,L,"[4, 9]",1.0,9.0,0.6397550106048584,2.20745587348938,0.5837219366377568,75.0,759.0,0.0
R,U,"[3, 9]",1.0,10.0,0.21311593055725098,1.4751360416412354,0.2592491979646083,75.0,760.0,0.0
,,"(6, 6)",,,,,,,,
R,U,"[5, 6]",1.0,1.0,0.6241259574890137,2.804084062576294,0.32986933056385825,76.0,761.0,0.0
Y,R,"[5, 7]",1.0,2.0,0.28173112869262695,1.5445351600646973,0.2576224542814891,76.0,762.0,0.0
Y,R,"[5, 8]",1.0,3.0,0.5373549461364746,2.2435879707336426,0.7175247612346161,76.0,763.0,0.0
R,U,"[4, 8]",0.0,3.0,0.2632589340209961,1.7494409084320068,0.4838641228081275,76.0,764.0,0.0
Y,R,"[4, 9]",1.0,4.0,0.218641996383667,1.799022912979126,0.5827064643048032,76.0,765.0,0.0
Y,R,"[4, 10]",1.0,5.0,0.2303478717803955,1.960392951965332,0.7262451128109557,76.0,766.0,0.0
R,U,"[3, 10]",0.0,5.0,0.4793400764465332,2.152040958404541,0.6782326415574391,76.0,767.0,0.0
G,D,"[4, 10]",0.0,5.0,0.28798985481262207,1.6704378128051758,0.399064595936179,76.0,768.0,0.0
B,L,"[4, 9]",0.0,5.0,0.9410040378570557,2.549293041229248,0.597896371607411,76.0,769.0,0.0
R,U,"[3, 9]",1.0,6.0,0.2130601406097412,1.8531689643859863,0.6344111779036685,76.0,770.0,0.0
,,"(6, 6)",,,,,,,,
R,U,"[5, 6]",1.0,1.0,0.6053099632263184,2.856390953063965,0.7411248997957677,77.0,771.0,0.0
Y,R,"[5, 7]",1.0,2.0,0.21300697326660156,1.9074950218200684,0.698091091510431,77.0,772.0,0.0
Y,R,"[5, 8]",1.0,3.0,0.2602500915527344,1.8052551746368408,0.5368738813800211,77.0,773.0,0.0
G,D,"[6, 8]",1.0,4.0,0.2831878662109375,1.5961408615112305,0.31648982539535997,77.0,774.0,0.0
Y,R,"[6, 9]",1.0,5.0,0.4062049388885498,1.695033073425293,0.27814127694699803,77.0,775.0,0.0
Y,R,"[6, 10]",1.0,6.0,0.4439079761505127,1.806015968322754,0.3674567932426543,77.0,776.0,0.0
R,U,"[5, 10]",1.0,7.0,0.22818803787231445,1.8943290710449219,0.6615239002932783,77.0,777.0,0.0
R,U,"[4, 10]",1.0,8.0,0.15484380722045898,1.5608770847320557,0.42252341661669707,77.0,778.0,0.0
B,L,"[4, 9]",1.0,9.0,0.30815792083740234,1.6172709465026855,0.3065418357965525,77.0,779.0,0.0
R,U,"[3, 9]",1.0,10.0,0.2905080318450928,1.6559109687805176,0.3622686893102226,77.0,780.0,0.0
,,"(6, 6)",,,,,,,,
R,U,"[5, 6]",1.0,1.0,0.5655021667480469,4.053513765335083,0.4989322331222066,78.0,781.0,0.0
Y,R,"[5, 7]",1.0,2.0,0.21275115013122559,1.8679170608520508,0.6500003893006794,78.0,782.0,0.0
Y,R,"[5, 8]",1.0,3.0,0.2611360549926758,1.7973079681396484,0.5307318417205271,78.0,783.0,0.0
G,D,"[6, 8]",1.0,4.0,0.20607995986938477,1.5261080265045166,0.30707377838055955,78.0,784.0,0.0
Y,R,"[6, 9]",1.0,5.0,0.2544400691986084,1.6118121147155762,0.36869949522069556,78.0,785.0,0.0
Y,R,"[6, 10]",1.0,6.0,0.31229686737060547,1.657470941543579,0.34285675527993426,78.0,786.0,0.0
R,U,"[5, 10]",1.0,7.0,0.26982688903808594,1.8284587860107422,0.5714706880531362,78.0,787.0,0.0
R,U,"[4, 10]",1.0,8.0,0.21326589584350586,1.8301210403442383,0.6177368292338767,78.0,788.0,0.0
B,L,"[4, 9]",1.0,9.0,0.30508899688720703,2.0337419509887695,0.734739221637962,78.0,789.0,0.0
R,U,"[3, 9]",1.0,10.0,0.20376276969909668,1.667680025100708,0.46923475601486647,78.0,790.0,0.0
,,"(6, 6)",,,,,,,,
R,U,"[5, 6]",1.0,1.0,0.549217939376831,2.228003978729248,0.2808245437740214,79.0,791.0,0.0
Y,R,"[5, 7]",1.0,2.0,0.291658878326416,1.5909490585327148,0.28835176576436994,79.0,792.0,0.0
Y,R,"[5, 8]",1.0,3.0,0.2723259925842285,1.5505099296569824,0.2721745328086534,79.0,793.0,0.0
G,D,"[6, 8]",1.0,4.0,0.3142838478088379,2.0257630348205566,0.7140203129738686,79.0,794.0,0.0
Y,R,"[6, 9]",1.0,5.0,0.37801289558410645,2.05941104888916,0.6734099192423386,79.0,795.0,0.0
Y,R,"[6, 10]",1.0,6.0,0.24002885818481445,1.5909171104431152,0.34806095143592697,79.0,796.0,0.0
R,U,"[5, 10]",1.0,7.0,0.31994104385375977,1.9094719886779785,0.5906057111149807,79.0,797.0,0.0
R,U,"[4, 10]",1.0,8.0,0.24402308464050293,1.8221118450164795,0.5793563404989228,79.0,798.0,0.0
B,L,"[4, 9]",1.0,9.0,0.21159982681274414,1.6176769733428955,0.3971238217699124,79.0,799.0,0.0
R,U,"[3, 9]",1.0,10.0,0.3319399356842041,2.0572969913482666,0.7208322575199799,79.0,800.0,0.0
,,"(6, 6)",,,,,,,,
R,U,"[5, 6]",1.0,1.0,0.45420312881469727,3.8872528076171875,0.6746449268010144,80.0,801.0,0.0
Y,R,"[5, 7]",1.0,2.0,0.18563318252563477,1.8330278396606445,0.6579515866178283,80.0,802.0,0.0
Y,R,"[5, 8]",1.0,3.0,0.2042710781097412,1.5871779918670654,0.395130395473363,80.0,803.0,0.0
G,D,"[6, 8]",1.0,4.0,0.2608919143676758,1.6973950862884521,0.4424021504109499,80.0,804.0,0.0
Y,R,"[6, 9]",1.0,5.0,0.21490120887756348,1.6630859375,0.4554977101431341,80.0,805.0,0.0
Y,R,"[6, 10]",1.0,6.0,0.2682061195373535,1.9058690071105957,0.6444007822404886,80.0,806.0,0.0
R,U,"[5, 10]",1.0,7.0,0.24520397186279297,1.5596039295196533,0.3209376151034144,80.0,807.0,0.0
R,U,"[4, 10]",1.0,8.0,0.22960591316223145,1.4931387901306152,0.26407586141140743,80.0,808.0,0.0
B,L,"[4, 9]",1.0,9.0,0.33748888969421387,1.6902029514312744,0.3542467934423978,80.0,809.0,0.0
R,U,"[3, 9]",1.0,10.0,0.2301499843597412,1.9743149280548096,0.7447793688528324,80.0,810.0,0.0
,,"(6, 6)",,,,,,,,
R,U,"[5, 6]",1.0,1.0,0.6656651496887207,2.5713729858398438,0.5329788732667213,81.0,811.0,0.0
Y,R,"[5, 7]",1.0,2.0,0.20924901962280273,1.8467109203338623,0.6294582008786505,81.0,812.0,0.0
Y,R,"[5, 8]",1.0,3.0,0.221282958984375,1.6441600322723389,0.4237631320241559,81.0,813.0,0.0
G,D,"[6, 8]",1.0,4.0,0.24677491188049316,1.497380018234253,0.2546246127130569,81.0,814.0,0.0
Y,R,"[6, 9]",1.0,5.0,0.24964094161987305,1.800018072128296,0.5542883024525793,81.0,815.0,0.0
Y,R,"[6, 10]",1.0,6.0,0.23586010932922363,1.6020450592041016,0.37344012026317175,81.0,816.0,0.0
R,U,"[5, 10]",1.0,7.0,0.32372093200683594,1.7916369438171387,0.4647423496432359,81.0,817.0,0.0
R,U,"[4, 10]",1.0,8.0,0.22237205505371094,1.8045501708984375,0.5858017757723244,81.0,818.0,0.0
B,L,"[4, 9]",1.0,9.0,0.22569799423217773,1.501159906387329,0.2706163463115191,81.0,819.0,0.0
R,U,"[3, 9]",1.0,10.0,0.3131089210510254,1.5902678966522217,0.27745851882193473,81.0,820.0,0.0
,,"(6, 6)",,,,,,,,
R,U,"[5, 6]",1.0,1.0,0.4293501377105713,2.1785948276519775,0.2560201620266862,82.0,821.0,0.0
Y,R,"[5, 7]",1.0,2.0,0.29997920989990234,1.744189977645874,0.4500178107857477,82.0,822.0,0.0
Y,R,"[5, 8]",1.0,3.0,0.23895907402038574,1.5779237747192383,0.32794284589942657,82.0,823.0,0.0
R,U,"[4, 8]",0.0,3.0,0.43326783180236816,1.903465986251831,0.4812734598797924,82.0,824.0,0.0
Y,R,"[4, 9]",1.0,4.0,0.19886994361877441,1.8234500885009766,0.6212362271066931,82.0,825.0,0.0
Y,R,"[4, 10]",1.0,5.0,0.22664618492126465,1.707895040512085,0.47918709797804954,82.0,826.0,0.0
R,U,"[3, 10]",0.0,5.0,0.19228601455688477,1.6496939659118652,0.44560706992282884,82.0,827.0,0.0
R,U,"[2, 10]",0.0,5.0,0.19125103950500488,1.4708070755004883,0.2666008282366833,82.0,828.0,0.0
B,L,"[2, 9]",0.0,5.0,0.31281590461730957,1.9058117866516113,0.5886293767872217,82.0,829.0,0.0
R,U,"[1, 9]",0.0,5.0,0.1845409870147705,1.6801550388336182,0.5022104298288139,82.0,830.0,0.0
,,"(6, 6)",,,,,,,,
R,U,"[5, 6]",1.0,1.0,0.5069060325622559,3.3778440952301025,0.5797688643693628,83.0,831.0,0.0
Y,R,"[5, 7]",1.0,2.0,0.19688796997070312,1.6404609680175781,0.4371386589663937,83.0,832.0,0.0
Y,R,"[5, 8]",1.0,3.0,0.25168800354003906,1.7950379848480225,0.5486341766156769,83.0,833.0,0.0
G,D,"[6, 8]",1.0,4.0,0.21051502227783203,1.501924991607666,0.2840696230003032,83.0,834.0,0.0
Y,R,"[6, 9]",1.0,5.0,0.28450703620910645,1.8083040714263916,0.5254323774008236,83.0,835.0,0.0
Y,R,"[6, 10]",1.0,6.0,0.2155311107635498,1.933845043182373,0.7261618493159636,83.0,836.0,0.0
R,U,"[5, 10]",1.0,7.0,0.20511794090270996,1.8321690559387207,0.6413351862736362,83.0,837.0,0.0
R,U,"[4, 10]",1.0,8.0,0.1789698600769043,1.5007429122924805,0.3257575975493384,83.0,838.0,0.0
B,L,"[4, 9]",1.0,9.0,0.2908189296722412,1.6595349311828613,0.3685444679429374,83.0,839.0,0.0
R,U,"[3, 9]",1.0,10.0,0.20616602897644043,1.9340581893920898,0.7187832608434765,83.0,840.0,0.0
,,"(6, 6)",,,,,,,,
R,U,"[5, 6]",1.0,1.0,0.93569016456604,6.085098028182983,0.6871391588118357,84.0,841.0,0.0
Y,R,"[5, 7]",1.0,2.0,0.2263939380645752,1.5053601264953613,0.27622161441002735,84.0,842.0,0.0
Y,R,"[5, 8]",1.0,3.0,0.5013837814331055,1.873664140701294,0.3830904078383934,84.0,843.0,0.0
G,D,"[6, 8]",1.0,4.0,0.5011470317840576,2.0807440280914307,0.5801656338610126,84.0,844.0,0.0
R,U,"[5, 8]",0.0,4.0,0.5377411842346191,2.1433279514312744,0.6067835061614838,84.0,845.0,0.0
Y,R,"[5, 9]",0.0,4.0,0.16029000282287598,1.4384899139404297,0.2789727001719374,84.0,846.0,0.0
R,U,"[4, 9]",1.0,5.0,0.32140207290649414,1.6927199363708496,0.354847490584767,84.0,847.0,0.0
R,U,"[3, 9]",1.0,6.0,0.22021698951721191,1.924429178237915,0.7123181782274095,84.0,848.0,0.0
B,L,"[3, 8]",0.0,6.0,0.207672119140625,1.8526880741119385,0.6316618989632372,84.0,849.0,0.0
R,U,"[2, 8]",0.0,6.0,0.17861580848693848,1.8494181632995605,0.6648005677544365,84.0,850.0,0.0
,,"(6, 6)",,,,,,,,
R,U,"[5, 6]",1.0,1.0,0.7425329685211182,4.231431007385254,0.3293899342068261,85.0,851.0,0.0
Y,R,"[5, 7]",1.0,2.0,0.26847314834594727,1.8965528011322021,0.6256579865742911,85.0,852.0,0.0
Y,R,"[5, 8]",1.0,3.0,0.19994020462036133,1.683722972869873,0.49263515021220494,85.0,853.0,0.0
G,D,"[6, 8]",1.0,4.0,0.2695491313934326,1.6138370037078857,0.35670245290720315,85.0,854.0,0.0
Y,R,"[6, 9]",1.0,5.0,0.24991106986999512,1.8762409687042236,0.6325902998530804,85.0,855.0,0.0
Y,R,"[6, 10]",1.0,6.0,0.2025620937347412,1.4978301525115967,0.29743014827313646,85.0,856.0,0.0
R,U,"[5, 10]",1.0,7.0,0.28356099128723145,1.6552770137786865,0.3692867418289027,85.0,857.0,0.0
R,U,"[4, 10]",1.0,8.0,0.27052903175354004,1.7948298454284668,0.5305587461700472,85.0,858.0,0.0
B,L,"[4, 9]",1.0,9.0,0.2035200595855713,1.6928410530090332,0.4899737250406522,85.0,859.0,0.0
R,U,"[3, 9]",1.0,10.0,0.26043200492858887,1.685486078262329,0.42547520333901573,85.0,860.0,0.0
,,"(6, 6)",,,,,,,,
R,U,"[5, 6]",1.0,1.0,0.5468490123748779,3.0168919563293457,0.49224909074720724,86.0,861.0,0.0
Y,R,"[5, 7]",1.0,2.0,0.26111316680908203,1.7315309047698975,0.473842065811713,86.0,862.0,0.0
Y,R,"[5, 8]",1.0,3.0,0.243818998336792,1.923440933227539,0.6806708831577677,86.0,863.0,0.0
G,D,"[6, 8]",1.0,4.0,0.2164778709411621,1.7591609954833984,0.5396149640698,86.0,864.0,0.0
Y,R,"[6, 9]",1.0,5.0,0.21442794799804688,1.5091450214385986,0.2989362212627419,86.0,865.0,0.0
Y,R,"[6, 10]",1.0,6.0,0.2629690170288086,1.5498721599578857,0.2821236963875234,86.0,866.0,0.0
R,U,"[5, 10]",1.0,7.0,0.2867429256439209,1.6704258918762207,0.38580473987427005,86.0,867.0,0.0
R,U,"[4, 10]",1.0,8.0,0.279217004776001,1.6717069149017334,0.39077268247235936,86.0,868.0,0.0
B,L,"[4, 9]",1.0,9.0,0.24737811088562012,1.5519349575042725,0.30948741323081386,86.0,869.0,0.0
R,U,"[3, 9]",1.0,10.0,0.2464280128479004,1.9904379844665527,0.7492883121720579,86.0,870.0,0.0
,,"(6, 6)",,,,,,,,
R,U,"[5, 6]",1.0,1.0,0.594836950302124,5.7760398387908936,0.4421700482077056,87.0,871.0,0.0
Y,R,"[5, 7]",1.0,2.0,0.23838090896606445,1.5097689628601074,0.285531224764643,87.0,872.0,0.0
Y,R,"[5, 8]",1.0,3.0,0.3049800395965576,1.907499074935913,0.6095315514475683,87.0,873.0,0.0
G,D,"[6, 8]",1.0,4.0,0.22899508476257324,1.601086139678955,0.377270748300687,87.0,874.0,0.0
Y,R,"[6, 9]",1.0,5.0,0.2569890022277832,1.8092801570892334,0.5530203861787639,87.0,875.0,0.0
Y,R,"[6, 10]",1.0,6.0,0.21630001068115234,1.7764270305633545,0.562710071575643,87.0,876.0,0.0
R,U,"[5, 10]",1.0,7.0,0.23892498016357422,1.6012318134307861,0.3641419595375291,87.0,877.0,0.0
R,U,"[4, 10]",1.0,8.0,0.2509450912475586,1.8607540130615234,0.6078452021656171,87.0,878.0,0.0
B,L,"[4, 9]",1.0,9.0,0.22533392906188965,1.75474214553833,0.5293601536791863,87.0,879.0,0.0
R,U,"[3, 9]",1.0,10.0,0.22921109199523926,1.8951900005340576,0.6576068721920945,87.0,880.0,0.0
,,"(6, 6)",,,,,,,,
R,U,"[5, 6]",1.0,1.0,0.6075968742370605,2.4425950050354004,0.4671027049885595,88.0,881.0,0.0
Y,R,"[5, 7]",1.0,2.0,0.2199108600616455,1.543626070022583,0.32749543559603433,88.0,882.0,0.0
Y,R,"[5, 8]",1.0,3.0,0.2574939727783203,1.9326951503753662,0.6764930929083597,88.0,883.0,0.0
G,D,"[6, 8]",1.0,4.0,0.20720577239990234,1.5381669998168945,0.33165375157394367,88.0,884.0,0.0
Y,R,"[6, 9]",1.0,5.0,0.21722006797790527,1.5628039836883545,0.34444200639508743,88.0,885.0,0.0
Y,R,"[6, 10]",1.0,6.0,0.28519487380981445,1.6618881225585938,0.3895452970127024,88.0,886.0,0.0
R,U,"[5, 10]",1.0,7.0,0.2684669494628906,1.7612171173095703,0.5006391555429731,88.0,887.0,0.0
R,U,"[4, 10]",-1.0,7.0,0.09392881393432617,5.629070997238159,0.46290743852161254,88.0,888.0,0.0
R,U,"[3, 10]",0.0,7.0,0.21642708778381348,1.5672459602355957,0.3468294907569089,88.0,889.0,0.0
B,L,"[3, 9]",1.0,8.0,0.28278589248657227,1.5682759284973145,0.28188067116331345,88.0,890.0,0.0
,,"(6, 6)",,,,,,,,
R,U,"[5, 6]",1.0,1.0,0.5243451595306396,3.3418350219726562,0.32363565037491226,89.0,891.0,0.0
Y,R,"[5, 7]",1.0,2.0,0.36971616744995117,2.037343978881836,0.6774324023593367,89.0,892.0,0.0
Y,R,"[5, 8]",1.0,3.0,0.24646997451782227,1.6906020641326904,0.4515553137189006,89.0,893.0,0.0
G,D,"[6, 8]",1.0,4.0,0.36034393310546875,2.0515429973602295,0.6859596834510995,89.0,894.0,0.0
Y,R,"[6, 9]",1.0,5.0,0.19638490676879883,1.8025660514831543,0.605152788367235,89.0,895.0,0.0
Y,R,"[6, 10]",1.0,6.0,0.25632715225219727,1.6856129169464111,0.44090364254503545,89.0,896.0,0.0
R,U,"[5, 10]",1.0,7.0,0.3660461902618408,1.9623000621795654,0.6031023231842696,89.0,897.0,0.0
R,U,"[4, 10]",1.0,8.0,0.2253878116607666,1.637099027633667,0.4069717905119111,89.0,898.0,0.0
B,L,"[4, 9]",1.0,9.0,0.3049609661102295,1.6465988159179688,0.3536175668942167,89.0,899.0,0.0
R,U,"[3, 9]",1.0,10.0,0.47095298767089844,1.734281063079834,0.271332700736287,89.0,900.0,0.0
,,"(6, 6)",,,,,,,,
R,U,"[5, 6]",1.0,1.0,0.7377109527587891,2.9911720752716064,0.26242726569739416,90.0,901.0,0.0
Y,R,"[5, 7]",1.0,2.0,0.4905838966369629,1.8387491703033447,0.33443782866700333,90.0,902.0,0.0
Y,R,"[5, 8]",1.0,3.0,0.47327399253845215,1.8254821300506592,0.3431584106892706,90.0,903.0,0.0
G,D,"[6, 8]",1.0,4.0,0.277587890625,1.8541450500488281,0.5803434419825024,90.0,904.0,0.0
Y,R,"[6, 9]",-1.0,4.0,0.023416996002197266,5.791830062866211,0.7052144397178068,90.0,905.0,0.0
Y,R,"[6, 10]",1.0,5.0,0.24446892738342285,1.9428181648254395,0.6980229279335575,90.0,906.0,0.0
R,U,"[5, 10]",1.0,6.0,0.22850894927978516,1.7550759315490723,0.5199704257925022,90.0,907.0,0.0
R,U,"[4, 10]",1.0,7.0,0.25158095359802246,1.98868989944458,0.7420081279504329,90.0,908.0,0.0
B,L,"[4, 9]",1.0,8.0,0.2343120574951172,1.8803348541259766,0.6554115006818964,90.0,909.0,0.0
R,U,"[3, 9]",1.0,9.0,0.25084686279296875,1.5183908939361572,0.2739955417596998,90.0,910.0,0.0
,,"(6, 6)",,,,,,,,
R,U,"[5, 6]",1.0,1.0,0.6972808837890625,4.306513071060181,0.6634121832690578,91.0,911.0,0.0
Y,R,"[5, 7]",1.0,2.0,0.22260808944702148,1.6417031288146973,0.4053289246323209,91.0,912.0,0.0
Y,R,"[5, 8]",1.0,3.0,0.30614399909973145,1.7719790935516357,0.4606531663312302,91.0,913.0,0.0
G,D,"[6, 8]",1.0,4.0,0.2894148826599121,1.6344709396362305,0.3451727225765805,91.0,914.0,0.0
Y,R,"[6, 9]",1.0,5.0,0.2870190143585205,1.828312873840332,0.5565646050610391,91.0,915.0,0.0
Y,R,"[6, 10]",1.0,6.0,0.17470908164978027,1.5323638916015625,0.3556997329160979,91.0,916.0,0.0
R,U,"[5, 10]",1.0,7.0,0.25643110275268555,1.6408848762512207,0.37994352249378804,91.0,917.0,0.0
R,U,"[4, 10]",1.0,8.0,0.30460214614868164,1.8537418842315674,0.5500930602029572,91.0,918.0,0.0
B,L,"[4, 9]",1.0,9.0,0.21855592727661133,1.8973848819732666,0.6806345380035861,91.0,919.0,0.0
R,U,"[3, 9]",1.0,10.0,0.1663219928741455,1.419734001159668,0.2507273265317402,91.0,920.0,0.0
,,"(6, 6)",,,,,,,,
R,U,"[5, 6]",1.0,1.0,0.6042490005493164,2.6935489177703857,0.6606116859739151,92.0,921.0,0.0
Y,R,"[5, 7]",1.0,2.0,0.15347504615783691,1.8430759906768799,0.703517862376613,92.0,922.0,0.0
Y,R,"[5, 8]",1.0,3.0,0.1823132038116455,1.5804660320281982,0.40116026561524576,92.0,923.0,0.0
G,D,"[6, 8]",1.0,4.0,0.3609890937805176,2.037282943725586,0.6713187910123406,92.0,924.0,0.0
Y,R,"[6, 9]",1.0,5.0,0.22869205474853516,1.7443180084228516,0.5157946259581134,92.0,925.0,0.0
Y,R,"[6, 10]",1.0,6.0,0.29561495780944824,1.9073500633239746,0.606455951411897,92.0,926.0,0.0
R,U,"[5, 10]",1.0,7.0,0.17159295082092285,1.5787019729614258,0.41838126326958,92.0,927.0,0.0
R,U,"[4, 10]",1.0,8.0,0.3365321159362793,1.9962358474731445,0.6644357688442455,92.0,928.0,0.0
B,L,"[4, 9]",1.0,9.0,0.1443309783935547,1.7117559909820557,0.5594933634769521,92.0,929.0,0.0
R,U,"[3, 9]",1.0,10.0,0.24229001998901367,1.5590629577636719,0.31884946946063275,92.0,930.0,0.0
,,"(6, 6)",,,,,,,,
R,U,"[5, 6]",1.0,1.0,0.5097301006317139,2.5490128993988037,0.46758811306815534,93.0,931.0,0.0
Y,R,"[5, 7]",1.0,2.0,0.28662586212158203,1.7545859813690186,0.4721148606796385,93.0,932.0,0.0
Y,R,"[5, 8]",1.0,3.0,0.23764705657958984,1.6543481349945068,0.42655939640219526,93.0,933.0,0.0
G,D,"[6, 8]",1.0,4.0,0.3485898971557617,1.6748840808868408,0.3347883009474344,93.0,934.0,0.0
Y,R,"[6, 9]",1.0,5.0,0.408174991607666,1.830928087234497,0.41574139647608854,93.0,935.0,0.0
Y,R,"[6, 10]",1.0,6.0,0.28582096099853516,1.636707067489624,0.3523057724711391,93.0,936.0,0.0
R,U,"[5, 10]",1.0,7.0,0.4864530563354492,2.192373037338257,0.7108884540411327,93.0,937.0,0.0
R,U,"[4, 10]",1.0,8.0,0.2441110610961914,1.7126829624176025,0.4739184171089889,93.0,938.0,0.0
B,L,"[4, 9]",1.0,9.0,0.37345290184020996,1.8915889263153076,0.5152495925546525,93.0,939.0,0.0
R,U,"[3, 9]",1.0,10.0,0.1814889907836914,1.7080278396606445,0.523354364232485,93.0,940.0,0.0
,,"(6, 6)",,,,,,,,
R,U,"[5, 6]",1.0,1.0,0.6055541038513184,3.791990041732788,0.5652130259945795,94.0,941.0,0.0
Y,R,"[5, 7]",1.0,2.0,0.23535513877868652,1.511552095413208,0.27691507414269184,94.0,942.0,0.0
Y,R,"[5, 8]",1.0,3.0,0.4974629878997803,2.031013011932373,0.5409332562903908,94.0,943.0,0.0
G,D,"[6, 8]",1.0,4.0,0.2790200710296631,1.770251989364624,0.4947121869304562,94.0,944.0,0.0
Y,R,"[6, 9]",1.0,5.0,0.366563081741333,2.0105321407318115,0.6548774057696858,94.0,945.0,0.0
Y,R,"[6, 10]",1.0,6.0,0.2888338565826416,1.711380958557129,0.41659414925867494,94.0,946.0,0.0
R,U,"[5, 10]",1.0,7.0,0.2960078716278076,1.6172199249267578,0.3172602444820892,94.0,947.0,0.0
R,U,"[4, 10]",1.0,8.0,0.5493819713592529,2.0527429580688477,0.5030686230521904,94.0,948.0,0.0
B,L,"[4, 9]",1.0,9.0,0.2923870086669922,1.7388370037078857,0.4419581728420202,94.0,949.0,0.0
R,U,"[3, 9]",1.0,10.0,0.36106085777282715,1.858407974243164,0.5002701286702663,94.0,950.0,0.0
,,"(6, 6)",,,,,,,,
R,U,"[5, 6]",1.0,1.0,0.5783641338348389,3.7972559928894043,0.5306341335392114,95.0,951.0,0.0
Y,R,"[5, 7]",1.0,2.0,0.22731804847717285,1.981086015701294,0.7449313986513433,95.0,952.0,0.0
Y,R,"[5, 8]",1.0,3.0,0.3592500686645508,1.924307107925415,0.5693279777066002,95.0,953.0,0.0
G,D,"[6, 8]",1.0,4.0,0.35222911834716797,1.7457530498504639,0.39853672603362916,95.0,954.0,0.0
Y,R,"[6, 9]",1.0,5.0,0.33283019065856934,1.8012678623199463,0.46635379535790444,95.0,955.0,0.0
Y,R,"[6, 10]",1.0,6.0,0.2604339122772217,1.8554918766021729,0.588352168448451,95.0,956.0,0.0
R,U,"[5, 10]",1.0,7.0,0.22227907180786133,1.7798349857330322,0.5514969259539417,95.0,957.0,0.0
R,U,"[4, 10]",1.0,8.0,0.2758629322052002,1.7399539947509766,0.45835414438656724,95.0,958.0,0.0
B,L,"[4, 9]",1.0,9.0,0.22051095962524414,1.744365930557251,0.5357313443328311,95.0,959.0,0.0
R,U,"[3, 9]",1.0,10.0,0.2525441646575928,1.5409388542175293,0.29361886532185427,95.0,960.0,0.0
,,"(6, 6)",,,,,,,,
R,U,"[5, 6]",1.0,1.0,0.6296889781951904,2.7279820442199707,0.704470059215287,96.0,961.0,0.0
Y,R,"[5, 7]",1.0,2.0,0.20954608917236328,1.5705389976501465,0.35856329167851886,96.0,962.0,0.0
Y,R,"[5, 8]",1.0,3.0,0.33408188819885254,2.0499508380889893,0.7248069673039217,96.0,963.0,0.0
G,D,"[6, 8]",1.0,4.0,0.22918200492858887,1.6996450424194336,0.4746958487473622,96.0,964.0,0.0
Y,R,"[6, 9]",1.0,5.0,0.24513697624206543,1.917875051498413,0.6755586732555774,96.0,965.0,0.0
Y,R,"[6, 10]",1.0,6.0,0.24150300025939941,1.9370968341827393,0.6960323670179258,96.0,966.0,0.0
R,U,"[5, 10]",-1.0,6.0,0.01596999168395996,5.42299485206604,0.335888536890218,96.0,967.0,0.0
R,U,"[4, 10]",1.0,7.0,0.3507859706878662,2.0360000133514404,0.6882269102410485,96.0,968.0,0.0
R,U,"[3, 10]",0.0,7.0,0.228348970413208,1.7250609397888184,0.49677147514725933,96.0,969.0,0.0
B,L,"[3, 9]",1.0,8.0,0.2612590789794922,2.000694990158081,0.7309342420593691,96.0,970.0,0.0
,,"(6, 6)",,,,,,,,
R,U,"[5, 6]",1.0,1.0,0.788862943649292,6.170573949813843,0.30140750878289535,97.0,971.0,0.0
R,U,"[4, 6]",0.0,1.0,0.28923797607421875,1.7239151000976562,0.42507127113348453,97.0,972.0,0.0
Y,R,"[4, 7]",0.0,1.0,0.44566893577575684,1.7336270809173584,0.29215398253566033,97.0,973.0,0.0
G,D,"[5, 7]",1.0,2.0,0.3402838706970215,1.7859890460968018,0.44465133231785464,97.0,974.0,0.0
Y,R,"[5, 8]",1.0,3.0,0.20694804191589355,1.5303058624267578,0.32508689946289143,97.0,975.0,0.0
Y,R,"[5, 9]",0.0,3.0,0.32556891441345215,1.845093011856079,0.519926164455684,97.0,976.0,0.0
R,U,"[4, 9]",1.0,4.0,0.19461989402770996,1.4693081378936768,0.2728220972357498,97.0,977.0,0.0
B,L,"[4, 8]",0.0,4.0,0.2919600009918213,1.6300790309906006,0.33607673546469324,97.0,978.0,0.0
B,L,"[4, 7]",0.0,4.0,0.31053781509399414,2.0270979404449463,0.712754569676531,97.0,979.0,0.0
R,U,"[3, 7]",0.0,4.0,0.2602121829986572,1.9710490703582764,0.7004128910182157,97.0,980.0,0.0
,,"(6, 6)",,,,,,,,
R,U,"[5, 6]",1.0,1.0,0.5068418979644775,5.156770944595337,0.5904828921331435,98.0,981.0,0.0
Y,R,"[5, 7]",1.0,2.0,0.2345869541168213,1.5292010307312012,0.30329660294449473,98.0,982.0,0.0
Y,R,"[5, 8]",1.0,3.0,0.3332488536834717,1.792389154434204,0.4621797563723717,98.0,983.0,0.0
G,D,"[6, 8]",1.0,4.0,0.33913707733154297,1.9608349800109863,0.606108461582509,98.0,984.0,0.0
Y,R,"[6, 9]",1.0,5.0,0.34117984771728516,1.7686340808868408,0.4250244838955757,98.0,985.0,0.0
Y,R,"[6, 10]",1.0,6.0,0.3974881172180176,1.9116599559783936,0.5198185162108133,98.0,986.0,0.0
R,U,"[5, 10]",1.0,7.0,0.2940390110015869,2.0091919898986816,0.7120107702996188,98.0,987.0,0.0
R,U,"[4, 10]",1.0,8.0,0.2582690715789795,1.6724810600280762,0.40151100178401,98.0,988.0,0.0
B,L,"[4, 9]",1.0,9.0,0.303372859954834,1.8809659481048584,0.5823472981059631,98.0,989.0,0.0
G,D,"[5, 9]",0.0,9.0,0.23224806785583496,1.5928270816802979,0.3586829586389712,98.0,990.0,0.0
,,"(6, 6)",,,,,,,,
R,U,"[5, 6]",1.0,1.0,0.5823919773101807,4.037698984146118,0.6792771728939737,99.0,991.0,0.0
Y,R,"[5, 7]",1.0,2.0,0.20705485343933105,1.8840548992156982,0.6632058553714842,99.0,992.0,0.0
Y,R,"[5, 8]",1.0,3.0,0.24433612823486328,1.838170051574707,0.5848149798818717,99.0,993.0,0.0
G,D,"[6, 8]",1.0,4.0,0.21299505233764648,1.765883207321167,0.5505785816769687,99.0,994.0,0.0
Y,R,"[6, 9]",1.0,5.0,0.1474289894104004,1.6630229949951172,0.5135894690583114,99.0,995.0,0.0
Y,R,"[6, 10]",1.0,6.0,0.22762298583984375,1.7387561798095703,0.5023727776425244,99.0,996.0,0.0
R,U,"[5, 10]",1.0,7.0,0.22960710525512695,1.5982930660247803,0.36743347014868344,99.0,997.0,0.0
R,U,"[4, 10]",1.0,8.0,0.2622988224029541,1.6573021411895752,0.391454778205712,99.0,998.0,0.0
B,L,"[4, 9]",1.0,9.0,0.46336889266967773,2.056324005126953,0.5974675180188647,99.0,999.0,0.0
R,U,"[3, 9]",1.0,10.0,0.18761205673217773,1.6744539737701416,0.48877251336015515,99.0,1000.0,0.0
