button_choice,action_choice,coordinate_choice,reward,cumulative_reward,rt,total_trial_time,iti,block_n,trial_n,trial_type
R,U,"[5, 6]",1.0,1.0,0.6115849018096924,2.2672548294067383,0.5508897842764118,0.0,1.0,0.0
Y,R,"[5, 7]",1.0,2.0,0.2974519729614258,2.004304885864258,0.6056536991133992,0.0,2.0,0.0
Y,R,"[5, 8]",1.0,3.0,0.27420783042907715,1.9245929718017578,0.5469836760010407,0.0,3.0,0.0
G,D,"[6, 8]",1.0,4.0,0.2462310791015625,2.020867109298706,0.6678508037604002,0.0,4.0,0.0
Y,R,"[6, 9]",1.0,5.0,0.22071385383605957,1.924880027770996,0.6095162931391003,0.0,5.0,0.0
Y,R,"[6, 10]",1.0,6.0,0.20898985862731934,1.690899133682251,0.38393857911573903,0.0,6.0,0.0
R,U,"[5, 10]",1.0,7.0,0.24005484580993652,2.0122599601745605,0.6625703454323727,0.0,7.0,0.0
R,U,"[4, 10]",1.0,8.0,0.23449492454528809,2.0239129066467285,0.6865647587550662,0.0,8.0,0.0
B,L,"[4, 9]",1.0,9.0,0.21975493431091309,1.7437410354614258,0.4306619203418419,0.0,9.0,0.0
R,U,"[3, 9]",1.0,10.0,0.22394585609436035,1.9883480072021484,0.6521378918212668,0.0,10.0,0.0
,,"(6, 6)",,,,,,,,
R,U,"[5, 6]",1.0,1.0,0.4693279266357422,3.027172088623047,0.6126808027371914,1.0,11.0,0.0
Y,R,"[5, 7]",1.0,2.0,0.2302570343017578,1.6407828330993652,0.3038458444787009,1.0,12.0,0.0
Y,R,"[5, 8]",1.0,3.0,0.34391093254089355,2.184870958328247,0.7383796103217037,1.0,13.0,0.0
G,D,"[6, 8]",1.0,4.0,0.20479416847229004,1.8600671291351318,0.5486819227245407,1.0,14.0,0.0
Y,R,"[6, 9]",1.0,5.0,0.21026396751403809,1.5683021545410156,0.2506376774978989,1.0,15.0,0.0
Y,R,"[6, 10]",1.0,6.0,0.2565460205078125,1.6266639232635498,0.2607278051371519,1.0,16.0,0.0
R,U,"[5, 10]",1.0,7.0,0.2291250228881836,2.031956911087036,0.7089312994147215,1.0,17.0,0.0
R,U,"[4, 10]",1.0,8.0,0.33461689949035645,2.0584499835968018,0.6342062791672812,1.0,18.0,0.0
B,L,"[4, 9]",1.0,9.0,0.25048303604125977,1.7128360271453857,0.3640146943491802,1.0,19.0,0.0
R,U,"[3, 9]",1.0,10.0,0.2698400020599365,1.7857179641723633,0.41643862398432185,1.0,20.0,0.0
,,"(6, 6)",,,,,,,,
R,U,"[5, 6]",1.0,1.0,0.3943309783935547,4.067155122756958,0.4169241719485782,2.0,21.0,0.0
Y,R,"[5, 7]",1.0,2.0,0.25815510749816895,2.107917070388794,0.7412076507082037,2.0,22.0,0.0
Y,R,"[5, 8]",1.0,3.0,0.222059965133667,1.790313959121704,0.46529555765312036,2.0,23.0,0.0
G,D,"[6, 8]",1.0,4.0,0.23491787910461426,1.6942918300628662,0.35971340153834686,2.0,24.0,0.0
Y,R,"[6, 9]",1.0,5.0,0.19263505935668945,1.7870619297027588,0.49669967062422443,2.0,25.0,0.0
Y,R,"[6, 10]",1.0,6.0,0.20965790748596191,2.028658151626587,0.7084878252729854,2.0,26.0,0.0
R,U,"[5, 10]",1.0,7.0,0.21974802017211914,1.6545100212097168,0.3467572364188241,2.0,27.0,0.0
R,U,"[4, 10]",1.0,8.0,0.22548508644104004,1.7883758544921875,0.4517448275424886,2.0,28.0,0.0
B,L,"[4, 9]",1.0,9.0,0.21742582321166992,1.6505329608917236,0.33580376762174297,2.0,29.0,0.0
R,U,"[3, 9]",1.0,10.0,0.17065906524658203,1.8984761238098145,0.6339121803158687,2.0,30.0,0.0
,,"(6, 6)",,,,,,,,
R,U,"[5, 6]",1.0,1.0,0.40408992767333984,2.786972999572754,0.5211168158831953,3.0,31.0,0.0
Y,R,"[5, 7]",1.0,2.0,0.20556306838989258,1.9599909782409668,0.6475850921757131,3.0,32.0,0.0
Y,R,"[5, 8]",1.0,3.0,0.176008939743042,2.008452892303467,0.7227037459343646,3.0,33.0,0.0
G,D,"[6, 8]",1.0,4.0,0.1917119026184082,1.5453929901123047,0.2520350649461435,3.0,34.0,0.0
Y,R,"[6, 9]",1.0,5.0,0.26760005950927734,1.6941640377044678,0.32944658695492324,3.0,35.0,0.0
Y,R,"[6, 10]",1.0,6.0,0.19876408576965332,2.0436220169067383,0.7393577539238515,3.0,36.0,0.0
R,U,"[5, 10]",1.0,7.0,0.18073010444641113,1.5583219528198242,0.28145795788327593,3.0,37.0,0.0
R,U,"[4, 10]",1.0,8.0,0.20280814170837402,1.7705280780792236,0.4685765167585702,3.0,38.0,0.0
B,L,"[4, 9]",1.0,9.0,0.23652291297912598,1.6141180992126465,0.282954514826578,3.0,39.0,0.0
R,U,"[3, 9]",1.0,10.0,0.2337629795074463,1.5912601947784424,0.2576298996006058,3.0,40.0,0.0
,,"(6, 6)",,,,,,,,
R,U,"[5, 6]",1.0,1.0,0.41882896423339844,2.899773120880127,0.5405720106391334,4.0,41.0,0.0
Y,R,"[5, 7]",1.0,2.0,0.2374279499053955,1.9523530006408691,0.6095100226445568,4.0,42.0,0.0
Y,R,"[5, 8]",1.0,3.0,0.18465209007263184,1.7636518478393555,0.489865067358581,4.0,43.0,0.0
G,D,"[6, 8]",1.0,4.0,0.22682690620422363,1.6107230186462402,0.2843938900159058,4.0,44.0,0.0
Y,R,"[6, 9]",1.0,5.0,0.20622014999389648,2.0658810138702393,0.7496441243445439,4.0,45.0,0.0
Y,R,"[6, 10]",1.0,6.0,0.2145700454711914,1.9579851627349854,0.6411614322171504,4.0,46.0,0.0
R,U,"[5, 10]",1.0,7.0,0.25161004066467285,1.7287230491638184,0.3869046534185792,4.0,47.0,0.0
R,U,"[4, 10]",1.0,8.0,0.24146103858947754,2.0760011672973633,0.7291964079202795,4.0,48.0,0.0
B,L,"[4, 9]",1.0,9.0,0.21824979782104492,1.7597758769989014,0.4394789591088065,4.0,49.0,0.0
R,U,"[3, 9]",1.0,10.0,0.19305896759033203,1.8624870777130127,0.5684230198437009,4.0,50.0,0.0
,,"(6, 6)",,,,,,,,
R,U,"[5, 6]",1.0,1.0,0.4142580032348633,2.883272886276245,0.7015445214628016,5.0,51.0,0.0
Y,R,"[5, 7]",1.0,2.0,0.194411039352417,1.9795730113983154,0.6813074275399664,5.0,52.0,0.0
Y,R,"[5, 8]",1.0,3.0,0.1922140121459961,1.7523939609527588,0.4503724390179446,5.0,53.0,0.0
G,D,"[6, 8]",1.0,4.0,0.21739506721496582,1.855910062789917,0.5397662634859502,5.0,54.0,0.0
Y,R,"[6, 9]",1.0,5.0,0.22012591361999512,1.5683300495147705,0.25850493884604436,5.0,55.0,0.0
Y,R,"[6, 10]",1.0,6.0,0.28758788108825684,1.6767358779907227,0.2851650461110561,5.0,56.0,0.0
R,U,"[5, 10]",1.0,7.0,0.23634004592895508,1.891282081604004,0.559587341210743,5.0,57.0,0.0
R,U,"[4, 10]",1.0,8.0,0.20697903633117676,1.9168450832366943,0.6095821260169897,5.0,58.0,0.0
B,L,"[4, 9]",1.0,9.0,0.20767712593078613,1.7016730308532715,0.39460425738117805,5.0,59.0,0.0
R,U,"[3, 9]",1.0,10.0,0.20056891441345215,1.7749409675598145,0.48650936602711203,5.0,60.0,0.0
,,"(6, 6)",,,,,,,,
R,U,"[5, 6]",1.0,1.0,0.42903709411621094,2.848443031311035,0.33518442585941766,6.0,61.0,0.0
Y,R,"[5, 7]",1.0,2.0,0.24246597290039062,1.9213337898254395,0.5730697260749407,6.0,62.0,0.0
Y,R,"[5, 8]",1.0,3.0,0.19406795501708984,1.8595340251922607,0.5658957363074837,6.0,63.0,0.0
G,D,"[6, 8]",1.0,4.0,0.1763451099395752,1.6375689506530762,0.35371395503019426,6.0,64.0,0.0
Y,R,"[6, 9]",1.0,5.0,0.23468518257141113,1.7440669536590576,0.4145236961916933,6.0,65.0,0.0
Y,R,"[6, 10]",1.0,6.0,0.20810604095458984,1.578057050704956,0.259422444101182,6.0,66.0,0.0
R,U,"[5, 10]",1.0,7.0,0.26731204986572266,1.9596681594848633,0.6020869795804704,6.0,67.0,0.0
R,U,"[4, 10]",1.0,8.0,0.21177005767822266,1.767167091369629,0.4526600976323885,6.0,68.0,0.0
B,L,"[4, 9]",1.0,9.0,0.20928716659545898,1.8618569374084473,0.547794171575763,6.0,69.0,0.0
R,U,"[3, 9]",1.0,10.0,0.22079896926879883,1.7296581268310547,0.41113666094974594,6.0,70.0,0.0
,,"(6, 6)",,,,,,,,
R,U,"[5, 6]",1.0,1.0,0.43933892250061035,2.661389112472534,0.5722982621299495,7.0,71.0,0.0
Y,R,"[5, 7]",1.0,2.0,0.22147703170776367,1.835089921951294,0.5073215019672075,7.0,72.0,0.0
Y,R,"[5, 8]",1.0,3.0,0.20119094848632812,1.9125800132751465,0.6199256590679985,7.0,73.0,0.0
G,D,"[6, 8]",1.0,4.0,0.19252610206604004,1.988361120223999,0.6915803676061079,7.0,74.0,0.0
Y,R,"[6, 9]",1.0,5.0,0.23142194747924805,1.6593849658966064,0.3346945952190489,7.0,75.0,0.0
Y,R,"[6, 10]",1.0,6.0,0.2347879409790039,1.995007038116455,0.6628052299897038,7.0,76.0,0.0
R,U,"[5, 10]",1.0,7.0,0.1989760398864746,1.7738258838653564,0.4701214393924769,7.0,77.0,0.0
R,U,"[4, 10]",1.0,8.0,0.21772480010986328,1.6542608737945557,0.3412201321002136,7.0,78.0,0.0
B,L,"[4, 9]",1.0,9.0,0.2390899658203125,2.0816807746887207,0.7392871309092683,7.0,79.0,0.0
R,U,"[3, 9]",1.0,10.0,0.20713400840759277,1.9558629989624023,0.6451527711517406,7.0,80.0,0.0
,,"(6, 6)",,,,,,,,
R,U,"[5, 6]",1.0,1.0,0.44940996170043945,2.6454031467437744,0.5407361695744008,8.0,81.0,0.0
Y,R,"[5, 7]",1.0,2.0,0.4079561233520508,2.0432939529418945,0.5342157965899134,8.0,82.0,0.0
Y,R,"[5, 8]",1.0,3.0,0.20944905281066895,1.784127950668335,0.4683587506141578,8.0,83.0,0.0
G,D,"[6, 8]",1.0,4.0,0.24118280410766602,1.727090835571289,0.3789925991842037,8.0,84.0,0.0
Y,R,"[6, 9]",1.0,5.0,0.1873319149017334,1.9636058807373047,0.6755250397663408,8.0,85.0,0.0
Y,R,"[6, 10]",1.0,6.0,0.154710054397583,1.804938793182373,0.5640261750436749,8.0,86.0,0.0
R,U,"[5, 10]",1.0,7.0,0.2779378890991211,2.010258913040161,0.6241280907309106,8.0,87.0,0.0
R,U,"[4, 10]",1.0,8.0,0.22298312187194824,1.584695816040039,0.2593007244832078,8.0,88.0,0.0
B,L,"[4, 9]",1.0,9.0,0.2887301445007324,1.6523799896240234,0.26176078077535736,8.0,89.0,0.0
R,U,"[3, 9]",1.0,10.0,0.2847099304199219,2.1078040599823,0.7358730713957986,8.0,90.0,0.0
,,"(6, 6)",,,,,,,,
R,U,"[5, 6]",1.0,1.0,0.36940598487854004,12.91480016708374,0.6174605366329962,9.0,91.0,0.0
Y,R,"[5, 7]",1.0,2.0,0.241959810256958,1.6937479972839355,0.34479374270580393,9.0,92.0,0.0
Y,R,"[5, 8]",1.0,3.0,0.28787708282470703,1.7728030681610107,0.40100059395578025,9.0,93.0,0.0
G,D,"[6, 8]",1.0,4.0,0.2234480381011963,1.837264060974121,0.5048117655566725,9.0,94.0,0.0
Y,R,"[6, 9]",1.0,5.0,0.19434714317321777,1.6550109386444092,0.360160363589919,9.0,95.0,0.0
Y,R,"[6, 10]",1.0,6.0,0.2221670150756836,1.9165260791778564,0.5931086316126815,9.0,96.0,0.0
R,U,"[5, 10]",1.0,7.0,0.20551490783691406,1.6160640716552734,0.3094514817157846,9.0,97.0,0.0
R,U,"[4, 10]",1.0,8.0,0.23508596420288086,1.756951093673706,0.43287880659412287,9.0,98.0,0.0
B,L,"[4, 9]",1.0,9.0,0.22332096099853516,1.7062079906463623,0.3725413697209703,9.0,99.0,0.0
R,U,"[3, 9]",1.0,10.0,0.21937894821166992,1.8694260120391846,0.5585932174751325,9.0,100.0,0.0
,,"(6, 6)",,,,,,,,
R,U,"[5, 6]",1.0,1.0,0.3774380683898926,9.289061784744263,0.39782926789665873,10.0,101.0,0.0
Y,R,"[5, 7]",1.0,2.0,0.2861471176147461,1.994385004043579,0.6087106925482331,10.0,102.0,0.0
Y,R,"[5, 8]",1.0,3.0,0.26685118675231934,2.0284440517425537,0.6704413155180745,10.0,103.0,0.0
G,D,"[6, 8]",1.0,4.0,0.21515202522277832,1.9951531887054443,0.6823201553997107,10.0,104.0,0.0
Y,R,"[6, 9]",1.0,5.0,0.19489479064941406,1.6164610385894775,0.31581401042245344,10.0,105.0,0.0
Y,R,"[6, 10]",1.0,6.0,0.3180389404296875,1.9029970169067383,0.48540541492631123,10.0,106.0,0.0
R,U,"[5, 10]",1.0,7.0,0.2042698860168457,2.058289051055908,0.7433947926091098,10.0,107.0,0.0
R,U,"[4, 10]",1.0,8.0,0.2543301582336426,1.756706953048706,0.41716681010396267,10.0,108.0,0.0
B,L,"[4, 9]",1.0,9.0,0.24254894256591797,2.0571000576019287,0.7072260377599715,10.0,109.0,0.0
R,U,"[3, 9]",1.0,10.0,0.1907949447631836,1.8990118503570557,0.6064438098888755,10.0,110.0,0.0
,,"(6, 6)",,,,,,,,
R,U,"[5, 6]",1.0,1.0,0.43623995780944824,2.518103837966919,0.5246423513803067,11.0,111.0,0.0
Y,R,"[5, 7]",1.0,2.0,0.26222991943359375,1.7845559120178223,0.4260577007728795,11.0,112.0,0.0
Y,R,"[5, 8]",1.0,3.0,0.2580239772796631,1.9078350067138672,0.5503894695780285,11.0,113.0,0.0
G,D,"[6, 8]",1.0,4.0,0.19621586799621582,1.7286970615386963,0.42928317290385964,11.0,114.0,0.0
Y,R,"[6, 9]",1.0,5.0,0.22809195518493652,2.0079171657562256,0.6703670374065862,11.0,115.0,0.0
Y,R,"[6, 10]",1.0,6.0,0.2226250171661377,1.658156156539917,0.3287539468463192,11.0,116.0,0.0
R,U,"[5, 10]",1.0,7.0,0.37510085105895996,1.811486005783081,0.3404724917264925,11.0,117.0,0.0
R,U,"[4, 10]",1.0,8.0,0.3184971809387207,1.8900949954986572,0.48022434448816903,11.0,118.0,0.0
B,L,"[4, 9]",1.0,9.0,0.3476448059082031,1.965878963470459,0.5127886718364165,11.0,119.0,0.0
R,U,"[3, 9]",1.0,10.0,0.21511006355285645,1.606454849243164,0.28617110272532303,11.0,120.0,0.0
,,"(6, 6)",,,,,,,,
R,U,"[5, 6]",1.0,1.0,0.3801920413970947,3.2292919158935547,0.7481982391518063,12.0,121.0,0.0
Y,R,"[5, 7]",1.0,2.0,0.21379399299621582,1.8509149551391602,0.5329778698441112,12.0,122.0,0.0
Y,R,"[5, 8]",1.0,3.0,0.20496797561645508,1.911808967590332,0.6114038855913567,12.0,123.0,0.0
G,D,"[6, 8]",1.0,4.0,0.19399499893188477,1.7016780376434326,0.413265546423411,12.0,124.0,0.0
Y,R,"[6, 9]",1.0,5.0,0.21323108673095703,1.5945611000061035,0.27461374713599707,12.0,125.0,0.0
Y,R,"[6, 10]",1.0,6.0,0.31701207160949707,2.1052820682525635,0.6962491154987531,12.0,126.0,0.0
R,U,"[5, 10]",1.0,7.0,0.2295207977294922,1.9795551300048828,0.6424692620716914,12.0,127.0,0.0
R,U,"[4, 10]",1.0,8.0,0.22793197631835938,1.9533240795135498,0.6293217626705169,12.0,128.0,0.0
B,L,"[4, 9]",1.0,9.0,0.22642183303833008,1.5903289318084717,0.25332972472464715,12.0,129.0,0.0
R,U,"[3, 9]",1.0,10.0,0.3760838508605957,1.7955410480499268,0.31548226843952815,12.0,130.0,0.0
,,"(6, 6)",,,,,,,,
R,U,"[5, 6]",1.0,1.0,0.4192779064178467,3.1286449432373047,0.29424359516729515,13.0,131.0,0.0
Y,R,"[5, 7]",1.0,2.0,0.2365400791168213,1.6109778881072998,0.28841008113127464,13.0,132.0,0.0
Y,R,"[5, 8]",1.0,3.0,0.2520930767059326,1.7390408515930176,0.39411477378752935,13.0,133.0,0.0
G,D,"[6, 8]",1.0,4.0,0.23945903778076172,1.7100188732147217,0.3874253155254041,13.0,134.0,0.0
Y,R,"[6, 9]",1.0,5.0,0.2259211540222168,1.8448688983917236,0.5155460274483444,13.0,135.0,0.0
Y,R,"[6, 10]",1.0,6.0,0.22795510292053223,1.8743081092834473,0.5396736373652953,13.0,136.0,0.0
R,U,"[5, 10]",1.0,7.0,0.25647401809692383,1.8925268650054932,0.5490394498395785,13.0,137.0,0.0
R,U,"[4, 10]",1.0,8.0,0.22655487060546875,1.614954948425293,0.2809392844049768,13.0,138.0,0.0
B,L,"[4, 9]",1.0,9.0,0.282102108001709,1.8688170909881592,0.4830266770340611,13.0,139.0,0.0
R,U,"[3, 9]",1.0,10.0,0.24434590339660645,1.612879991531372,0.27944229617285193,13.0,140.0,0.0
,,"(6, 6)",,,,,,,,
R,U,"[5, 6]",1.0,1.0,0.42255711555480957,3.0292768478393555,0.25886962353317006,14.0,141.0,0.0
Y,R,"[5, 7]",1.0,2.0,0.3200531005859375,1.911998987197876,0.47052877488723227,14.0,142.0,0.0
Y,R,"[5, 8]",1.0,3.0,0.2431039810180664,1.9496901035308838,0.6034223797214702,14.0,143.0,0.0
G,D,"[6, 8]",1.0,4.0,0.257357120513916,1.7038929462432861,0.3410329273475367,14.0,144.0,0.0
Y,R,"[6, 9]",1.0,5.0,0.2615480422973633,1.9410369396209717,0.5818373159382852,14.0,145.0,0.0
Y,R,"[6, 10]",1.0,6.0,0.23999810218811035,1.9608759880065918,0.6092698307866689,14.0,146.0,0.0
R,U,"[5, 10]",1.0,7.0,0.29283595085144043,1.9514551162719727,0.5608574260378806,14.0,147.0,0.0
R,U,"[4, 10]",1.0,8.0,0.23420190811157227,2.0370640754699707,0.7143820894553563,14.0,148.0,0.0
B,L,"[4, 9]",1.0,9.0,0.23380112648010254,1.706407070159912,0.3712675433041149,14.0,149.0,0.0
R,U,"[3, 9]",1.0,10.0,0.3183000087738037,1.6999239921569824,0.287930938434636,14.0,150.0,0.0
,,"(6, 6)",,,,,,,,
R,U,"[5, 6]",1.0,1.0,0.44263601303100586,3.0949699878692627,0.3661275522419785,15.0,151.0,0.0
Y,R,"[5, 7]",1.0,2.0,0.2490081787109375,1.836794137954712,0.4861357506106736,15.0,152.0,0.0
Y,R,"[5, 8]",1.0,3.0,0.23288893699645996,1.5834100246429443,0.25327227267248853,15.0,153.0,0.0
G,D,"[6, 8]",1.0,4.0,0.26860809326171875,1.8625121116638184,0.4988827705924171,15.0,154.0,0.0
Y,R,"[6, 9]",1.0,5.0,0.22272682189941406,1.7983160018920898,0.4804265710254743,15.0,155.0,0.0
Y,R,"[6, 10]",1.0,6.0,0.30901622772216797,1.9747059345245361,0.5551843218962744,15.0,156.0,0.0
R,U,"[5, 10]",1.0,7.0,0.23620319366455078,1.595017910003662,0.2671832639837455,15.0,157.0,0.0
R,U,"[4, 10]",1.0,8.0,0.290302038192749,1.767115831375122,0.3674568327663197,15.0,158.0,0.0
B,L,"[4, 9]",1.0,9.0,0.28469204902648926,1.9489009380340576,0.5662210863474686,15.0,159.0,0.0
R,U,"[3, 9]",1.0,10.0,0.23416399955749512,1.6096749305725098,0.27634350839373983,15.0,160.0,0.0
,,"(6, 6)",,,,,,,,
R,U,"[5, 6]",1.0,1.0,0.43537402153015137,3.0950369834899902,0.28806271238539105,16.0,161.0,0.0
Y,R,"[5, 7]",1.0,2.0,0.3453807830810547,1.7935359477996826,0.34818700470435915,16.0,162.0,0.0
Y,R,"[5, 8]",1.0,3.0,0.32413697242736816,2.1576619148254395,0.7387049434759974,16.0,163.0,0.0
G,D,"[6, 8]",1.0,4.0,0.216109037399292,1.80318284034729,0.49241763046991993,16.0,164.0,0.0
Y,R,"[6, 9]",1.0,5.0,0.23934698104858398,1.740851879119873,0.39981183473071413,16.0,165.0,0.0
Y,R,"[6, 10]",1.0,6.0,0.2494041919708252,1.6683988571166992,0.3183503145476947,16.0,166.0,0.0
R,U,"[5, 10]",1.0,7.0,0.2295839786529541,1.6016509532928467,0.27001973639310284,16.0,167.0,0.0
R,U,"[4, 10]",1.0,8.0,0.3268599510192871,1.913275957107544,0.48312306469158034,16.0,168.0,0.0
B,L,"[4, 9]",1.0,9.0,0.2411940097808838,2.041529893875122,0.691079358131637,16.0,169.0,0.0
R,U,"[3, 9]",1.0,10.0,0.19707703590393066,1.55472993850708,0.262735598649777,16.0,170.0,0.0
,,"(6, 6)",,,,,,,,
R,U,"[5, 6]",1.0,1.0,0.42068004608154297,2.814192056655884,0.44384977614473536,17.0,171.0,0.0
Y,R,"[5, 7]",1.0,2.0,0.24507713317871094,1.8685011863708496,0.528530597236863,17.0,172.0,0.0
Y,R,"[5, 8]",1.0,3.0,0.29369497299194336,1.6435599327087402,0.25591892682134987,17.0,173.0,0.0
G,D,"[6, 8]",1.0,4.0,0.25873517990112305,1.9081649780273438,0.5471816429828575,17.0,174.0,0.0
Y,R,"[6, 9]",1.0,5.0,0.20812487602233887,1.871291160583496,0.5517889581942512,17.0,175.0,0.0
Y,R,"[6, 10]",1.0,6.0,0.26558518409729004,2.025022029876709,0.660050221779283,17.0,176.0,0.0
R,U,"[5, 10]",1.0,7.0,0.20291495323181152,1.9435150623321533,0.6536742429766905,17.0,177.0,0.0
B,L,"[5, 9]",0.0,7.0,0.21964406967163086,1.8688538074493408,0.5558806996638443,17.0,178.0,0.0
B,L,"[5, 8]",0.0,7.0,0.5705571174621582,2.421401023864746,0.7438010017389256,17.0,179.0,0.0
R,U,"[4, 8]",0.0,7.0,0.21585607528686523,1.8787789344787598,0.5730704583915667,17.0,180.0,0.0
,,"(6, 6)",,,,,,,,
R,U,"[5, 6]",1.0,1.0,0.4560568332672119,3.092200994491577,0.3320168543240879,18.0,181.0,0.0
Y,R,"[5, 7]",1.0,2.0,0.35575199127197266,2.103425979614258,0.6352267103898437,18.0,182.0,0.0
Y,R,"[5, 8]",1.0,3.0,0.2228689193725586,1.9315519332885742,0.6000586324583499,18.0,183.0,0.0
G,D,"[6, 8]",1.0,4.0,0.21060895919799805,1.9706377983093262,0.654012016132004,18.0,184.0,0.0
Y,R,"[6, 9]",1.0,5.0,0.23372602462768555,1.7824070453643799,0.4533347383841037,18.0,185.0,0.0
Y,R,"[6, 10]",1.0,6.0,0.2435591220855713,1.951951026916504,0.6050376872541594,18.0,186.0,0.0
R,U,"[5, 10]",1.0,7.0,0.21751904487609863,1.7822802066802979,0.4708017912211733,18.0,187.0,0.0
R,U,"[4, 10]",1.0,8.0,0.23988986015319824,2.0764429569244385,0.730337635099054,18.0,188.0,0.0
B,L,"[4, 9]",1.0,9.0,0.2582988739013672,1.6602888107299805,0.2911705238335391,18.0,189.0,0.0
R,U,"[3, 9]",1.0,10.0,0.35953783988952637,1.7524728775024414,0.2937180736458281,18.0,190.0,0.0
,,"(6, 6)",,,,,,,,
R,U,"[5, 6]",1.0,1.0,0.37535595893859863,2.5531840324401855,0.346776324129561,19.0,191.0,0.0
Y,R,"[5, 7]",1.0,2.0,0.2419438362121582,1.9862380027770996,0.6327464319060996,19.0,192.0,0.0
Y,R,"[5, 8]",1.0,3.0,0.19469690322875977,1.918224811553955,0.6175527358967661,19.0,193.0,0.0
G,D,"[6, 8]",1.0,4.0,0.19063591957092285,1.9192039966583252,0.6368813376675672,19.0,194.0,0.0
Y,R,"[6, 9]",1.0,5.0,0.19138002395629883,1.6041820049285889,0.3080939521359163,19.0,195.0,0.0
Y,R,"[6, 10]",1.0,6.0,0.29536914825439453,1.8205599784851074,0.42846293211256076,19.0,196.0,0.0
R,U,"[5, 10]",1.0,7.0,0.2526059150695801,1.5969619750976562,0.2589033442375253,19.0,197.0,0.0
R,U,"[4, 10]",1.0,8.0,0.2414569854736328,1.9050450325012207,0.5638041286346775,19.0,198.0,0.0
B,L,"[4, 9]",1.0,9.0,0.1782379150390625,1.9806699752807617,0.6943157279267471,19.0,199.0,0.0
R,U,"[3, 9]",1.0,10.0,0.18874883651733398,1.6207530498504639,0.3486624172134226,19.0,200.0,0.0
,,"(6, 6)",,,,,,,,
R,U,"[5, 6]",1.0,1.0,0.3633389472961426,2.7296018600463867,0.49486700516909843,20.0,201.0,0.0
R,U,"[4, 6]",0.0,1.0,0.21876192092895508,2.0385289192199707,0.7332160455303236,20.0,202.0,0.0
Y,R,"[4, 7]",0.0,1.0,0.15979695320129395,1.8287839889526367,0.5621480792234999,20.0,203.0,0.0
G,D,"[5, 7]",1.0,2.0,0.17204499244689941,1.8516309261322021,0.5804592916200224,20.0,204.0,0.0
Y,R,"[5, 8]",1.0,3.0,0.1704549789428711,1.6935269832611084,0.4242227468085789,20.0,205.0,0.0
Y,R,"[5, 9]",0.0,3.0,0.21624183654785156,1.7679181098937988,0.45877952497248536,20.0,206.0,0.0
R,U,"[4, 9]",1.0,4.0,0.17056798934936523,1.987149953842163,0.6955256161452346,20.0,207.0,0.0
B,L,"[4, 8]",0.0,4.0,0.2486281394958496,2.0951919555664062,0.740748741311325,20.0,208.0,0.0
R,U,"[3, 8]",-1.0,4.0,0.004637956619262695,5.706719160079956,0.5810812867164357,20.0,209.0,0.0
R,U,"[2, 8]",0.0,4.0,0.4148728847503662,2.1134989261627197,0.5945745155017765,20.0,210.0,0.0
,,"(6, 6)",,,,,,,,
R,U,"[5, 6]",1.0,1.0,0.4066779613494873,4.247812986373901,0.42577760064467013,21.0,211.0,0.0
Y,R,"[5, 7]",1.0,2.0,0.22708797454833984,2.057176113128662,0.7329146124995372,21.0,212.0,0.0
Y,R,"[5, 8]",1.0,3.0,0.18049192428588867,1.7925291061401367,0.5089552960771047,21.0,213.0,0.0
G,D,"[6, 8]",1.0,4.0,0.18921709060668945,1.8061621189117432,0.5150187828238397,21.0,214.0,0.0
Y,R,"[6, 9]",1.0,5.0,0.15271401405334473,1.8535161018371582,0.6018357335488185,21.0,215.0,0.0
Y,R,"[6, 10]",1.0,6.0,0.19654607772827148,1.6335620880126953,0.3356294879931335,21.0,216.0,0.0
R,U,"[5, 10]",1.0,7.0,0.2098090648651123,1.7267420291900635,0.4124814228708409,21.0,217.0,0.0
R,U,"[4, 10]",1.0,8.0,0.23289895057678223,1.8699629306793213,0.5490508045200134,21.0,218.0,0.0
B,L,"[4, 9]",1.0,9.0,0.19449114799499512,1.9887640476226807,0.6874973014556103,21.0,219.0,0.0
R,U,"[3, 9]",1.0,10.0,0.170759916305542,1.7271912097930908,0.4649772767978204,21.0,220.0,0.0
,,"(6, 6)",,,,,,,,
R,U,"[5, 6]",1.0,1.0,0.3923180103302002,2.843385934829712,0.4252421805997369,22.0,221.0,0.0
Y,R,"[5, 7]",1.0,2.0,0.5567281246185303,1.9177539348602295,0.25968978468458975,22.0,222.0,0.0
Y,R,"[5, 8]",1.0,3.0,0.3841209411621094,2.0004470348358154,0.5264329998849424,22.0,223.0,0.0
G,D,"[6, 8]",1.0,4.0,0.18521904945373535,1.8931198120117188,0.6197152119485658,22.0,224.0,0.0
Y,R,"[6, 9]",1.0,5.0,0.1993389129638672,1.9901938438415527,0.6928756084504772,22.0,225.0,0.0
Y,R,"[6, 10]",1.0,6.0,0.20226001739501953,1.8539340496063232,0.5638038595383366,22.0,226.0,0.0
R,U,"[5, 10]",1.0,7.0,0.2494029998779297,1.8917129039764404,0.5389907284111661,22.0,227.0,0.0
R,U,"[4, 10]",1.0,8.0,0.23913311958312988,1.9474709033966064,0.6031052473303709,22.0,228.0,0.0
B,L,"[4, 9]",1.0,9.0,0.27321696281433105,1.9551889896392822,0.5749936157677427,22.0,229.0,0.0
R,U,"[3, 9]",1.0,10.0,0.24924182891845703,1.8739211559295654,0.5323033363334273,22.0,230.0,0.0
,,"(6, 6)",,,,,,,,
R,U,"[5, 6]",1.0,1.0,0.4689671993255615,3.7564070224761963,0.25569549698132155,23.0,231.0,0.0
Y,R,"[5, 7]",1.0,2.0,0.2672538757324219,1.8673732280731201,0.5058326857221523,23.0,232.0,0.0
Y,R,"[5, 8]",1.0,3.0,0.23865389823913574,1.6327929496765137,0.28922158890465893,23.0,233.0,0.0
G,D,"[6, 8]",1.0,4.0,0.2503950595855713,2.0601799488067627,0.7155761419123647,23.0,234.0,0.0
Y,R,"[6, 9]",1.0,5.0,0.21759510040283203,1.9392709732055664,0.6216368611640614,23.0,235.0,0.0
Y,R,"[6, 10]",1.0,6.0,0.23163199424743652,1.9616479873657227,0.6333259456991627,23.0,236.0,0.0
R,U,"[5, 10]",1.0,7.0,0.21975302696228027,1.9762201309204102,0.6593222658781717,23.0,237.0,0.0
R,U,"[4, 10]",1.0,8.0,0.24416899681091309,1.907593011856079,0.5670757469813479,23.0,238.0,0.0
B,L,"[4, 9]",1.0,9.0,0.2417140007019043,2.0235729217529297,0.6738545002067656,23.0,239.0,0.0
R,U,"[3, 9]",1.0,10.0,0.24895596504211426,1.7311689853668213,0.3886284866521238,23.0,240.0,0.0
,,"(6, 6)",,,,,,,,
R,U,"[5, 6]",1.0,1.0,0.44056200981140137,3.118952989578247,0.3245257241320223,24.0,241.0,0.0
Y,R,"[5, 7]",1.0,2.0,0.3123610019683838,1.9473280906677246,0.5383336453080347,24.0,242.0,0.0
Y,R,"[5, 8]",1.0,3.0,0.23916077613830566,2.0069169998168945,0.6616831253231954,24.0,243.0,0.0
G,D,"[6, 8]",1.0,4.0,0.24028801918029785,1.8500890731811523,0.5120896399010821,24.0,244.0,0.0
Y,R,"[6, 9]",1.0,5.0,0.1936190128326416,1.8310058116912842,0.5429302695159419,24.0,245.0,0.0
Y,R,"[6, 10]",1.0,6.0,0.35318899154663086,2.1895530223846436,0.7489631530883079,24.0,246.0,0.0
R,U,"[5, 10]",1.0,7.0,0.19115519523620605,2.0001730918884277,0.6993752894353797,24.0,247.0,0.0
R,U,"[4, 10]",1.0,8.0,0.18037891387939453,2.0195980072021484,0.7354051952784912,24.0,248.0,0.0
B,L,"[4, 9]",1.0,9.0,0.19367194175720215,1.5817530155181885,0.28437841041387213,24.0,249.0,0.0
R,U,"[3, 9]",1.0,10.0,0.306535005569458,2.0608179569244385,0.6448409426495882,24.0,250.0,0.0
,,"(6, 6)",,,,,,,,
R,U,"[5, 6]",1.0,1.0,0.4466259479522705,4.702934980392456,0.6810718275831651,25.0,251.0,0.0
Y,R,"[5, 7]",1.0,2.0,0.2209789752960205,1.7540788650512695,0.43547018100672036,25.0,252.0,0.0
Y,R,"[5, 8]",1.0,3.0,0.2811570167541504,1.8353168964385986,0.4540466270613459,25.0,253.0,0.0
G,D,"[6, 8]",1.0,4.0,0.2716851234436035,2.059340000152588,0.6965378847597552,25.0,254.0,0.0
Y,R,"[6, 9]",1.0,5.0,0.21320295333862305,2.014540910720825,0.6943116588945047,25.0,255.0,0.0
Y,R,"[6, 10]",1.0,6.0,0.2152090072631836,1.6415529251098633,0.33632690213268124,25.0,256.0,0.0
R,U,"[5, 10]",1.0,7.0,0.24426698684692383,1.8050920963287354,0.45805799493664845,25.0,257.0,0.0
R,U,"[4, 10]",1.0,8.0,0.20743298530578613,1.6642451286315918,0.3556816594053728,25.0,258.0,0.0
B,L,"[4, 9]",1.0,9.0,0.24468493461608887,1.8445532321929932,0.5000662969744788,25.0,259.0,0.0
R,U,"[3, 9]",1.0,10.0,0.18968605995178223,1.6888189315795898,0.3890127175595215,25.0,260.0,0.0
,,"(6, 6)",,,,,,,,
R,U,"[5, 6]",1.0,1.0,0.40555810928344727,2.9251868724823,0.6972453498664539,26.0,261.0,0.0
Y,R,"[5, 7]",1.0,2.0,0.19336318969726562,1.648026943206787,0.3456770637575702,26.0,262.0,0.0
Y,R,"[5, 8]",1.0,3.0,0.270827054977417,1.8335859775543213,0.47912098066614583,26.0,263.0,0.0
G,D,"[6, 8]",1.0,4.0,0.2219390869140625,1.8037049770355225,0.4996048202623501,26.0,264.0,0.0
Y,R,"[6, 9]",1.0,5.0,0.18207502365112305,1.7680339813232422,0.48420346329660174,26.0,265.0,0.0
Y,R,"[6, 10]",1.0,6.0,0.16254591941833496,1.617375135421753,0.3517465782536602,26.0,266.0,0.0
R,U,"[5, 10]",1.0,7.0,0.2717859745025635,1.9362549781799316,0.5545913062752232,26.0,267.0,0.0
R,U,"[4, 10]",1.0,8.0,0.20697689056396484,1.9781959056854248,0.6658675197862298,26.0,268.0,0.0
B,L,"[4, 9]",1.0,9.0,0.21140813827514648,1.6499361991882324,0.3328668426672718,26.0,269.0,0.0
R,U,"[3, 9]",1.0,10.0,0.2735860347747803,1.77669095993042,0.3928288270207023,26.0,270.0,0.0
,,"(6, 6)",,,,,,,,
R,U,"[5, 6]",1.0,1.0,0.405444860458374,2.371619939804077,0.4144876771234746,27.0,271.0,0.0
Y,R,"[5, 7]",1.0,2.0,0.21987104415893555,2.0579099655151367,0.7386752198787943,27.0,272.0,0.0
Y,R,"[5, 8]",1.0,3.0,0.19251108169555664,1.777914047241211,0.4835224966288377,27.0,273.0,0.0
G,D,"[6, 8]",1.0,4.0,0.23175311088562012,1.7447881698608398,0.4115307703004926,27.0,274.0,0.0
Y,R,"[6, 9]",1.0,5.0,0.20694398880004883,1.9150419235229492,0.6100842736782758,27.0,275.0,0.0
Y,R,"[6, 10]",1.0,6.0,0.25647497177124023,1.772920846939087,0.41619789465484913,27.0,276.0,0.0
R,U,"[5, 10]",1.0,7.0,0.29907894134521484,1.8394908905029297,0.4391341796388021,27.0,277.0,0.0
R,U,"[4, 10]",1.0,8.0,0.2309248447418213,1.8839950561523438,0.556393822012063,27.0,278.0,0.0
B,L,"[4, 9]",1.0,9.0,0.22950100898742676,1.7692999839782715,0.4425902878650457,27.0,279.0,0.0
R,U,"[3, 9]",1.0,10.0,0.23988580703735352,2.003477096557617,0.6624143177783748,27.0,280.0,0.0
,,"(6, 6)",,,,,,,,
R,U,"[5, 6]",1.0,1.0,0.4464879035949707,2.627480983734131,0.6732498786118818,28.0,281.0,0.0
Y,R,"[5, 7]",1.0,2.0,0.21303200721740723,2.021678924560547,0.7115955517388208,28.0,282.0,0.0
Y,R,"[5, 8]",1.0,3.0,0.2433490753173828,1.791945219039917,0.4537510513350351,28.0,283.0,0.0
G,D,"[6, 8]",1.0,4.0,0.2273099422454834,1.7895679473876953,0.46012725931149856,28.0,284.0,0.0
Y,R,"[6, 9]",1.0,5.0,0.24793291091918945,1.9389970302581787,0.5990414860017778,28.0,285.0,0.0
Y,R,"[6, 10]",1.0,6.0,0.20792102813720703,2.015557050704956,0.697647961888642,28.0,286.0,0.0
R,U,"[5, 10]",1.0,7.0,0.18645501136779785,1.9380769729614258,0.6360271261844197,28.0,287.0,0.0
R,U,"[4, 10]",1.0,8.0,0.24423885345458984,1.8703069686889648,0.523055413590201,28.0,288.0,0.0
B,L,"[4, 9]",1.0,9.0,0.23863577842712402,1.7633061408996582,0.4197688648376612,28.0,289.0,0.0
R,U,"[3, 9]",1.0,10.0,0.17703700065612793,1.6120009422302246,0.331955191715561,28.0,290.0,0.0
,,"(6, 6)",,,,,,,,
R,U,"[5, 6]",1.0,1.0,0.421536922454834,2.386875867843628,0.501976352700726,29.0,291.0,0.0
Y,R,"[5, 7]",1.0,2.0,0.17624497413635254,1.979006052017212,0.6973747345131046,29.0,292.0,0.0
Y,R,"[5, 8]",1.0,3.0,0.20986199378967285,1.842473030090332,0.5233488153813727,29.0,293.0,0.0
G,D,"[6, 8]",1.0,4.0,0.21860909461975098,1.6040799617767334,0.29439516691282674,29.0,294.0,0.0
Y,R,"[6, 9]",1.0,5.0,0.1679248809814453,1.6724579334259033,0.41676776326711246,29.0,295.0,0.0
Y,R,"[6, 10]",1.0,6.0,0.21049118041992188,1.8276798725128174,0.5108904955143341,29.0,296.0,0.0
R,U,"[5, 10]",1.0,7.0,0.1981678009033203,1.9732580184936523,0.6840409502899988,29.0,297.0,0.0
R,U,"[4, 10]",1.0,8.0,0.2226250171661377,1.7444779872894287,0.412128433720836,29.0,298.0,0.0
B,L,"[4, 9]",1.0,9.0,0.20645403861999512,1.6017072200775146,0.3140552662006056,29.0,299.0,0.0
R,U,"[3, 9]",1.0,10.0,0.22761297225952148,2.020113945007324,0.6837029706612316,29.0,300.0,0.0
,,"(6, 6)",,,,,,,,
R,U,"[5, 6]",1.0,1.0,0.4430689811706543,3.5222058296203613,0.7224665426658436,30.0,301.0,0.0
Y,R,"[5, 7]",1.0,2.0,0.22429990768432617,2.021009922027588,0.6936695944266966,30.0,302.0,0.0
Y,R,"[5, 8]",1.0,3.0,0.2607460021972656,1.6272859573364258,0.2713126702920863,30.0,303.0,0.0
G,D,"[6, 8]",1.0,4.0,0.202423095703125,1.6932520866394043,0.3978389661674003,30.0,304.0,0.0
Y,R,"[6, 9]",1.0,5.0,0.22874689102172852,1.8728320598602295,0.537210309270481,30.0,305.0,0.0
Y,R,"[6, 10]",1.0,6.0,0.18767595291137695,1.5643408298492432,0.2850979478790582,30.0,306.0,0.0
R,U,"[5, 10]",1.0,7.0,0.21442484855651855,1.7137079238891602,0.39885400692095757,30.0,307.0,0.0
R,U,"[4, 10]",1.0,8.0,0.20284104347229004,1.5537259578704834,0.2526618659241119,30.0,308.0,0.0
B,L,"[4, 9]",1.0,9.0,0.16279006004333496,1.9179439544677734,0.6536097965543921,30.0,309.0,0.0
R,U,"[3, 9]",1.0,10.0,0.21484684944152832,1.592538833618164,0.279840791515456,30.0,310.0,0.0
,,"(6, 6)",,,,,,,,
R,U,"[5, 6]",1.0,1.0,0.3633549213409424,2.7508058547973633,0.29723252471036693,31.0,311.0,0.0
Y,R,"[5, 7]",1.0,2.0,0.22236204147338867,1.8861148357391357,0.5499213468522857,31.0,312.0,0.0
Y,R,"[5, 8]",1.0,3.0,0.1759350299835205,1.9414279460906982,0.6577902942954752,31.0,313.0,0.0
G,D,"[6, 8]",1.0,4.0,0.32600903511047363,1.8045539855957031,0.37936566727411375,31.0,314.0,0.0
Y,R,"[6, 9]",1.0,5.0,0.3044121265411377,2.0206689834594727,0.6163857862769591,31.0,315.0,0.0
Y,R,"[6, 10]",1.0,6.0,0.2775850296020508,1.7598378658294678,0.3765643655378176,31.0,316.0,0.0
R,U,"[5, 10]",1.0,7.0,0.2720160484313965,1.891129970550537,0.5342164279526544,31.0,317.0,0.0
R,U,"[4, 10]",1.0,8.0,0.2376711368560791,1.8326029777526855,0.4999675146818141,31.0,318.0,0.0
B,L,"[4, 9]",1.0,9.0,0.19137883186340332,1.8951799869537354,0.5952630544983297,31.0,319.0,0.0
R,U,"[3, 9]",1.0,10.0,0.19914913177490234,2.0009191036224365,0.7127475653325299,31.0,320.0,0.0
,,"(6, 6)",,,,,,,,
R,U,"[5, 6]",1.0,1.0,0.3759291172027588,2.364974021911621,0.561523605975351,32.0,321.0,0.0
Y,R,"[5, 7]",1.0,2.0,0.25696492195129395,1.9774198532104492,0.6218930628387975,32.0,322.0,0.0
Y,R,"[5, 8]",1.0,3.0,0.19041895866394043,2.008687973022461,0.7138363785061939,32.0,323.0,0.0
G,D,"[6, 8]",1.0,4.0,0.22387218475341797,2.0803990364074707,0.7443265750071688,32.0,324.0,0.0
Y,R,"[6, 9]",1.0,5.0,0.1751871109008789,1.7388780117034912,0.46679404666884794,32.0,325.0,0.0
Y,R,"[6, 10]",1.0,6.0,0.2281489372253418,1.8385460376739502,0.5052004681227288,32.0,326.0,0.0
R,U,"[5, 10]",1.0,7.0,0.19923901557922363,1.6361820697784424,0.34166261240911355,32.0,327.0,0.0
R,U,"[4, 10]",1.0,8.0,0.2528572082519531,1.7320289611816406,0.3903570476530814,32.0,328.0,0.0
B,L,"[4, 9]",1.0,9.0,0.20273804664611816,1.858130931854248,0.5648769009819846,32.0,329.0,0.0
R,U,"[3, 9]",1.0,10.0,0.22879600524902344,1.9067718982696533,0.5717468362223058,32.0,330.0,0.0
,,"(6, 6)",,,,,,,,
R,U,"[5, 6]",1.0,1.0,0.3214099407196045,2.0668060779571533,0.3054092818322523,33.0,331.0,0.0
Y,R,"[5, 7]",1.0,2.0,0.18435382843017578,1.7485640048980713,0.4704333085822509,33.0,332.0,0.0
Y,R,"[5, 8]",1.0,3.0,0.18509602546691895,1.932239055633545,0.6523708518875474,33.0,333.0,0.0
G,D,"[6, 8]",1.0,4.0,0.18433403968811035,1.6896820068359375,0.4092451302678001,33.0,334.0,0.0
Y,R,"[6, 9]",1.0,5.0,0.19587993621826172,1.986603021621704,0.695520737882808,33.0,335.0,0.0
Y,R,"[6, 10]",1.0,6.0,0.1714780330657959,1.7998769283294678,0.5288873412319423,33.0,336.0,0.0
R,U,"[5, 10]",1.0,7.0,0.21556401252746582,1.8877429962158203,0.583168815449357,33.0,337.0,0.0
R,U,"[4, 10]",1.0,8.0,0.2017040252685547,1.8569059371948242,0.5568252719098947,33.0,338.0,0.0
B,L,"[4, 9]",1.0,9.0,0.1808640956878662,1.962273120880127,0.6856054807680769,33.0,339.0,0.0
R,U,"[3, 9]",1.0,10.0,0.1920621395111084,1.5669121742248535,0.2696888894650296,33.0,340.0,0.0
,,"(6, 6)",,,,,,,,
R,U,"[5, 6]",1.0,1.0,0.3357679843902588,3.1777310371398926,0.646970988549755,34.0,341.0,0.0
Y,R,"[5, 7]",1.0,2.0,0.21324396133422852,1.8178751468658447,0.4984523322801557,34.0,342.0,0.0
Y,R,"[5, 8]",1.0,3.0,0.16559195518493652,1.7616939544677734,0.4934718834426407,34.0,343.0,0.0
G,D,"[6, 8]",1.0,4.0,0.20163989067077637,1.6668341159820557,0.3770814374462309,34.0,344.0,0.0
Y,R,"[6, 9]",1.0,5.0,0.20807600021362305,1.909339189529419,0.6029310037201672,34.0,345.0,0.0
Y,R,"[6, 10]",1.0,6.0,0.1664578914642334,1.6635949611663818,0.4000722659988014,34.0,346.0,0.0
R,U,"[5, 10]",1.0,7.0,0.2098100185394287,1.5903480052947998,0.2738073249196848,34.0,347.0,0.0
R,U,"[4, 10]",1.0,8.0,0.20954608917236328,1.875072956085205,0.5653199549920032,34.0,348.0,0.0
B,L,"[4, 9]",1.0,9.0,0.18154191970825195,1.6325929164886475,0.34818834969243234,34.0,349.0,0.0
R,U,"[3, 9]",1.0,10.0,0.21512484550476074,2.067274808883667,0.7483471042160525,34.0,350.0,0.0
,,"(6, 6)",,,,,,,,
R,U,"[5, 6]",1.0,1.0,0.36417198181152344,2.891481876373291,0.7065240720071326,35.0,351.0,0.0
Y,R,"[5, 7]",1.0,2.0,0.15316081047058105,1.6471278667449951,0.4039644910079133,35.0,352.0,0.0
Y,R,"[5, 8]",1.0,3.0,0.17039203643798828,1.7089018821716309,0.4462195251566336,35.0,353.0,0.0
G,D,"[6, 8]",1.0,4.0,0.19281005859375,1.612635850906372,0.3088819239175601,35.0,354.0,0.0
Y,R,"[6, 9]",1.0,5.0,0.20687413215637207,1.8060719966888428,0.49816569873484035,35.0,355.0,0.0
Y,R,"[6, 10]",1.0,6.0,0.1860799789428711,1.7897601127624512,0.504660725548889,35.0,356.0,0.0
R,U,"[5, 10]",1.0,7.0,0.1901099681854248,1.8001189231872559,0.5046671680671656,35.0,357.0,0.0
R,U,"[4, 10]",1.0,8.0,0.18612098693847656,1.7588510513305664,0.4635742448805366,35.0,358.0,0.0
B,L,"[4, 9]",1.0,9.0,0.20137810707092285,2.0115609169006348,0.7082790195098383,35.0,359.0,0.0
R,U,"[3, 9]",1.0,10.0,0.1983780860900879,1.883288860321045,0.5916480174123089,35.0,360.0,0.0
,,"(6, 6)",,,,,,,,
R,U,"[5, 6]",1.0,1.0,0.3423459529876709,2.6679139137268066,0.6928078983803774,36.0,361.0,0.0
Y,R,"[5, 7]",1.0,2.0,0.16770505905151367,1.9629249572753906,0.7058285296680167,36.0,362.0,0.0
Y,R,"[5, 8]",1.0,3.0,0.1817319393157959,1.9534339904785156,0.6759088598323773,36.0,363.0,0.0
G,D,"[6, 8]",1.0,4.0,0.17479896545410156,1.8862829208374023,0.6123393625717932,36.0,364.0,0.0
Y,R,"[6, 9]",1.0,5.0,0.20463109016418457,1.6356210708618164,0.3482904530409528,36.0,365.0,0.0
Y,R,"[6, 10]",1.0,6.0,0.23165392875671387,2.041485071182251,0.7060354585226416,36.0,366.0,0.0
R,U,"[5, 10]",1.0,7.0,0.21039509773254395,1.5737500190734863,0.26343440288545084,36.0,367.0,0.0
R,U,"[4, 10]",1.0,8.0,0.21412396430969238,1.7149198055267334,0.39505980929636414,36.0,368.0,0.0
B,L,"[4, 9]",1.0,9.0,0.2592141628265381,1.920954942703247,0.5657451900120791,36.0,369.0,0.0
R,U,"[3, 9]",1.0,10.0,0.2278280258178711,2.049992084503174,0.7157514805611495,36.0,370.0,0.0
,,"(6, 6)",,,,,,,,
R,U,"[5, 6]",1.0,1.0,0.34682703018188477,3.550654172897339,0.6496587245710174,37.0,371.0,0.0
Y,R,"[5, 7]",1.0,2.0,0.28099489212036133,1.9725489616394043,0.5890776775629162,37.0,372.0,0.0
Y,R,"[5, 8]",1.0,3.0,0.2254929542541504,1.759120225906372,0.4315614471239661,37.0,373.0,0.0
G,D,"[6, 8]",1.0,4.0,0.24611711502075195,1.609544038772583,0.2580752998907227,37.0,374.0,0.0
Y,R,"[6, 9]",1.0,5.0,0.25400400161743164,1.8998889923095703,0.5576345026047371,37.0,375.0,0.0
Y,R,"[6, 10]",1.0,6.0,0.22404098510742188,2.0724759101867676,0.7466266024901729,37.0,376.0,0.0
R,U,"[5, 10]",1.0,7.0,0.2536740303039551,2.0316808223724365,0.6783926079707405,37.0,377.0,0.0
R,U,"[4, 10]",1.0,8.0,0.2204439640045166,1.674983024597168,0.3702429795207372,37.0,378.0,0.0
B,L,"[4, 9]",1.0,9.0,0.2665519714355469,1.7302169799804688,0.36724652489016624,37.0,379.0,0.0
R,U,"[3, 9]",1.0,10.0,0.21559405326843262,2.057955026626587,0.7414446245833634,37.0,380.0,0.0
,,"(6, 6)",,,,,,,,
R,U,"[5, 6]",1.0,1.0,0.42455601692199707,2.6460518836975098,0.7211231615712244,38.0,381.0,0.0
Y,R,"[5, 7]",1.0,2.0,0.18427777290344238,1.6438848972320557,0.3651439494160151,38.0,382.0,0.0
Y,R,"[5, 8]",1.0,3.0,0.23268604278564453,1.9448189735412598,0.6096400443365206,38.0,383.0,0.0
G,D,"[6, 8]",1.0,4.0,0.2135632038116455,1.5916459560394287,0.2849931035268632,38.0,384.0,0.0
Y,R,"[6, 9]",1.0,5.0,0.20481109619140625,1.748157024383545,0.4496607034159354,38.0,385.0,0.0
Y,R,"[6, 10]",1.0,6.0,0.19987201690673828,1.7409420013427734,0.44070351234862454,38.0,386.0,0.0
R,U,"[5, 10]",1.0,7.0,0.21249008178710938,1.9785871505737305,0.6689413233897992,38.0,387.0,0.0
R,U,"[4, 10]",1.0,8.0,0.19537615776062012,1.7249600887298584,0.4274719174027692,38.0,388.0,0.0
B,L,"[4, 9]",1.0,9.0,0.19956398010253906,1.767380952835083,0.47832685469302083,38.0,389.0,0.0
R,U,"[3, 9]",1.0,10.0,0.1738879680633545,2.006747007369995,0.7347010525949895,38.0,390.0,0.0
,,"(6, 6)",,,,,,,,
R,U,"[5, 6]",1.0,1.0,0.4090151786804199,2.5381760597229004,0.6731027450219331,39.0,391.0,0.0
Y,R,"[5, 7]",1.0,2.0,0.17107200622558594,1.9906840324401855,0.7302604965539957,39.0,392.0,0.0
Y,R,"[5, 8]",1.0,3.0,0.19300508499145508,1.5926239490509033,0.28997375032774814,39.0,393.0,0.0
G,D,"[6, 8]",1.0,4.0,0.2218151092529297,1.763951063156128,0.43706093842045735,39.0,394.0,0.0
Y,R,"[6, 9]",1.0,5.0,0.17588400840759277,1.6841130256652832,0.40460033857212935,39.0,395.0,0.0
Y,R,"[6, 10]",1.0,6.0,0.19900989532470703,2.03642201423645,0.7407876153139064,39.0,396.0,0.0
R,U,"[5, 10]",1.0,7.0,0.23088812828063965,1.8943381309509277,0.5684940446159139,39.0,397.0,0.0
R,U,"[4, 10]",1.0,8.0,0.17276906967163086,1.7477340698242188,0.4664548704971902,39.0,398.0,0.0
B,L,"[4, 9]",1.0,9.0,0.1966838836669922,2.0271499156951904,0.7265938333930557,39.0,399.0,0.0
R,U,"[3, 9]",1.0,10.0,0.20422601699829102,1.8517279624938965,0.5619829799206798,39.0,400.0,0.0
,,"(6, 6)",,,,,,,,
R,U,"[5, 6]",1.0,1.0,0.3575770854949951,4.190944194793701,0.45301419164805007,40.0,401.0,0.0
Y,R,"[5, 7]",1.0,2.0,0.20825409889221191,1.8910369873046875,0.5772039405841194,40.0,402.0,0.0
Y,R,"[5, 8]",1.0,3.0,0.2061769962310791,1.9270081520080566,0.6208437108836774,40.0,403.0,0.0
G,D,"[6, 8]",1.0,4.0,0.2105698585510254,1.8072741031646729,0.49506846856877834,40.0,404.0,0.0
Y,R,"[6, 9]",1.0,5.0,0.21307015419006348,1.8610179424285889,0.5557067110773926,40.0,405.0,0.0
Y,R,"[6, 10]",1.0,6.0,0.19844293594360352,1.8359668254852295,0.5418985035751074,40.0,406.0,0.0
R,U,"[5, 10]",1.0,7.0,0.19619083404541016,1.8379590511322021,0.5465222096494888,40.0,407.0,0.0
R,U,"[4, 10]",1.0,8.0,0.2101130485534668,1.6877410411834717,0.36778162344911863,40.0,408.0,0.0
B,L,"[4, 9]",1.0,9.0,0.2048358917236328,1.8676750659942627,0.5686288480288282,40.0,409.0,0.0
R,U,"[3, 9]",1.0,10.0,0.17360496520996094,2.0036230087280273,0.7220766516535871,40.0,410.0,0.0
,,"(6, 6)",,,,,,,,
R,U,"[5, 6]",1.0,1.0,0.473736047744751,2.8631110191345215,0.5519869521235036,41.0,411.0,0.0
Y,R,"[5, 7]",1.0,2.0,0.17215299606323242,1.998009204864502,0.7164670384727109,41.0,412.0,0.0
Y,R,"[5, 8]",1.0,3.0,0.14397788047790527,1.5075690746307373,0.2577523175008208,41.0,413.0,0.0
Y,R,"[5, 9]",0.0,3.0,0.14795303344726562,1.6450159549713135,0.4028899323838506,41.0,414.0,0.0
Y,R,"[5, 10]",1.0,4.0,0.22197484970092773,2.0252039432525635,0.6777466203618675,41.0,415.0,0.0
R,U,"[4, 10]",1.0,5.0,0.24653887748718262,1.7542741298675537,0.4154448315248232,41.0,416.0,0.0
R,U,"[3, 10]",0.0,5.0,0.2377471923828125,2.021895170211792,0.6872102145983892,41.0,417.0,0.0
B,L,"[3, 9]",-1.0,5.0,0.05091500282287598,5.831788063049316,0.6522838345199171,41.0,418.0,0.0
B,L,"[3, 8]",0.0,5.0,0.2951822280883789,1.7564799785614014,0.35918197360302395,41.0,419.0,0.0
R,U,"[2, 8]",0.0,5.0,0.16304397583007812,1.9479479789733887,0.6901076644615504,41.0,420.0,0.0
,,"(6, 6)",,,,,,,,
R,U,"[5, 6]",1.0,1.0,0.6161811351776123,5.090867042541504,0.43142080001495003,42.0,421.0,0.0
Y,R,"[5, 7]",1.0,2.0,0.2452249526977539,1.798846960067749,0.44679822484256776,42.0,422.0,0.0
Y,R,"[5, 8]",1.0,3.0,0.23831510543823242,2.025182008743286,0.6884949310032029,42.0,423.0,0.0
G,D,"[6, 8]",1.0,4.0,0.17869806289672852,1.5839729309082031,0.30612206473191605,42.0,424.0,0.0
Y,R,"[6, 9]",1.0,5.0,0.24152517318725586,1.8285510540008545,0.48447586447035373,42.0,425.0,0.0
Y,R,"[6, 10]",1.0,6.0,0.19940495491027832,1.8050627708435059,0.5062759426137435,42.0,426.0,0.0
R,U,"[5, 10]",1.0,7.0,0.19737887382507324,2.0021588802337646,0.708240030871154,42.0,427.0,0.0
R,U,"[4, 10]",1.0,8.0,0.31424903869628906,1.9942948818206787,0.5859583114773289,42.0,428.0,0.0
B,L,"[4, 9]",1.0,9.0,0.26233696937561035,1.761767864227295,0.39794100363122886,42.0,429.0,0.0
R,U,"[3, 9]",1.0,10.0,0.22992682456970215,1.7712669372558594,0.4359559055316959,42.0,430.0,0.0
,,"(6, 6)",,,,,,,,
R,U,"[5, 6]",1.0,1.0,0.3975999355316162,2.9059970378875732,0.641577330453792,43.0,431.0,0.0
Y,R,"[5, 7]",1.0,2.0,0.18523502349853516,1.6276519298553467,0.3528802136010015,43.0,432.0,0.0
Y,R,"[5, 8]",1.0,3.0,0.23397302627563477,1.8760828971862793,0.5454039896849684,43.0,433.0,0.0
G,D,"[6, 8]",1.0,4.0,0.1893749237060547,1.8053359985351562,0.5176054131660426,43.0,434.0,0.0
Y,R,"[6, 9]",1.0,5.0,0.19691109657287598,1.7089390754699707,0.40983870016231166,43.0,435.0,0.0
Y,R,"[6, 10]",1.0,6.0,0.22398710250854492,1.9215052127838135,0.5977810092579471,43.0,436.0,0.0
R,U,"[5, 10]",1.0,7.0,0.19971108436584473,1.668623924255371,0.36675137403239194,43.0,437.0,0.0
R,U,"[4, 10]",1.0,8.0,0.2229290008544922,1.7896249294281006,0.45623861444522246,43.0,438.0,0.0
B,L,"[4, 9]",1.0,9.0,0.19285011291503906,1.6591401100158691,0.3656071468437136,43.0,439.0,0.0
R,U,"[3, 9]",1.0,10.0,0.24036598205566406,2.0168280601501465,0.6655352120171258,43.0,440.0,0.0
,,"(6, 6)",,,,,,,,
R,U,"[5, 6]",1.0,1.0,0.4141721725463867,2.506498098373413,0.538764439708625,44.0,441.0,0.0
Y,R,"[5, 7]",1.0,2.0,0.22850298881530762,2.0309300422668457,0.7028541190300928,44.0,442.0,0.0
Y,R,"[5, 8]",1.0,3.0,0.1753079891204834,1.5440828800201416,0.2641961747687623,44.0,443.0,0.0
G,D,"[6, 8]",1.0,4.0,0.2073841094970703,1.9620540142059326,0.6423551154680613,44.0,444.0,0.0
Y,R,"[6, 9]",1.0,5.0,0.18554091453552246,1.560987949371338,0.287066834065141,44.0,445.0,0.0
Y,R,"[6, 10]",1.0,6.0,0.21552085876464844,1.9293158054351807,0.6159371020098534,44.0,446.0,0.0
R,U,"[5, 10]",1.0,7.0,0.188615083694458,1.8302528858184814,0.5297650748054719,44.0,447.0,0.0
R,U,"[4, 10]",1.0,8.0,0.2194819450378418,1.992861032485962,0.6724487897236253,44.0,448.0,0.0
B,L,"[4, 9]",1.0,9.0,0.22205400466918945,2.0082778930664062,0.6640814861210907,44.0,449.0,0.0
R,U,"[3, 9]",1.0,10.0,0.2094879150390625,1.8572418689727783,0.5381253215697142,44.0,450.0,0.0
,,"(6, 6)",,,,,,,,
R,U,"[5, 6]",1.0,1.0,0.36269092559814453,3.0575549602508545,0.6455761681031409,45.0,451.0,0.0
Y,R,"[5, 7]",1.0,2.0,0.21753287315368652,1.8555841445922852,0.5512942239365131,45.0,452.0,0.0
Y,R,"[5, 8]",1.0,3.0,0.19895291328430176,1.5802369117736816,0.28168269736138896,45.0,453.0,0.0
G,D,"[6, 8]",1.0,4.0,0.24567413330078125,2.0787789821624756,0.7266374877721606,45.0,454.0,0.0
Y,R,"[6, 9]",1.0,5.0,0.22811603546142578,2.0028750896453857,0.6796853535034095,45.0,455.0,0.0
Y,R,"[6, 10]",1.0,6.0,0.20567011833190918,1.7747249603271484,0.45457749748463827,45.0,456.0,0.0
R,U,"[5, 10]",1.0,7.0,0.2260451316833496,1.8356208801269531,0.506943935820286,45.0,457.0,0.0
R,U,"[4, 10]",1.0,8.0,0.20171093940734863,1.873075008392334,0.5799565434561788,45.0,458.0,0.0
B,L,"[4, 9]",1.0,9.0,0.22226190567016602,1.664520025253296,0.3280413213789713,45.0,459.0,0.0
R,U,"[3, 9]",1.0,10.0,0.20734906196594238,1.9280908107757568,0.6226080264766449,45.0,460.0,0.0
,,"(6, 6)",,,,,,,,
R,U,"[5, 6]",1.0,1.0,0.44893717765808105,2.593914031982422,0.6665274638583538,46.0,461.0,0.0
Y,R,"[5, 7]",1.0,2.0,0.1921980381011963,1.7019000053405762,0.4019596785091711,46.0,462.0,0.0
Y,R,"[5, 8]",1.0,3.0,0.24418902397155762,1.6540889739990234,0.3061644653034845,46.0,463.0,0.0
G,D,"[6, 8]",1.0,4.0,0.28540992736816406,1.8069689273834229,0.4297034998430891,46.0,464.0,0.0
Y,R,"[6, 9]",1.0,5.0,0.20461511611938477,1.8381550312042236,0.5176865965098489,46.0,465.0,0.0
Y,R,"[6, 10]",1.0,6.0,0.21604204177856445,1.7889299392700195,0.4734514349352417,46.0,466.0,0.0
R,U,"[5, 10]",1.0,7.0,0.2580859661102295,1.6626918315887451,0.3029045453532068,46.0,467.0,0.0
R,U,"[4, 10]",1.0,8.0,0.24659991264343262,1.8961939811706543,0.5488348875046791,46.0,468.0,0.0
B,L,"[4, 9]",1.0,9.0,0.21967411041259766,1.9563300609588623,0.6385361728812695,46.0,469.0,0.0
R,U,"[3, 9]",1.0,10.0,0.18282508850097656,1.9136669635772705,0.6354507158330116,46.0,470.0,0.0
,,"(6, 6)",,,,,,,,
R,U,"[5, 6]",1.0,1.0,0.4578969478607178,2.6640758514404297,0.43308902392914,47.0,471.0,0.0
Y,R,"[5, 7]",1.0,2.0,0.2714250087738037,1.834718942642212,0.4510763393767656,47.0,472.0,0.0
Y,R,"[5, 8]",1.0,3.0,0.24988889694213867,1.7634968757629395,0.4146638794414309,47.0,473.0,0.0
G,D,"[6, 8]",1.0,4.0,0.26140713691711426,1.758296012878418,0.3896325896896278,47.0,474.0,0.0
Y,R,"[6, 9]",1.0,5.0,0.21462011337280273,1.7834889888763428,0.4730580839249429,47.0,475.0,0.0
Y,R,"[6, 10]",1.0,6.0,0.26368188858032227,1.975672960281372,0.6153370236393301,47.0,476.0,0.0
R,U,"[5, 10]",1.0,7.0,0.2390298843383789,2.030431032180786,0.6791174355103831,47.0,477.0,0.0
R,U,"[4, 10]",1.0,8.0,0.21682405471801758,1.9456908702850342,0.6247001190446295,47.0,478.0,0.0
B,L,"[4, 9]",1.0,9.0,0.2225501537322998,1.709608793258667,0.38458285817352744,47.0,479.0,0.0
R,U,"[3, 9]",1.0,10.0,0.2407689094543457,2.0154850482940674,0.6666764598960659,47.0,480.0,0.0
,,"(6, 6)",,,,,,,,
R,U,"[5, 6]",1.0,1.0,0.465803861618042,3.181946039199829,0.3821784776055285,48.0,481.0,0.0
Y,R,"[5, 7]",1.0,2.0,0.25116682052612305,1.6897192001342773,0.33853198056737216,48.0,482.0,0.0
Y,R,"[5, 8]",1.0,3.0,0.22879695892333984,2.059493064880371,0.7309788309511817,48.0,483.0,0.0
G,D,"[6, 8]",1.0,4.0,0.20227503776550293,1.7573931217193604,0.45532212958523105,48.0,484.0,0.0
Y,R,"[6, 9]",1.0,5.0,0.23842501640319824,1.6029560565948486,0.25870041740966326,48.0,485.0,0.0
Y,R,"[6, 10]",1.0,6.0,0.26952695846557617,1.6984219551086426,0.34039664051413043,48.0,486.0,0.0
R,U,"[5, 10]",1.0,7.0,0.2243661880493164,1.9223949909210205,0.5959628132965662,48.0,487.0,0.0
R,U,"[4, 10]",1.0,8.0,0.2052609920501709,1.555906057357788,0.25224221260229596,48.0,488.0,0.0
B,L,"[4, 9]",1.0,9.0,0.24620389938354492,1.830977201461792,0.4829086889530325,48.0,489.0,0.0
R,U,"[3, 9]",1.0,10.0,0.14629197120666504,1.9277269840240479,0.6772711361113368,48.0,490.0,0.0
,,"(6, 6)",,,,,,,,
R,U,"[5, 6]",1.0,1.0,0.4274921417236328,2.9929561614990234,0.4369758318935502,49.0,491.0,0.0
Y,R,"[5, 7]",1.0,2.0,0.24266481399536133,1.9492430686950684,0.6030052670216348,49.0,492.0,0.0
Y,R,"[5, 8]",1.0,3.0,0.23146700859069824,1.908297061920166,0.5779444369077543,49.0,493.0,0.0
G,D,"[6, 8]",1.0,4.0,0.20566987991333008,1.8071379661560059,0.5018953999506096,49.0,494.0,0.0
Y,R,"[6, 9]",1.0,5.0,0.20295000076293945,2.0337488651275635,0.7355879189268274,49.0,495.0,0.0
Y,R,"[6, 10]",1.0,6.0,0.2168419361114502,1.8770840167999268,0.5628210803891167,49.0,496.0,0.0
R,U,"[5, 10]",1.0,7.0,0.2014908790588379,1.6170649528503418,0.3135074940566318,49.0,497.0,0.0
R,U,"[4, 10]",1.0,8.0,0.2827718257904053,1.6445808410644531,0.2581989946292333,49.0,498.0,0.0
B,L,"[4, 9]",1.0,9.0,0.2665700912475586,1.8024728298187256,0.44385980319247975,49.0,499.0,0.0
R,U,"[3, 9]",1.0,10.0,0.24358606338500977,1.6290299892425537,0.28976457498535146,49.0,500.0,0.0
,,"(6, 6)",,,,,,,,
R,U,"[5, 6]",1.0,1.0,0.511267900466919,3.091379165649414,0.3479056883711982,50.0,501.0,0.0
Y,R,"[5, 7]",1.0,2.0,0.2396228313446045,1.7036631107330322,0.35159849385211644,50.0,502.0,0.0
Y,R,"[5, 8]",1.0,3.0,0.23653697967529297,1.9951190948486328,0.6631829713114521,50.0,503.0,0.0
G,D,"[6, 8]",1.0,4.0,0.18749690055847168,1.9602980613708496,0.673484020626676,50.0,504.0,0.0
Y,R,"[6, 9]",1.0,5.0,0.17063093185424805,1.757370948791504,0.48107835170474167,50.0,505.0,0.0
Y,R,"[6, 10]",1.0,6.0,0.24211883544921875,2.0037238597869873,0.6514173108226213,50.0,506.0,0.0
R,U,"[5, 10]",1.0,7.0,0.22908997535705566,1.7699689865112305,0.43818579021284404,50.0,507.0,0.0
R,U,"[4, 10]",1.0,8.0,0.22404694557189941,1.660560131072998,0.33241201794795117,50.0,508.0,0.0
B,L,"[4, 9]",1.0,9.0,0.2021651268005371,1.6261000633239746,0.32514790419959944,50.0,509.0,0.0
R,U,"[3, 9]",1.0,10.0,0.21925997734069824,1.8860831260681152,0.5776758538106244,50.0,510.0,0.0
,,"(6, 6)",,,,,,,,
R,U,"[5, 6]",1.0,1.0,0.38570594787597656,2.382056951522827,0.44316845601659893,51.0,511.0,0.0
Y,R,"[5, 7]",1.0,2.0,0.23163318634033203,1.6451261043548584,0.3217941119493891,51.0,512.0,0.0
Y,R,"[5, 8]",1.0,3.0,0.24588894844055176,2.0322039127349854,0.6871611327192649,51.0,513.0,0.0
G,D,"[6, 8]",1.0,4.0,0.2547919750213623,1.7099940776824951,0.3474143763422314,51.0,514.0,0.0
Y,R,"[6, 9]",1.0,5.0,0.2949509620666504,2.030735969543457,0.6278354360561456,51.0,515.0,0.0
Y,R,"[6, 10]",1.0,6.0,0.23828387260437012,1.7017459869384766,0.3633263539988129,51.0,516.0,0.0
R,U,"[5, 10]",1.0,7.0,0.28568387031555176,2.018033981323242,0.6311573005866762,51.0,517.0,0.0
R,U,"[4, 10]",1.0,8.0,0.24897193908691406,2.0818190574645996,0.7297128662266221,51.0,518.0,0.0
B,L,"[4, 9]",1.0,9.0,0.2079329490661621,1.83809494972229,0.5180895054503223,51.0,519.0,0.0
R,U,"[3, 9]",1.0,10.0,0.22620391845703125,1.753877878189087,0.4220953137945188,51.0,520.0,0.0
,,"(6, 6)",,,,,,,,
R,U,"[5, 6]",1.0,1.0,0.4444448947906494,2.7104790210723877,0.3494668640486336,52.0,521.0,0.0
Y,R,"[5, 7]",1.0,2.0,0.19212794303894043,1.8744349479675293,0.5737270930662275,52.0,522.0,0.0
Y,R,"[5, 8]",1.0,3.0,0.21633100509643555,1.9518611431121826,0.642072716378413,52.0,523.0,0.0
G,D,"[6, 8]",1.0,4.0,0.17941904067993164,1.7321369647979736,0.457796872122338,52.0,524.0,0.0
Y,R,"[6, 9]",1.0,5.0,0.1854100227355957,1.5562748908996582,0.2810323901860513,52.0,525.0,0.0
Y,R,"[6, 10]",1.0,6.0,0.3155250549316406,1.9154491424560547,0.49635425622576984,52.0,526.0,0.0
R,U,"[5, 10]",1.0,7.0,0.23996210098266602,2.0536041259765625,0.699347937458282,52.0,527.0,0.0
R,U,"[4, 10]",1.0,8.0,0.2259988784790039,1.6658909320831299,0.332805212644218,52.0,528.0,0.0
B,L,"[4, 9]",1.0,9.0,0.2566230297088623,1.749856948852539,0.38261729266456457,52.0,529.0,0.0
R,U,"[3, 9]",1.0,10.0,0.22742700576782227,2.0837748050689697,0.7493149975229108,52.0,530.0,0.0
,,"(6, 6)",,,,,,,,
R,U,"[5, 6]",1.0,1.0,0.4092860221862793,2.9683780670166016,0.41807917516977317,53.0,531.0,0.0
Y,R,"[5, 7]",1.0,2.0,0.2856600284576416,2.115428924560547,0.7332672989979065,53.0,532.0,0.0
Y,R,"[5, 8]",1.0,3.0,0.2008969783782959,1.832608938217163,0.5328068018160486,53.0,533.0,0.0
G,D,"[6, 8]",1.0,4.0,0.18570804595947266,2.009251117706299,0.7252610483851212,53.0,534.0,0.0
Y,R,"[6, 9]",1.0,5.0,0.20100688934326172,1.8410720825195312,0.5499195219715072,53.0,535.0,0.0
Y,R,"[6, 10]",1.0,6.0,0.21698904037475586,1.9709150791168213,0.65413525774678,53.0,536.0,0.0
R,U,"[5, 10]",1.0,7.0,0.27508115768432617,2.024355173110962,0.645158261697684,53.0,537.0,0.0
R,U,"[4, 10]",1.0,8.0,0.1876990795135498,1.823559045791626,0.5521595402643567,53.0,538.0,0.0
B,L,"[4, 9]",1.0,9.0,0.21840286254882812,1.7612390518188477,0.44690899584901644,53.0,539.0,0.0
R,U,"[3, 9]",1.0,10.0,0.26566481590270996,1.6368651390075684,0.26735786407358725,53.0,540.0,0.0
,,"(6, 6)",,,,,,,,
R,U,"[5, 6]",1.0,1.0,0.40297794342041016,2.8623859882354736,0.4963414656640261,54.0,541.0,0.0
Y,R,"[5, 7]",1.0,2.0,0.25501394271850586,2.0556628704071045,0.685071219032817,54.0,542.0,0.0
Y,R,"[5, 8]",1.0,3.0,0.2299959659576416,1.6983249187469482,0.3671592255791482,54.0,543.0,0.0
G,D,"[6, 8]",1.0,4.0,0.41137194633483887,1.8535940647125244,0.33756585032585107,54.0,544.0,0.0
Y,R,"[6, 9]",1.0,5.0,0.2798311710357666,1.7678639888763428,0.38868626544985546,54.0,545.0,0.0
Y,R,"[6, 10]",1.0,6.0,0.2208080291748047,1.6127591133117676,0.30183929542945576,54.0,546.0,0.0
R,U,"[5, 10]",1.0,7.0,0.27396106719970703,2.0102241039276123,0.6281619321270318,54.0,547.0,0.0
R,U,"[4, 10]",1.0,8.0,0.21518397331237793,1.6146891117095947,0.3099439295252647,54.0,548.0,0.0
B,L,"[4, 9]",1.0,9.0,0.29342007637023926,1.7814359664916992,0.3913294843554993,54.0,549.0,0.0
R,U,"[3, 9]",1.0,10.0,0.20428681373596191,1.6921639442443848,0.4001363556031294,54.0,550.0,0.0
,,"(6, 6)",,,,,,,,
R,U,"[5, 6]",1.0,1.0,0.40230607986450195,3.1145429611206055,0.6143449051055779,55.0,551.0,0.0
Y,R,"[5, 7]",1.0,2.0,0.21954011917114258,1.9520399570465088,0.6333728829014984,55.0,552.0,0.0
Y,R,"[5, 8]",1.0,3.0,0.23961877822875977,1.7395830154418945,0.38975720247693424,55.0,553.0,0.0
G,D,"[6, 8]",1.0,4.0,0.22024106979370117,1.6747820377349854,0.3647510310223449,55.0,554.0,0.0
Y,R,"[6, 9]",1.0,5.0,0.20524311065673828,1.932297945022583,0.6300617902482306,55.0,555.0,0.0
Y,R,"[6, 10]",1.0,6.0,0.19469094276428223,1.843904972076416,0.5407438798755217,55.0,556.0,0.0
R,U,"[5, 10]",1.0,7.0,0.1955728530883789,1.8159878253936768,0.5235106645329151,55.0,557.0,0.0
R,U,"[4, 10]",1.0,8.0,0.19281005859375,1.6965060234069824,0.40350736567129136,55.0,558.0,0.0
B,L,"[4, 9]",1.0,9.0,0.18086695671081543,1.8858001232147217,0.6058323653439371,55.0,559.0,0.0
R,U,"[3, 9]",1.0,10.0,0.2339470386505127,1.7857069969177246,0.45838811413958985,55.0,560.0,0.0
,,"(6, 6)",,,,,,,,
R,U,"[5, 6]",1.0,1.0,0.4204559326171875,2.15923810005188,0.31782974329678826,56.0,561.0,0.0
Y,R,"[5, 7]",1.0,2.0,0.24605703353881836,1.7619130611419678,0.41305269961671487,56.0,562.0,0.0
Y,R,"[5, 8]",1.0,3.0,0.1933739185333252,1.889543056488037,0.5857967383321749,56.0,563.0,0.0
G,D,"[6, 8]",1.0,4.0,0.1952190399169922,1.9821319580078125,0.684545718772855,56.0,564.0,0.0
Y,R,"[6, 9]",1.0,5.0,0.2079319953918457,2.0263760089874268,0.7109978995940404,56.0,565.0,0.0
Y,R,"[6, 10]",1.0,6.0,0.30049800872802734,1.7669649124145508,0.3783389575669755,56.0,566.0,0.0
R,U,"[5, 10]",1.0,7.0,0.31682705879211426,1.9794600009918213,0.5741788846805774,56.0,567.0,0.0
R,U,"[4, 10]",1.0,8.0,0.23324799537658691,1.5984220504760742,0.27310464344244223,56.0,568.0,0.0
B,L,"[4, 9]",1.0,9.0,0.2633860111236572,1.9118249416351318,0.551238146121636,56.0,569.0,0.0
R,U,"[3, 9]",1.0,10.0,0.22648310661315918,1.7223868370056152,0.3906363559437612,56.0,570.0,0.0
,,"(6, 6)",,,,,,,,
R,U,"[5, 6]",1.0,1.0,0.35195112228393555,2.176244020462036,0.3502952274702662,57.0,571.0,0.0
Y,R,"[5, 7]",1.0,2.0,0.21792292594909668,1.7311460971832275,0.4146780941946783,57.0,572.0,0.0
Y,R,"[5, 8]",1.0,3.0,0.2035839557647705,1.7766780853271484,0.47462079293044357,57.0,573.0,0.0
G,D,"[6, 8]",1.0,4.0,0.22201299667358398,1.8496010303497314,0.5242605020997744,57.0,574.0,0.0
Y,R,"[6, 9]",1.0,5.0,0.1960911750793457,1.8733491897583008,0.5808932648422852,57.0,575.0,0.0
Y,R,"[6, 10]",1.0,6.0,0.17507314682006836,1.8583040237426758,0.589363305709288,57.0,576.0,0.0
R,U,"[5, 10]",1.0,7.0,0.1907808780670166,1.6182551383972168,0.3245551028371383,57.0,577.0,0.0
R,U,"[4, 10]",1.0,8.0,0.24929499626159668,1.8382089138031006,0.4959137917958094,57.0,578.0,0.0
B,L,"[4, 9]",1.0,9.0,0.20637106895446777,1.622615098953247,0.3021268167493506,57.0,579.0,0.0
R,U,"[3, 9]",1.0,10.0,0.2418198585510254,1.7788050174713135,0.43079487496674673,57.0,580.0,0.0
,,"(6, 6)",,,,,,,,
R,U,"[5, 6]",1.0,1.0,0.37473011016845703,2.2527430057525635,0.33376161251702,58.0,581.0,0.0
Y,R,"[5, 7]",1.0,2.0,0.22539877891540527,1.7379059791564941,0.40501369373530344,58.0,582.0,0.0
Y,R,"[5, 8]",1.0,3.0,0.21226215362548828,1.5743720531463623,0.2628110629679785,58.0,583.0,0.0
G,D,"[6, 8]",1.0,4.0,0.24587321281433105,1.6120970249176025,0.2582084531237932,58.0,584.0,0.0
Y,R,"[6, 9]",1.0,5.0,0.18717598915100098,1.995621919631958,0.7202815755860609,58.0,585.0,0.0
Y,R,"[6, 10]",1.0,6.0,0.21880292892456055,1.6264100074768066,0.3136799293252601,58.0,586.0,0.0
R,U,"[5, 10]",1.0,7.0,0.26088595390319824,1.843513011932373,0.4737776513238268,58.0,587.0,0.0
R,U,"[4, 10]",1.0,8.0,0.20569396018981934,2.013669013977051,0.7039659762592232,58.0,588.0,0.0
B,L,"[4, 9]",1.0,9.0,0.1597590446472168,1.8804240226745605,0.6344212697108442,58.0,589.0,0.0
R,U,"[3, 9]",1.0,10.0,0.27973508834838867,2.059116840362549,0.6771223871680097,58.0,590.0,0.0
,,"(6, 6)",,,,,,,,
R,U,"[5, 6]",1.0,1.0,0.3467869758605957,3.156589984893799,0.7168817581558988,59.0,591.0,0.0
Y,R,"[5, 7]",1.0,2.0,0.19754815101623535,1.8181982040405273,0.5185929293723268,59.0,592.0,0.0
Y,R,"[5, 8]",1.0,3.0,0.19351601600646973,1.715609073638916,0.41763667999885196,59.0,593.0,0.0
G,D,"[6, 8]",1.0,4.0,0.20386886596679688,1.873326063156128,0.5743605792295601,59.0,594.0,0.0
Y,R,"[6, 9]",1.0,5.0,0.12650299072265625,1.635249137878418,0.40979857295586664,59.0,595.0,0.0
Y,R,"[6, 10]",1.0,6.0,0.2023332118988037,1.721107006072998,0.4308124433065454,59.0,596.0,0.0
R,U,"[5, 10]",1.0,7.0,0.21477103233337402,1.6368169784545898,0.3179172385358234,59.0,597.0,0.0
R,U,"[4, 10]",1.0,8.0,0.23950695991516113,1.6963908672332764,0.3477191289464083,59.0,598.0,0.0
B,L,"[4, 9]",1.0,9.0,0.19978094100952148,1.856806993484497,0.5541623416967307,59.0,599.0,0.0
R,U,"[3, 9]",1.0,10.0,0.18418598175048828,1.8735151290893555,0.5943402057521943,59.0,600.0,0.0
,,"(6, 6)",,,,,,,,
R,U,"[5, 6]",1.0,1.0,0.3651859760284424,2.457679033279419,0.48545775677043096,60.0,601.0,0.0
Y,R,"[5, 7]",1.0,2.0,0.21154093742370605,1.625579833984375,0.31131501361840874,60.0,602.0,0.0
Y,R,"[5, 8]",1.0,3.0,0.20973706245422363,1.899049997329712,0.5934720347304223,60.0,603.0,0.0
G,D,"[6, 8]",1.0,4.0,0.21304607391357422,1.9432611465454102,0.6366976276683707,60.0,604.0,0.0
Y,R,"[6, 9]",1.0,5.0,0.16255521774291992,1.7156600952148438,0.45272323867635733,60.0,605.0,0.0
Y,R,"[6, 10]",1.0,6.0,0.19147396087646484,2.0412468910217285,0.7436064741347514,60.0,606.0,0.0
R,U,"[5, 10]",1.0,7.0,0.18724298477172852,1.9117529392242432,0.639008868637536,60.0,607.0,0.0
R,U,"[4, 10]",1.0,8.0,0.1964709758758545,1.811631202697754,0.5173269263610987,60.0,608.0,0.0
B,L,"[4, 9]",1.0,9.0,0.18101787567138672,1.729503870010376,0.44697607863283784,60.0,609.0,0.0
R,U,"[3, 9]",1.0,10.0,0.18885397911071777,1.6106209754943848,0.30773438031644257,60.0,610.0,0.0
,,"(6, 6)",,,,,,,,
R,U,"[5, 6]",1.0,1.0,0.3528740406036377,2.721691846847534,0.32959766354047054,61.0,611.0,0.0
Y,R,"[5, 7]",1.0,2.0,0.24747490882873535,1.8344488143920898,0.4804443212589675,61.0,612.0,0.0
Y,R,"[5, 8]",1.0,3.0,0.26508402824401855,1.983893871307373,0.614134144496409,61.0,613.0,0.0
G,D,"[6, 8]",1.0,4.0,0.19022703170776367,1.7805118560791016,0.4782774253950385,61.0,614.0,0.0
Y,R,"[6, 9]",1.0,5.0,0.18259596824645996,1.5828039646148682,0.31096781175656113,61.0,615.0,0.0
Y,R,"[6, 10]",1.0,6.0,0.20488405227661133,1.8699369430541992,0.5809352123996485,61.0,616.0,0.0
R,U,"[5, 10]",1.0,7.0,0.1969289779663086,1.899749994277954,0.5973953076295069,61.0,617.0,0.0
R,U,"[4, 10]",1.0,8.0,0.1940159797668457,2.029191017150879,0.726501789778143,61.0,618.0,0.0
B,L,"[4, 9]",1.0,9.0,0.19638895988464355,1.5637989044189453,0.27409089486959415,61.0,619.0,0.0
R,U,"[3, 9]",1.0,10.0,0.30170297622680664,2.08575701713562,0.6928903173294485,61.0,620.0,0.0
,,"(6, 6)",,,,,,,,
R,U,"[5, 6]",1.0,1.0,0.393157958984375,3.121178150177002,0.6642970388061908,62.0,621.0,0.0
Y,R,"[5, 7]",1.0,2.0,0.24584007263183594,1.6907260417938232,0.3385868569521,62.0,622.0,0.0
Y,R,"[5, 8]",1.0,3.0,0.23555302619934082,1.8674631118774414,0.5392060058374799,62.0,623.0,0.0
G,D,"[6, 8]",1.0,4.0,0.1790778636932373,1.6183550357818604,0.3411356211293889,62.0,624.0,0.0
Y,R,"[6, 9]",1.0,5.0,0.22749018669128418,1.8969769477844238,0.5712376014597856,62.0,625.0,0.0
Y,R,"[6, 10]",1.0,6.0,0.19385290145874023,2.045480966567993,0.7497528943047628,62.0,626.0,0.0
R,U,"[5, 10]",1.0,7.0,0.21358299255371094,1.8392410278320312,0.5226373344017119,62.0,627.0,0.0
R,U,"[4, 10]",1.0,8.0,0.19535517692565918,1.9387381076812744,0.6447733481499106,62.0,628.0,0.0
B,L,"[4, 9]",1.0,9.0,0.19309711456298828,2.0218520164489746,0.7332718171677017,62.0,629.0,0.0
R,U,"[3, 9]",1.0,10.0,0.1809089183807373,1.6607580184936523,0.3777868332724961,62.0,630.0,0.0
,,"(6, 6)",,,,,,,,
R,U,"[5, 6]",1.0,1.0,0.49938297271728516,4.194730043411255,0.5391399004091948,63.0,631.0,0.0
Y,R,"[5, 7]",1.0,2.0,0.20719408988952637,2.0577139854431152,0.7466350560176227,63.0,632.0,0.0
Y,R,"[5, 8]",1.0,3.0,0.18550896644592285,1.674165964126587,0.38784409890240784,63.0,633.0,0.0
G,D,"[6, 8]",1.0,4.0,0.252377986907959,1.8155059814453125,0.4698120743543642,63.0,634.0,0.0
Y,R,"[6, 9]",1.0,5.0,0.2756650447845459,1.9921438694000244,0.6120838773338886,63.0,635.0,0.0
Y,R,"[6, 10]",1.0,6.0,0.2149670124053955,1.878148078918457,0.5733756067348412,63.0,636.0,0.0
R,U,"[5, 10]",-1.0,6.0,0.05910682678222656,5.547528982162476,0.3713403628512817,63.0,637.0,0.0
R,U,"[4, 10]",1.0,7.0,0.31420207023620605,1.9917840957641602,0.5795755720909103,63.0,638.0,0.0
B,L,"[4, 9]",1.0,8.0,0.21199321746826172,1.8177580833435059,0.4974834939314601,63.0,639.0,0.0
R,U,"[3, 9]",1.0,9.0,0.21351099014282227,1.642880916595459,0.32408016635677533,63.0,640.0,0.0
,,"(6, 6)",,,,,,,,
R,U,"[5, 6]",1.0,1.0,0.38502001762390137,3.6866140365600586,0.6936023138064218,64.0,641.0,0.0
Y,R,"[5, 7]",1.0,2.0,0.21701693534851074,1.6408779621124268,0.334868475333583,64.0,642.0,0.0
Y,R,"[5, 8]",1.0,3.0,0.15696191787719727,1.5719928741455078,0.3068955161820364,64.0,643.0,0.0
G,D,"[6, 8]",1.0,4.0,0.33221006393432617,1.9515080451965332,0.5248952065211647,64.0,644.0,0.0
Y,R,"[6, 9]",1.0,5.0,0.23727989196777344,1.580693006515503,0.2560038690157901,64.0,645.0,0.0
Y,R,"[6, 10]",1.0,6.0,0.3060340881347656,1.8867430686950684,0.47581052893471026,64.0,646.0,0.0
R,U,"[5, 10]",1.0,7.0,0.23984694480895996,1.6652178764343262,0.3245732085504134,64.0,647.0,0.0
R,U,"[4, 10]",1.0,8.0,0.27129101753234863,1.7893481254577637,0.43062393123805925,64.0,648.0,0.0
B,L,"[4, 9]",1.0,9.0,0.22820806503295898,2.0289618968963623,0.6925861161076474,64.0,649.0,0.0
R,U,"[3, 9]",1.0,10.0,0.17592597007751465,1.5902519226074219,0.3165978768340859,64.0,650.0,0.0
,,"(6, 6)",,,,,,,,
R,U,"[5, 6]",1.0,1.0,0.35820698738098145,5.34792685508728,0.31459639485556246,65.0,651.0,0.0
Y,R,"[5, 7]",1.0,2.0,0.31293392181396484,2.004863977432251,0.5858922656229014,65.0,652.0,0.0
Y,R,"[5, 8]",1.0,3.0,0.31379199028015137,1.9850170612335205,0.5709845093611072,65.0,653.0,0.0
G,D,"[6, 8]",1.0,4.0,0.24107909202575684,1.729572057723999,0.38409521026597854,65.0,654.0,0.0
Y,R,"[6, 9]",1.0,5.0,0.34923887252807617,2.0666489601135254,0.6172571957205006,65.0,655.0,0.0
Y,R,"[6, 10]",1.0,6.0,0.22960495948791504,1.9533870220184326,0.6206552337601909,65.0,656.0,0.0
R,U,"[5, 10]",1.0,7.0,0.19633698463439941,1.9090111255645752,0.6134035861915943,65.0,657.0,0.0
R,U,"[4, 10]",1.0,8.0,0.21909189224243164,1.8695590496063232,0.5493706532483208,65.0,658.0,0.0
B,L,"[4, 9]",1.0,9.0,0.2155771255493164,1.9579858779907227,0.640564708398232,65.0,659.0,0.0
R,U,"[3, 9]",1.0,10.0,0.20682096481323242,1.7227859497070312,0.4136990899517978,65.0,660.0,0.0
,,"(6, 6)",,,,,,,,
R,U,"[5, 6]",1.0,1.0,0.40608906745910645,3.4704911708831787,0.43421676388050495,66.0,661.0,0.0
Y,R,"[5, 7]",1.0,2.0,0.24968314170837402,1.9408071041107178,0.591616611033988,66.0,662.0,0.0
Y,R,"[5, 8]",1.0,3.0,0.20421195030212402,1.8149199485778809,0.5232721102991804,66.0,663.0,0.0
G,D,"[6, 8]",1.0,4.0,0.19992399215698242,1.773460865020752,0.48012130967113903,66.0,664.0,0.0
Y,R,"[6, 9]",1.0,5.0,0.2576320171356201,1.6862292289733887,0.3166113128960066,66.0,665.0,0.0
Y,R,"[6, 10]",1.0,6.0,0.2875680923461914,1.955232858657837,0.571682704060564,66.0,666.0,0.0
R,U,"[5, 10]",1.0,7.0,0.1974329948425293,1.9658010005950928,0.6707446572817437,66.0,667.0,0.0
R,U,"[4, 10]",1.0,8.0,0.1990518569946289,1.7907140254974365,0.49532326219433076,66.0,668.0,0.0
B,L,"[4, 9]",1.0,9.0,0.20662212371826172,1.983475923538208,0.6782503801952036,66.0,669.0,0.0
R,U,"[3, 9]",1.0,10.0,0.33330702781677246,2.0269200801849365,0.6052540787215845,66.0,670.0,0.0
,,"(6, 6)",,,,,,,,
R,U,"[5, 6]",1.0,1.0,0.32720518112182617,7.51929497718811,0.6246345470322272,67.0,671.0,0.0
Y,R,"[5, 7]",1.0,2.0,0.27762508392333984,1.8248939514160156,0.4497751625211736,67.0,672.0,0.0
Y,R,"[5, 8]",1.0,3.0,0.2775599956512451,2.1277148723602295,0.7439061330080343,67.0,673.0,0.0
G,D,"[6, 8]",1.0,4.0,0.19775700569152832,1.8417928218841553,0.5525585621844266,67.0,674.0,0.0
Y,R,"[6, 9]",1.0,5.0,0.2009580135345459,1.917078971862793,0.6196473994159937,67.0,675.0,0.0
Y,R,"[6, 10]",1.0,6.0,0.20327019691467285,1.8339359760284424,0.5370234495154571,67.0,676.0,0.0
R,U,"[5, 10]",1.0,7.0,0.18764996528625488,1.950166940689087,0.6704879096524048,67.0,677.0,0.0
R,U,"[4, 10]",1.0,8.0,0.17884302139282227,2.0201618671417236,0.7405022526445111,67.0,678.0,0.0
B,L,"[4, 9]",1.0,9.0,0.18951010704040527,1.932046890258789,0.6393594768935957,67.0,679.0,0.0
R,U,"[3, 9]",1.0,10.0,0.1902470588684082,1.6293668746948242,0.3357498321400769,67.0,680.0,0.0
,,"(6, 6)",,,,,,,,
R,U,"[5, 6]",1.0,1.0,0.3731520175933838,3.220125198364258,0.5724067856666804,68.0,681.0,0.0
Y,R,"[5, 7]",1.0,2.0,0.22644400596618652,1.9956049919128418,0.6680592232650501,68.0,682.0,0.0
Y,R,"[5, 8]",1.0,3.0,0.21759486198425293,1.5990238189697266,0.2840655796186848,68.0,683.0,0.0
G,D,"[6, 8]",1.0,4.0,0.23845195770263672,2.0687148571014404,0.7356452356512617,68.0,684.0,0.0
Y,R,"[6, 9]",1.0,5.0,0.18288898468017578,1.8608930110931396,0.5801716477159875,68.0,685.0,0.0
Y,R,"[6, 10]",1.0,6.0,0.23336410522460938,1.7187199592590332,0.382364841461151,68.0,686.0,0.0
R,U,"[5, 10]",1.0,7.0,0.23261809349060059,1.6522889137268066,0.3181318938185426,68.0,687.0,0.0
R,U,"[4, 10]",1.0,8.0,0.20973610877990723,1.8110811710357666,0.495755750668605,68.0,688.0,0.0
B,L,"[4, 9]",1.0,9.0,0.19892191886901855,1.6304950714111328,0.34312019625487333,68.0,689.0,0.0
R,U,"[3, 9]",1.0,10.0,0.18658208847045898,1.6885881423950195,0.4149008821277916,68.0,690.0,0.0
,,"(6, 6)",,,,,,,,
R,U,"[5, 6]",1.0,1.0,0.3786888122558594,2.825904130935669,0.6905492609980417,69.0,691.0,0.0
Y,R,"[5, 7]",1.0,2.0,0.20693182945251465,2.058363914489746,0.7488513193331297,69.0,692.0,0.0
Y,R,"[5, 8]",1.0,3.0,0.18951082229614258,1.9998118877410889,0.6987511746652016,69.0,693.0,0.0
G,D,"[6, 8]",1.0,4.0,0.22640490531921387,1.807858943939209,0.47362011263346193,69.0,694.0,0.0
Y,R,"[6, 9]",1.0,5.0,0.24745702743530273,1.729403018951416,0.38646795160708686,69.0,695.0,0.0
Y,R,"[6, 10]",1.0,6.0,0.22621893882751465,1.6647379398345947,0.3345752934223935,69.0,696.0,0.0
R,U,"[5, 10]",1.0,7.0,0.1987900733947754,1.8472051620483398,0.5482762320247476,69.0,697.0,0.0
R,U,"[4, 10]",1.0,8.0,0.20860505104064941,1.6832098960876465,0.3650537098548973,69.0,698.0,0.0
B,L,"[4, 9]",1.0,9.0,0.25024890899658203,1.8511219024658203,0.4995132354632794,69.0,699.0,0.0
R,U,"[3, 9]",1.0,10.0,0.2255392074584961,1.9432709217071533,0.6091043859068165,69.0,700.0,0.0
,,"(6, 6)",,,,,,,,
R,U,"[5, 6]",1.0,1.0,0.3960299491882324,3.745465040206909,0.32180201252393437,70.0,701.0,0.0
Y,R,"[5, 7]",1.0,2.0,0.21762299537658691,1.8603808879852295,0.5487304415462038,70.0,702.0,0.0
Y,R,"[5, 8]",1.0,3.0,0.1918179988861084,1.857658863067627,0.5562239601379139,70.0,703.0,0.0
G,D,"[6, 8]",1.0,4.0,0.17777514457702637,1.5367660522460938,0.26007979919809254,70.0,704.0,0.0
Y,R,"[6, 9]",1.0,5.0,0.2034749984741211,1.8457751274108887,0.5553725356793351,70.0,705.0,0.0
Y,R,"[6, 10]",1.0,6.0,0.2006669044494629,1.5606329441070557,0.2663916645863712,70.0,706.0,0.0
R,U,"[5, 10]",1.0,7.0,0.3438911437988281,2.1961519718170166,0.7456247660931744,70.0,707.0,0.0
R,U,"[4, 10]",1.0,8.0,0.21814179420471191,1.879655122756958,0.5587854190297802,70.0,708.0,0.0
B,L,"[4, 9]",1.0,9.0,0.21496200561523438,1.6744961738586426,0.3668043836989694,70.0,709.0,0.0
R,U,"[3, 9]",1.0,10.0,0.2511260509490967,1.7384419441223145,0.38855645013610474,70.0,710.0,0.0
,,"(6, 6)",,,,,,,,
R,U,"[5, 6]",1.0,1.0,0.3509788513183594,7.001781940460205,0.47366682891879597,71.0,711.0,0.0
Y,R,"[5, 7]",1.0,2.0,0.28412294387817383,1.6729331016540527,0.2968717203518001,71.0,712.0,0.0
Y,R,"[5, 8]",1.0,3.0,0.28997302055358887,1.7269141674041748,0.3238083982780991,71.0,713.0,0.0
G,D,"[6, 8]",1.0,4.0,0.1993579864501953,1.5918769836425781,0.2990938943033708,71.0,714.0,0.0
Y,R,"[6, 9]",1.0,5.0,0.2224578857421875,1.7364308834075928,0.40190334723449056,71.0,715.0,0.0
Y,R,"[6, 10]",1.0,6.0,0.1919569969177246,2.0436410903930664,0.7454018158495352,71.0,716.0,0.0
R,U,"[5, 10]",1.0,7.0,0.2448279857635498,1.9241671562194824,0.5864272639617805,71.0,717.0,0.0
R,U,"[4, 10]",1.0,8.0,0.20733404159545898,1.7045719623565674,0.3912118511746053,71.0,718.0,0.0
B,L,"[4, 9]",1.0,9.0,0.20760393142700195,2.04168701171875,0.7326963789301862,71.0,719.0,0.0
R,U,"[3, 9]",1.0,10.0,0.2826650142669678,1.9431240558624268,0.5594737592271768,71.0,720.0,0.0
,,"(6, 6)",,,,,,,,
R,U,"[5, 6]",1.0,1.0,0.43026304244995117,3.2482900619506836,0.3578344740340472,72.0,721.0,0.0
Y,R,"[5, 7]",1.0,2.0,0.2735860347747803,1.6684989929199219,0.2931300006026872,72.0,722.0,0.0
Y,R,"[5, 8]",1.0,3.0,0.24275803565979004,1.855597972869873,0.5152586511556274,72.0,723.0,0.0
G,D,"[6, 8]",1.0,4.0,0.19612693786621094,1.5576121807098389,0.2563840782125996,72.0,724.0,0.0
Y,R,"[6, 9]",1.0,5.0,0.19839215278625488,1.998711109161377,0.7045304921504885,72.0,725.0,0.0
Y,R,"[6, 10]",1.0,6.0,0.195281982421875,1.9096219539642334,0.6141753564606813,72.0,726.0,0.0
R,U,"[5, 10]",1.0,7.0,0.22469711303710938,1.810344934463501,0.4750423910139318,72.0,727.0,0.0
R,U,"[4, 10]",1.0,8.0,0.23610401153564453,1.8589558601379395,0.5338809215345144,72.0,728.0,0.0
B,L,"[4, 9]",1.0,9.0,0.2130751609802246,1.6462810039520264,0.33040794741738716,72.0,729.0,0.0
R,U,"[3, 9]",1.0,10.0,0.235321044921875,1.803267002105713,0.46687971086307334,72.0,730.0,0.0
,,"(6, 6)",,,,,,,,
R,U,"[5, 6]",1.0,1.0,0.38367795944213867,8.60947585105896,0.5929840884464883,73.0,731.0,0.0
Y,R,"[5, 7]",1.0,2.0,0.18555593490600586,1.6074190139770508,0.33410161585567116,73.0,732.0,0.0
Y,R,"[5, 8]",1.0,3.0,0.22294378280639648,1.643867015838623,0.3112718621992165,73.0,733.0,0.0
G,D,"[6, 8]",1.0,4.0,0.2208249568939209,1.6019980907440186,0.28011414973732424,73.0,734.0,0.0
Y,R,"[6, 9]",1.0,5.0,0.2190101146697998,1.797616958618164,0.47756900351060116,73.0,735.0,0.0
Y,R,"[6, 10]",1.0,6.0,0.21783685684204102,1.5918340682983398,0.2862792440878647,73.0,736.0,0.0
R,U,"[5, 10]",1.0,7.0,0.27887892723083496,1.7834479808807373,0.4027674461213149,73.0,737.0,0.0
R,U,"[4, 10]",1.0,8.0,0.2058420181274414,1.7994511127471924,0.4855727764942923,73.0,738.0,0.0
B,L,"[4, 9]",1.0,9.0,0.19476795196533203,1.6852400302886963,0.38763160162451304,73.0,739.0,0.0
R,U,"[3, 9]",1.0,10.0,0.20836806297302246,1.7933118343353271,0.4809207474981121,73.0,740.0,0.0
,,"(6, 6)",,,,,,,,
R,U,"[5, 6]",1.0,1.0,0.48176097869873047,3.1513760089874268,0.38246684792744445,74.0,741.0,0.0
Y,R,"[5, 7]",1.0,2.0,0.2274930477142334,1.967360019683838,0.6329973804621984,74.0,742.0,0.0
Y,R,"[5, 8]",1.0,3.0,0.18883991241455078,1.7062408924102783,0.4060378030556026,74.0,743.0,0.0
G,D,"[6, 8]",1.0,4.0,0.20930099487304688,1.9334299564361572,0.6226229789491275,74.0,744.0,0.0
Y,R,"[6, 9]",1.0,5.0,0.17684102058410645,1.9930801391601562,0.7156292077343426,74.0,745.0,0.0
Y,R,"[6, 10]",1.0,6.0,0.191694974899292,1.7020649909973145,0.40133149253395795,74.0,746.0,0.0
R,U,"[5, 10]",1.0,7.0,0.19981694221496582,2.017592191696167,0.7188546801801775,74.0,747.0,0.0
R,U,"[4, 10]",1.0,8.0,0.19649291038513184,1.9691989421844482,0.6712083992801181,74.0,748.0,0.0
B,L,"[4, 9]",1.0,9.0,0.19189786911010742,1.7657008171081543,0.4705548624150976,74.0,749.0,0.0
R,U,"[3, 9]",1.0,10.0,0.20859289169311523,1.563321828842163,0.2507708665345986,74.0,750.0,0.0
,,"(6, 6)",,,,,,,,
R,U,"[5, 6]",1.0,1.0,0.42752504348754883,3.465272903442383,0.5326973543686122,75.0,751.0,0.0
Y,R,"[5, 7]",1.0,2.0,0.1859738826751709,1.7586610317230225,0.47452666902828533,75.0,752.0,0.0
Y,R,"[5, 8]",1.0,3.0,0.20509600639343262,1.9613568782806396,0.6690498962170013,75.0,753.0,0.0
G,D,"[6, 8]",1.0,4.0,0.17247295379638672,1.591127872467041,0.32732010235600684,75.0,754.0,0.0
Y,R,"[6, 9]",1.0,5.0,0.2251298427581787,1.92911696434021,0.6060927467354549,75.0,755.0,0.0
Y,R,"[6, 10]",1.0,6.0,0.19165992736816406,1.9948089122772217,0.7012370605886141,75.0,756.0,0.0
R,U,"[5, 10]",1.0,7.0,0.20894694328308105,1.7724339962005615,0.4568913918123296,75.0,757.0,0.0
R,U,"[4, 10]",1.0,8.0,0.23131990432739258,1.639315128326416,0.313065526427228,75.0,758.0,0.0
B,L,"[4, 9]",1.0,9.0,0.21227288246154785,1.774630069732666,0.45422668908472613,75.0,759.0,0.0
R,U,"[3, 9]",1.0,10.0,0.2172679901123047,1.850114107131958,0.5376846477873514,75.0,760.0,0.0
,,"(6, 6)",,,,,,,,
R,U,"[5, 6]",1.0,1.0,0.3669140338897705,2.300863027572632,0.33891879769206673,76.0,761.0,0.0
Y,R,"[5, 7]",1.0,2.0,0.15595698356628418,1.9219770431518555,0.6609944587934542,76.0,762.0,0.0
Y,R,"[5, 8]",1.0,3.0,0.17119908332824707,1.8592078685760498,0.6031712257456789,76.0,763.0,0.0
G,D,"[6, 8]",1.0,4.0,0.201462984085083,1.5756909847259521,0.2790405527855739,76.0,764.0,0.0
Y,R,"[6, 9]",1.0,5.0,0.2499217987060547,1.9043660163879395,0.5666114926985831,76.0,765.0,0.0
Y,R,"[6, 10]",1.0,6.0,0.18548107147216797,1.6644082069396973,0.3811467335630466,76.0,766.0,0.0
R,U,"[5, 10]",1.0,7.0,0.2387409210205078,2.045927047729492,0.6934603056992341,76.0,767.0,0.0
R,U,"[4, 10]",1.0,8.0,0.20542311668395996,1.7757351398468018,0.46955878059820094,76.0,768.0,0.0
B,L,"[4, 9]",1.0,9.0,0.17633986473083496,1.8524670600891113,0.5715617127750262,76.0,769.0,0.0
R,U,"[3, 9]",1.0,10.0,0.22641992568969727,1.735476016998291,0.40754263463992957,76.0,770.0,0.0
,,"(6, 6)",,,,,,,,
R,U,"[5, 6]",1.0,1.0,0.4294438362121582,2.5382449626922607,0.6456223861738047,77.0,771.0,0.0
Y,R,"[5, 7]",1.0,2.0,0.22071409225463867,1.5559990406036377,0.25192107318884965,77.0,772.0,0.0
Y,R,"[5, 8]",1.0,3.0,0.22057700157165527,1.5738790035247803,0.25920533516141603,77.0,773.0,0.0
G,D,"[6, 8]",1.0,4.0,0.20342803001403809,1.7041208744049072,0.4131421975933517,77.0,774.0,0.0
Y,R,"[6, 9]",1.0,5.0,0.21583795547485352,1.7612988948822021,0.4411092065832329,77.0,775.0,0.0
Y,R,"[6, 10]",1.0,6.0,0.16807103157043457,1.682621955871582,0.42377244663345576,77.0,776.0,0.0
R,U,"[5, 10]",1.0,7.0,0.19666504859924316,1.559845209121704,0.2671626098629615,77.0,777.0,0.0
R,U,"[4, 10]",1.0,8.0,0.218062162399292,1.9335319995880127,0.6171550419582919,77.0,778.0,0.0
B,L,"[4, 9]",1.0,9.0,0.19189906120300293,2.0033509731292725,0.7036016465263013,77.0,779.0,0.0
R,U,"[3, 9]",1.0,10.0,0.2045300006866455,1.9692010879516602,0.6559458086960941,77.0,780.0,0.0
,,"(6, 6)",,,,,,,,
R,U,"[5, 6]",1.0,1.0,0.3781619071960449,2.089855909347534,0.27993359781511257,78.0,781.0,0.0
Y,R,"[5, 7]",1.0,2.0,0.20132207870483398,2.026287078857422,0.7224469959468358,78.0,782.0,0.0
Y,R,"[5, 8]",1.0,3.0,0.21685791015625,1.9604430198669434,0.6495288636573413,78.0,783.0,0.0
G,D,"[6, 8]",1.0,4.0,0.2022559642791748,1.8994150161743164,0.5991076432866405,78.0,784.0,0.0
Y,R,"[6, 9]",1.0,5.0,0.20515704154968262,1.68259596824646,0.38207922522875887,78.0,785.0,0.0
Y,R,"[6, 10]",1.0,6.0,0.2790341377258301,2.0129520893096924,0.6282984942441605,78.0,786.0,0.0
R,U,"[5, 10]",1.0,7.0,0.21804594993591309,2.046549081802368,0.7412312281457787,78.0,787.0,0.0
R,U,"[4, 10]",1.0,8.0,0.18819022178649902,1.6574621200561523,0.38229254194126533,78.0,788.0,0.0
B,L,"[4, 9]",1.0,9.0,0.19053292274475098,1.5537409782409668,0.25293040986753407,78.0,789.0,0.0
R,U,"[3, 9]",1.0,10.0,0.2337658405303955,1.829300880432129,0.4986054090074923,78.0,790.0,0.0
,,"(6, 6)",,,,,,,,
R,U,"[5, 6]",1.0,1.0,0.40134692192077637,2.4160590171813965,0.5648338025247552,79.0,791.0,0.0
Y,R,"[5, 7]",1.0,2.0,0.18657803535461426,1.851430892944336,0.5662091157462197,79.0,792.0,0.0
Y,R,"[5, 8]",1.0,3.0,0.1791670322418213,1.568246841430664,0.2847994419034383,79.0,793.0,0.0
G,D,"[6, 8]",1.0,4.0,0.24007916450500488,1.705353021621704,0.35670649558521816,79.0,794.0,0.0
Y,R,"[6, 9]",1.0,5.0,0.13918614387512207,1.8372340202331543,0.5936281610256815,79.0,795.0,0.0
Y,R,"[6, 10]",1.0,6.0,0.1912400722503662,1.9630329608917236,0.6732772721176297,79.0,796.0,0.0
R,U,"[5, 10]",1.0,7.0,0.20940899848937988,1.8693301677703857,0.5594162137213905,79.0,797.0,0.0
R,U,"[4, 10]",1.0,8.0,0.22961187362670898,1.702599048614502,0.37904079907070665,79.0,798.0,0.0
B,L,"[4, 9]",1.0,9.0,0.27086710929870605,2.050240993499756,0.6954728926088292,79.0,799.0,0.0
R,U,"[3, 9]",1.0,10.0,0.3117058277130127,1.967012882232666,0.5295227325517271,79.0,800.0,0.0
,,"(6, 6)",,,,,,,,
R,U,"[5, 6]",1.0,1.0,0.35355710983276367,2.598767042160034,0.2619074313409011,80.0,801.0,0.0
Y,R,"[5, 7]",1.0,2.0,0.25322890281677246,1.9058620929718018,0.5674863097624399,80.0,802.0,0.0
Y,R,"[5, 8]",1.0,3.0,0.18676018714904785,1.7221999168395996,0.43973076258403954,80.0,803.0,0.0
G,D,"[6, 8]",1.0,4.0,0.20494985580444336,1.7347400188446045,0.4412883783737882,80.0,804.0,0.0
Y,R,"[6, 9]",1.0,5.0,0.19182109832763672,1.8128681182861328,0.5206173104642089,80.0,805.0,0.0
Y,R,"[6, 10]",1.0,6.0,0.17502689361572266,1.9695460796356201,0.6901019553932284,80.0,806.0,0.0
R,U,"[5, 10]",1.0,7.0,0.21973514556884766,1.8199491500854492,0.5102895632853744,80.0,807.0,0.0
R,U,"[4, 10]",1.0,8.0,0.19820594787597656,1.9351248741149902,0.6452633279069064,80.0,808.0,0.0
B,L,"[4, 9]",1.0,9.0,0.19474101066589355,1.5820488929748535,0.2943415172922889,80.0,809.0,0.0
R,U,"[3, 9]",1.0,10.0,0.22736382484436035,1.826451063156128,0.5040414131099863,80.0,810.0,0.0
,,"(6, 6)",,,,,,,,
R,U,"[5, 6]",1.0,1.0,0.354017972946167,2.0222930908203125,0.276364234486696,81.0,811.0,0.0
Y,R,"[5, 7]",1.0,2.0,0.2755908966064453,1.8768310546875,0.5030395108211068,81.0,812.0,0.0
Y,R,"[5, 8]",1.0,3.0,0.1963210105895996,1.7359089851379395,0.4391286513019857,81.0,813.0,0.0
G,D,"[6, 8]",1.0,4.0,0.19496798515319824,1.7572369575500488,0.46306499904859727,81.0,814.0,0.0
Y,R,"[6, 9]",1.0,5.0,0.17541909217834473,1.861208200454712,0.5741977522682716,81.0,815.0,0.0
Y,R,"[6, 10]",1.0,6.0,0.18967795372009277,1.7828710079193115,0.4903742802135183,81.0,816.0,0.0
R,U,"[5, 10]",1.0,7.0,0.24138522148132324,1.6908938884735107,0.34812459361168663,81.0,817.0,0.0
R,U,"[4, 10]",1.0,8.0,0.20421290397644043,1.9085619449615479,0.6066031510672855,81.0,818.0,0.0
B,L,"[4, 9]",1.0,9.0,0.23131799697875977,1.6539561748504639,0.32751583733826345,81.0,819.0,0.0
R,U,"[3, 9]",1.0,10.0,0.280289888381958,2.1057379245758057,0.732796708049047,81.0,820.0,0.0
,,"(6, 6)",,,,,,,,
R,U,"[5, 6]",1.0,1.0,0.2844269275665283,5.114320993423462,0.31431419019795537,82.0,821.0,0.0
Y,R,"[5, 7]",1.0,2.0,0.3932209014892578,2.080888032913208,0.5783132931949868,82.0,822.0,0.0
Y,R,"[5, 8]",1.0,3.0,0.18677306175231934,1.728381872177124,0.4568750857797375,82.0,823.0,0.0
G,D,"[6, 8]",1.0,4.0,0.21361589431762695,1.9190568923950195,0.6091078005719901,82.0,824.0,0.0
Y,R,"[6, 9]",1.0,5.0,0.18871188163757324,2.037015914916992,0.7458784944214322,82.0,825.0,0.0
Y,R,"[6, 10]",1.0,6.0,0.1917870044708252,2.052670955657959,0.7487036714084926,82.0,826.0,0.0
R,U,"[5, 10]",1.0,7.0,0.19292998313903809,1.655095100402832,0.3541910848288471,82.0,827.0,0.0
R,U,"[4, 10]",1.0,8.0,0.2126169204711914,1.9133501052856445,0.60008230404536,82.0,828.0,0.0
B,L,"[4, 9]",1.0,9.0,0.20342183113098145,1.9021029472351074,0.6027987452796835,82.0,829.0,0.0
R,U,"[3, 9]",1.0,10.0,0.19441795349121094,1.6585829257965088,0.3615902554482194,82.0,830.0,0.0
,,"(6, 6)",,,,,,,,
R,U,"[5, 6]",1.0,1.0,0.3450319766998291,2.644166946411133,0.289150889363797,83.0,831.0,0.0
Y,R,"[5, 7]",1.0,2.0,0.23264503479003906,1.730975866317749,0.40338035589489096,83.0,832.0,0.0
Y,R,"[5, 8]",1.0,3.0,0.2213578224182129,1.7113969326019287,0.381491248549032,83.0,833.0,0.0
G,D,"[6, 8]",1.0,4.0,0.19268107414245605,1.859485149383545,0.5575395910688242,83.0,834.0,0.0
Y,R,"[6, 9]",1.0,5.0,0.18697214126586914,1.927427053451538,0.6516375735524311,83.0,835.0,0.0
Y,R,"[6, 10]",1.0,6.0,0.17352700233459473,1.8785731792449951,0.5968196184949867,83.0,836.0,0.0
R,U,"[5, 10]",1.0,7.0,0.20248103141784668,1.906830072402954,0.603653276890717,83.0,837.0,0.0
R,U,"[4, 10]",1.0,8.0,0.21618294715881348,1.6217329502105713,0.30906278587661945,83.0,838.0,0.0
B,L,"[4, 9]",1.0,9.0,0.27666711807250977,2.091135025024414,0.7165207435660286,83.0,839.0,0.0
R,U,"[3, 9]",1.0,10.0,0.2337641716003418,1.6842269897460938,0.3512385954212765,83.0,840.0,0.0
,,"(6, 6)",,,,,,,,
R,U,"[5, 6]",1.0,1.0,0.33568596839904785,2.771636962890625,0.5893149787115242,84.0,841.0,0.0
Y,R,"[5, 7]",1.0,2.0,0.19816899299621582,1.8257081508636475,0.5317833348529444,84.0,842.0,0.0
Y,R,"[5, 8]",1.0,3.0,0.200822114944458,1.9391379356384277,0.6376247240998875,84.0,843.0,0.0
G,D,"[6, 8]",-1.0,3.0,0.0014231204986572266,5.416585922241211,0.2877729042931983,84.0,844.0,0.0
Y,R,"[6, 9]",1.0,4.0,0.2366480827331543,1.8460071086883545,0.5168804652950674,84.0,845.0,0.0
Y,R,"[6, 10]",1.0,5.0,0.20185208320617676,1.622960090637207,0.3233498249177727,84.0,846.0,0.0
R,U,"[5, 10]",1.0,6.0,0.23726105690002441,2.057910203933716,0.7313809173081559,84.0,847.0,0.0
R,U,"[4, 10]",1.0,7.0,0.23285794258117676,1.9487249851226807,0.6129841653605874,84.0,848.0,0.0
B,L,"[4, 9]",1.0,8.0,0.22065997123718262,1.8161489963531494,0.49620179175214213,84.0,849.0,0.0
R,U,"[3, 9]",1.0,9.0,0.2221698760986328,1.8683409690856934,0.5311259798460773,84.0,850.0,0.0
,,"(6, 6)",,,,,,,,
R,U,"[5, 6]",1.0,1.0,0.4275028705596924,3.3736660480499268,0.7212307958323644,85.0,851.0,0.0
Y,R,"[5, 7]",1.0,2.0,0.21091103553771973,1.661909818649292,0.3502084702798031,85.0,852.0,0.0
Y,R,"[5, 8]",1.0,3.0,0.24421215057373047,1.891273021697998,0.5412816552507722,85.0,853.0,0.0
G,D,"[6, 8]",1.0,4.0,0.19415903091430664,1.6045470237731934,0.31278881218559834,85.0,854.0,0.0
Y,R,"[6, 9]",1.0,5.0,0.21145892143249512,1.7939341068267822,0.4732051447456924,85.0,855.0,0.0
Y,R,"[6, 10]",1.0,6.0,0.17015814781188965,1.6634681224822998,0.40350471558244655,85.0,856.0,0.0
R,U,"[5, 10]",1.0,7.0,0.2514359951019287,1.6937990188598633,0.34712725440601294,85.0,857.0,0.0
R,U,"[4, 10]",1.0,8.0,0.19247984886169434,2.0291178226470947,0.7263156527309907,85.0,858.0,0.0
B,L,"[4, 9]",1.0,9.0,0.21696710586547852,1.7878668308258057,0.48093669760058194,85.0,859.0,0.0
R,U,"[3, 9]",1.0,10.0,0.20698308944702148,1.8405799865722656,0.5215653349588735,85.0,860.0,0.0
,,"(6, 6)",,,,,,,,
R,U,"[5, 6]",1.0,1.0,0.41048097610473633,3.272003173828125,0.5768557021348435,86.0,861.0,0.0
Y,R,"[5, 7]",1.0,2.0,0.20847105979919434,1.6824300289154053,0.3761210139253446,86.0,862.0,0.0
Y,R,"[5, 8]",1.0,3.0,0.26291799545288086,1.965057134628296,0.6076138627329035,86.0,863.0,0.0
G,D,"[6, 8]",1.0,4.0,0.20149707794189453,1.8214900493621826,0.5291969871819024,86.0,864.0,0.0
Y,R,"[6, 9]",1.0,5.0,0.18940091133117676,1.8313250541687012,0.5272483707078133,86.0,865.0,0.0
Y,R,"[6, 10]",1.0,6.0,0.20645618438720703,1.6387598514556885,0.3329084016906629,86.0,866.0,0.0
R,U,"[5, 10]",1.0,7.0,0.24089384078979492,1.8984198570251465,0.5478084235890428,86.0,867.0,0.0
R,U,"[4, 10]",1.0,8.0,0.2007460594177246,1.8433959484100342,0.5411948040612855,86.0,868.0,0.0
B,L,"[4, 9]",1.0,9.0,0.21529197692871094,2.0232181549072266,0.7142281299719804,86.0,869.0,0.0
R,U,"[3, 9]",1.0,10.0,0.22895097732543945,2.0307199954986572,0.6950827758351402,86.0,870.0,0.0
,,"(6, 6)",,,,,,,,
R,U,"[5, 6]",1.0,1.0,0.3870570659637451,4.507226943969727,0.6356678625660825,87.0,871.0,0.0
Y,R,"[5, 7]",1.0,2.0,0.18999099731445312,1.6413071155548096,0.3439723653645619,87.0,872.0,0.0
Y,R,"[5, 8]",1.0,3.0,0.22383904457092285,2.001434087753296,0.6784775021377834,87.0,873.0,0.0
G,D,"[6, 8]",1.0,4.0,0.1878519058227539,1.56569504737854,0.29454743443062853,87.0,874.0,0.0
Y,R,"[6, 9]",1.0,5.0,0.21738505363464355,1.6401078701019287,0.33461036032464553,87.0,875.0,0.0
Y,R,"[6, 10]",1.0,6.0,0.2334439754486084,1.7413887977600098,0.4092725072370983,87.0,876.0,0.0
R,U,"[5, 10]",1.0,7.0,0.21597504615783691,1.996316909790039,0.6887727685251395,87.0,877.0,0.0
R,U,"[4, 10]",1.0,8.0,0.22498488426208496,1.9498119354248047,0.6220386572548384,87.0,878.0,0.0
B,L,"[4, 9]",1.0,9.0,0.35504603385925293,2.1113181114196777,0.6499215997973353,87.0,879.0,0.0
R,U,"[3, 9]",1.0,10.0,0.2514169216156006,1.9984540939331055,0.6483475763726634,87.0,880.0,0.0
,,"(6, 6)",,,,,,,,
R,U,"[5, 6]",1.0,1.0,0.3610811233520508,2.4900460243225098,0.5052884605633585,88.0,881.0,0.0
Y,R,"[5, 7]",1.0,2.0,0.21352791786193848,1.8629348278045654,0.5513542667811839,88.0,882.0,0.0
Y,R,"[5, 8]",1.0,3.0,0.18491291999816895,1.7556078433990479,0.4742876878304394,88.0,883.0,0.0
G,D,"[6, 8]",1.0,4.0,0.19280290603637695,1.960541009902954,0.6676924678792964,88.0,884.0,0.0
Y,R,"[6, 9]",1.0,5.0,0.16822290420532227,1.8210749626159668,0.5555855249949666,88.0,885.0,0.0
Y,R,"[6, 10]",1.0,6.0,0.18054413795471191,2.0209498405456543,0.7428916659423136,88.0,886.0,0.0
R,U,"[5, 10]",1.0,7.0,0.20490503311157227,1.582097053527832,0.29230703069392944,88.0,887.0,0.0
R,U,"[4, 10]",1.0,8.0,0.26678013801574707,1.9040000438690186,0.5460559455272399,88.0,888.0,0.0
B,L,"[4, 9]",1.0,9.0,0.214324951171875,1.816197156906128,0.4955900077243633,88.0,889.0,0.0
R,U,"[3, 9]",1.0,10.0,0.20003819465637207,1.5911271572113037,0.30356523230654386,88.0,890.0,0.0
,,"(6, 6)",,,,,,,,
R,U,"[5, 6]",1.0,1.0,0.38039302825927734,2.4154489040374756,0.6184823128199815,89.0,891.0,0.0
Y,R,"[5, 7]",1.0,2.0,0.215407133102417,1.6363189220428467,0.3218384589898572,89.0,892.0,0.0
Y,R,"[5, 8]",1.0,3.0,0.2443540096282959,2.025075912475586,0.6799917441635601,89.0,893.0,0.0
G,D,"[6, 8]",1.0,4.0,0.18996000289916992,1.7769899368286133,0.4738807732537812,89.0,894.0,0.0
Y,R,"[6, 9]",1.0,5.0,0.2015528678894043,1.7456839084625244,0.4531260330096891,89.0,895.0,0.0
Y,R,"[6, 10]",1.0,6.0,0.24746298789978027,1.7205300331115723,0.3737629623406564,89.0,896.0,0.0
R,U,"[5, 10]",1.0,7.0,0.21496295928955078,1.7080178260803223,0.39835301483815155,89.0,897.0,0.0
R,U,"[4, 10]",1.0,8.0,0.22624707221984863,2.0248818397521973,0.6896625768479097,89.0,898.0,0.0
B,L,"[4, 9]",1.0,9.0,0.23349285125732422,1.8653218746185303,0.5384100570426729,89.0,899.0,0.0
R,U,"[3, 9]",1.0,10.0,0.22804999351501465,1.6278820037841797,0.29999921799521895,89.0,900.0,0.0
,,"(6, 6)",,,,,,,,
R,U,"[5, 6]",1.0,1.0,0.3408060073852539,2.8858280181884766,0.6021883561611834,90.0,901.0,0.0
Y,R,"[5, 7]",1.0,2.0,0.2215108871459961,2.0254580974578857,0.6936392931559188,90.0,902.0,0.0
Y,R,"[5, 8]",1.0,3.0,0.19246697425842285,1.799130916595459,0.5101777767127414,90.0,903.0,0.0
G,D,"[6, 8]",1.0,4.0,0.20419883728027344,1.9626638889312744,0.6728361960546121,90.0,904.0,0.0
Y,R,"[6, 9]",1.0,5.0,0.20424509048461914,1.7569999694824219,0.46333052939547326,90.0,905.0,0.0
Y,R,"[6, 10]",1.0,6.0,0.23167085647583008,1.951611042022705,0.6149251864221961,90.0,906.0,0.0
R,U,"[5, 10]",1.0,7.0,0.21868586540222168,2.024515151977539,0.7059972137884165,90.0,907.0,0.0
R,U,"[4, 10]",1.0,8.0,0.19220304489135742,1.574173927307129,0.28050819334639626,90.0,908.0,0.0
B,L,"[4, 9]",1.0,9.0,0.23488903045654297,1.7474949359893799,0.41112698011759596,90.0,909.0,0.0
R,U,"[3, 9]",1.0,10.0,0.17780089378356934,1.924443006515503,0.6522139520622852,90.0,910.0,0.0
,,"(6, 6)",,,,,,,,
R,U,"[5, 6]",1.0,1.0,0.3092350959777832,7.211609125137329,0.3972509928711219,91.0,911.0,0.0
Y,R,"[5, 7]",1.0,2.0,0.28208422660827637,1.6648979187011719,0.2790994441700327,91.0,912.0,0.0
Y,R,"[5, 8]",1.0,3.0,0.2172849178314209,2.0212550163269043,0.7166109334196199,91.0,913.0,0.0
G,D,"[6, 8]",1.0,4.0,0.2109389305114746,1.9179110527038574,0.6011952015867048,91.0,914.0,0.0
Y,R,"[6, 9]",1.0,5.0,0.16930913925170898,1.8867199420928955,0.621348021806231,91.0,915.0,0.0
Y,R,"[6, 10]",1.0,6.0,0.20203804969787598,1.8577778339385986,0.562622736946481,91.0,916.0,0.0
R,U,"[5, 10]",1.0,7.0,0.1783139705657959,1.6503911018371582,0.363167304384722,91.0,917.0,0.0
R,U,"[4, 10]",1.0,8.0,0.28841400146484375,1.8506500720977783,0.44708026987090904,91.0,918.0,0.0
B,L,"[4, 9]",1.0,9.0,0.18137001991271973,1.9182209968566895,0.6318293944625524,91.0,919.0,0.0
R,U,"[3, 9]",1.0,10.0,0.1776418685913086,1.5986030101776123,0.3142163155459475,91.0,920.0,0.0
,,"(6, 6)",,,,,,,,
R,U,"[5, 6]",1.0,1.0,0.3350558280944824,2.3900089263916016,0.45411389491835646,92.0,921.0,0.0
Y,R,"[5, 7]",1.0,2.0,0.20730185508728027,1.750020980834961,0.43751997631013806,92.0,922.0,0.0
Y,R,"[5, 8]",1.0,3.0,0.22380900382995605,1.6600520610809326,0.33088236253841086,92.0,923.0,0.0
G,D,"[6, 8]",1.0,4.0,0.2131659984588623,1.8243730068206787,0.5050937244568379,92.0,924.0,0.0
Y,R,"[6, 9]",1.0,5.0,0.21651792526245117,1.8395559787750244,0.5280349405083917,92.0,925.0,0.0
Y,R,"[6, 10]",1.0,6.0,0.19015192985534668,1.8515551090240479,0.5629406500368397,92.0,926.0,0.0
R,U,"[5, 10]",1.0,7.0,0.22151398658752441,1.664139986038208,0.32727447206271576,92.0,927.0,0.0
R,U,"[4, 10]",1.0,8.0,0.24274706840515137,1.9040708541870117,0.5644628600015758,92.0,928.0,0.0
B,L,"[4, 9]",1.0,9.0,0.1951580047607422,1.61490797996521,0.3130876761128126,92.0,929.0,0.0
R,U,"[3, 9]",1.0,10.0,0.21255207061767578,2.047680139541626,0.7269402416733812,92.0,930.0,0.0
,,"(6, 6)",,,,,,,,
R,U,"[5, 6]",1.0,1.0,0.42088985443115234,2.3864901065826416,0.48034298822639576,93.0,931.0,0.0
Y,R,"[5, 7]",1.0,2.0,0.19440007209777832,1.9428610801696777,0.6396803741758713,93.0,932.0,0.0
Y,R,"[5, 8]",1.0,3.0,0.21021509170532227,1.5787510871887207,0.268911198812945,93.0,933.0,0.0
G,D,"[6, 8]",1.0,4.0,0.2770261764526367,1.7473499774932861,0.38277266630459206,93.0,934.0,0.0
Y,R,"[6, 9]",1.0,5.0,0.17949199676513672,1.9901409149169922,0.7059727428664785,93.0,935.0,0.0
Y,R,"[6, 10]",1.0,6.0,0.21842098236083984,1.8613801002502441,0.5508293985193957,93.0,936.0,0.0
R,U,"[5, 10]",1.0,7.0,0.2146899700164795,1.7706060409545898,0.4549008748327735,93.0,937.0,0.0
R,U,"[4, 10]",1.0,8.0,0.19223499298095703,1.9734361171722412,0.6780694733966279,93.0,938.0,0.0
B,L,"[4, 9]",1.0,9.0,0.20078301429748535,1.6284699440002441,0.34039766475350847,93.0,939.0,0.0
R,U,"[3, 9]",1.0,10.0,0.25038695335388184,1.6717438697814941,0.3287397123649523,93.0,940.0,0.0
,,"(6, 6)",,,,,,,,
R,U,"[5, 6]",1.0,1.0,0.30641913414001465,3.356890916824341,0.40224200874122873,94.0,941.0,0.0
Y,R,"[5, 7]",1.0,2.0,0.20152997970581055,2.0386621952056885,0.740657594166229,94.0,942.0,0.0
Y,R,"[5, 8]",1.0,3.0,0.21390008926391602,1.8464381694793701,0.5373923514579222,94.0,943.0,0.0
G,D,"[6, 8]",1.0,4.0,0.19888091087341309,1.5492830276489258,0.2535562414815391,94.0,944.0,0.0
Y,R,"[6, 9]",1.0,5.0,0.30297183990478516,1.8836109638214111,0.4870458084132561,94.0,945.0,0.0
Y,R,"[6, 10]",1.0,6.0,0.24051499366760254,1.7254319190979004,0.37928881799003067,94.0,946.0,0.0
R,U,"[5, 10]",1.0,7.0,0.20715808868408203,1.9229249954223633,0.6182462576004966,94.0,947.0,0.0
R,U,"[4, 10]",1.0,8.0,0.23495721817016602,1.7964191436767578,0.46525136601461287,94.0,948.0,0.0
B,L,"[4, 9]",1.0,9.0,0.21312880516052246,1.9787180423736572,0.6603103325879784,94.0,949.0,0.0
R,U,"[3, 9]",1.0,10.0,0.20634698867797852,1.99493408203125,0.6886022325804555,94.0,950.0,0.0
,,"(6, 6)",,,,,,,,
R,U,"[5, 6]",1.0,1.0,0.4089510440826416,2.3066701889038086,0.5287860962871135,95.0,951.0,0.0
Y,R,"[5, 7]",1.0,2.0,0.18062114715576172,1.6138629913330078,0.342834313148526,95.0,952.0,0.0
Y,R,"[5, 8]",1.0,3.0,0.2537498474121094,1.8803911209106445,0.5397599669667585,95.0,953.0,0.0
G,D,"[6, 8]",1.0,4.0,0.17972707748413086,1.990380048751831,0.7129389950061221,95.0,954.0,0.0
Y,R,"[6, 9]",1.0,5.0,0.2196979522705078,1.8045449256896973,0.48477615664837903,95.0,955.0,0.0
Y,R,"[6, 10]",1.0,6.0,0.2797679901123047,2.012364149093628,0.6302964559172247,95.0,956.0,0.0
R,U,"[5, 10]",1.0,7.0,0.23314189910888672,2.0734500885009766,0.737106869233096,95.0,957.0,0.0
R,U,"[4, 10]",1.0,8.0,0.22423505783081055,1.6845219135284424,0.3551139105907512,95.0,958.0,0.0
B,L,"[4, 9]",1.0,9.0,0.23310589790344238,1.6222739219665527,0.29433832833971757,95.0,959.0,0.0
R,U,"[3, 9]",1.0,10.0,0.24280095100402832,1.8065409660339355,0.46731065260999927,95.0,960.0,0.0
,,"(6, 6)",,,,,,,,
R,U,"[5, 6]",1.0,1.0,0.38857483863830566,3.076054096221924,0.32683980267132107,96.0,961.0,0.0
Y,R,"[5, 7]",1.0,2.0,0.2324380874633789,1.8524529933929443,0.5292715611960253,96.0,962.0,0.0
Y,R,"[5, 8]",1.0,3.0,0.20480585098266602,1.7685978412628174,0.464708894880095,96.0,963.0,0.0
G,D,"[6, 8]",1.0,4.0,0.2501809597015381,1.8015859127044678,0.4495116648984399,96.0,964.0,0.0
Y,R,"[6, 9]",1.0,5.0,0.15417194366455078,1.522075891494751,0.27180961274963505,96.0,965.0,0.0
Y,R,"[6, 10]",1.0,6.0,0.2449178695678711,1.7413389682769775,0.3963786223373558,96.0,966.0,0.0
R,U,"[5, 10]",1.0,7.0,0.26459288597106934,1.81740403175354,0.44699130939265574,96.0,967.0,0.0
R,U,"[4, 10]",1.0,8.0,0.2970411777496338,2.013533115386963,0.6105505103627594,96.0,968.0,0.0
B,L,"[4, 9]",1.0,9.0,0.20610809326171875,1.681777000427246,0.3758682359871647,96.0,969.0,0.0
R,U,"[3, 9]",1.0,10.0,0.23796296119689941,1.979184865951538,0.654575893070334,96.0,970.0,0.0
,,"(6, 6)",,,,,,,,
R,U,"[5, 6]",1.0,1.0,0.33852696418762207,3.0409979820251465,0.34600365820928264,97.0,971.0,0.0
Y,R,"[5, 7]",1.0,2.0,0.2530078887939453,1.7448019981384277,0.39079964096845615,97.0,972.0,0.0
Y,R,"[5, 8]",1.0,3.0,0.22672700881958008,1.910348892211914,0.5843310804386721,97.0,973.0,0.0
G,D,"[6, 8]",1.0,4.0,0.21393299102783203,2.0345499515533447,0.7185995336338666,97.0,974.0,0.0
Y,R,"[6, 9]",1.0,5.0,0.2836320400238037,1.7107670307159424,0.32998504542779244,97.0,975.0,0.0
Y,R,"[6, 10]",1.0,6.0,0.3023409843444824,1.8698210716247559,0.46635944974267235,97.0,976.0,0.0
R,U,"[5, 10]",1.0,7.0,0.23730206489562988,1.6733338832855225,0.3397426483033092,97.0,977.0,0.0
R,U,"[4, 10]",1.0,8.0,0.22263002395629883,1.603039026260376,0.2762850805506975,97.0,978.0,0.0
B,L,"[4, 9]",1.0,9.0,0.23505902290344238,1.89717698097229,0.5732088781625668,97.0,979.0,0.0
R,U,"[3, 9]",1.0,10.0,0.2850959300994873,1.696192979812622,0.31969965971476744,97.0,980.0,0.0
,,"(6, 6)",,,,,,,,
R,U,"[5, 6]",1.0,1.0,0.3568601608276367,7.842954874038696,0.5792300689963606,98.0,981.0,0.0
Y,R,"[5, 7]",1.0,2.0,0.17891597747802734,1.5849809646606445,0.3143298673526641,98.0,982.0,0.0
Y,R,"[5, 8]",1.0,3.0,0.22910308837890625,1.6541218757629395,0.31851486737707146,98.0,983.0,0.0
G,D,"[6, 8]",1.0,4.0,0.18912506103515625,1.8138020038604736,0.5154622647095339,98.0,984.0,0.0
Y,R,"[6, 9]",1.0,5.0,0.19139814376831055,1.7239990234375,0.42288080421802215,98.0,985.0,0.0
Y,R,"[6, 10]",1.0,6.0,0.19493603706359863,1.9138882160186768,0.6197942457427663,98.0,986.0,0.0
R,U,"[5, 10]",1.0,7.0,0.19833612442016602,1.6710970401763916,0.37462955068052,98.0,987.0,0.0
R,U,"[4, 10]",1.0,8.0,0.21765398979187012,1.8215880393981934,0.5127313386535244,98.0,988.0,0.0
B,L,"[4, 9]",1.0,9.0,0.20228004455566406,1.5823311805725098,0.2786551221869555,98.0,989.0,0.0
R,U,"[3, 9]",1.0,10.0,0.23387384414672852,1.8994860649108887,0.5777903844898703,98.0,990.0,0.0
,,"(6, 6)",,,,,,,,
R,U,"[5, 6]",1.0,1.0,0.38400697708129883,2.3217549324035645,0.3831613440682248,99.0,991.0,0.0
Y,R,"[5, 7]",1.0,2.0,0.21492481231689453,1.8965680599212646,0.579496037896297,99.0,992.0,0.0
Y,R,"[5, 8]",1.0,3.0,0.19757699966430664,1.6786348819732666,0.3751606896673832,99.0,993.0,0.0
G,D,"[6, 8]",1.0,4.0,0.20894312858581543,1.7369880676269531,0.42859871671378885,99.0,994.0,0.0
Y,R,"[6, 9]",1.0,5.0,0.2037971019744873,1.7143080234527588,0.4263701915667662,99.0,995.0,0.0
Y,R,"[6, 10]",1.0,6.0,0.2050790786743164,1.9735641479492188,0.6830120364773977,99.0,996.0,0.0
R,U,"[5, 10]",1.0,7.0,0.2000432014465332,1.9905190467834473,0.6902982557558714,99.0,997.0,0.0
R,U,"[4, 10]",1.0,8.0,0.19758892059326172,1.6767470836639404,0.3839568259040451,99.0,998.0,0.0
B,L,"[4, 9]",1.0,9.0,0.2569451332092285,1.733449935913086,0.36742925603537985,99.0,999.0,0.0
R,U,"[3, 9]",1.0,10.0,0.21505308151245117,1.572808027267456,0.2570084555129093,99.0,1000.0,0.0
