button_choice,action_choice,coordinate_choice,reward,cumulative_reward,rt,total_trial_time,iti,block_n,trial_n,trial_type
R,U,"[5, 6]",1.0,1.0,0.7875449657440186,2.2752010822296143,0.39271951346457545,0.0,1.0,0.0
Y,R,"[5, 7]",1.0,2.0,0.21563386917114258,1.7454450130462646,0.43798015146206576,0.0,2.0,0.0
Y,R,"[5, 8]",1.0,3.0,0.19627881050109863,1.6233408451080322,0.328076723267577,0.0,3.0,0.0
G,D,"[6, 8]",1.0,4.0,0.26894497871398926,1.9384839534759521,0.5831080768867871,0.0,4.0,0.0
Y,R,"[6, 9]",1.0,5.0,0.35529088973999023,2.207280158996582,0.7401967217319774,0.0,5.0,0.0
Y,R,"[6, 10]",1.0,6.0,0.4862351417541504,2.0315051078796387,0.4552892978662672,0.0,6.0,0.0
R,U,"[5, 10]",1.0,7.0,0.26196718215942383,2.0403809547424316,0.6789288202643096,0.0,7.0,0.0
R,U,"[4, 10]",1.0,8.0,0.17774486541748047,1.8369238376617432,0.5659588181380755,0.0,8.0,0.0
B,L,"[4, 9]",1.0,9.0,0.3758838176727295,2.2006049156188965,0.7163725691129813,0.0,9.0,0.0
R,U,"[3, 9]",1.0,10.0,0.33402204513549805,2.1365790367126465,0.702862185941182,0.0,10.0,0.0
,,"(6, 6)",,,,,,,,
R,U,"[5, 6]",1.0,1.0,0.556973934173584,4.552340984344482,0.45547838433045645,1.0,11.0,0.0
Y,R,"[5, 7]",1.0,2.0,0.2957489490509033,1.652000904083252,0.2576741728087346,1.0,12.0,0.0
Y,R,"[5, 8]",1.0,3.0,0.29775500297546387,2.0334341526031494,0.6408769543734667,1.0,13.0,0.0
G,D,"[6, 8]",1.0,4.0,0.20861315727233887,1.9432399272918701,0.6339757020562007,1.0,14.0,0.0
Y,R,"[6, 9]",1.0,5.0,0.22040390968322754,2.0394790172576904,0.723357247778805,1.0,15.0,0.0
Y,R,"[6, 10]",1.0,6.0,0.30338287353515625,2.132352113723755,0.7225290931382597,1.0,16.0,0.0
R,U,"[5, 10]",1.0,7.0,0.2592308521270752,1.6459848880767822,0.2856198189456999,1.0,17.0,0.0
R,U,"[4, 10]",1.0,8.0,0.33907294273376465,2.0920960903167725,0.6439885763450179,1.0,18.0,0.0
B,L,"[4, 9]",1.0,9.0,0.22395801544189453,1.8162651062011719,0.4937889745807067,1.0,19.0,0.0
R,U,"[3, 9]",1.0,10.0,0.2914011478424072,1.9247920513153076,0.5351731959287516,1.0,20.0,0.0
,,"(6, 6)",,,,,,,,
R,U,"[5, 6]",1.0,1.0,0.4323689937591553,3.485862970352173,0.40453529809768796,2.0,21.0,0.0
Y,R,"[5, 7]",1.0,2.0,0.26576805114746094,1.923105001449585,0.5607014865397679,2.0,22.0,0.0
Y,R,"[5, 8]",1.0,3.0,0.22413897514343262,1.6570711135864258,0.33467050381451624,2.0,23.0,0.0
G,D,"[6, 8]",1.0,4.0,0.28469300270080566,1.7197790145874023,0.3377440484758999,2.0,24.0,0.0
Y,R,"[6, 9]",1.0,5.0,0.24823212623596191,1.6564838886260986,0.3109883811469262,2.0,25.0,0.0
Y,R,"[6, 10]",1.0,6.0,0.2750887870788574,2.024671792984009,0.6520041629736248,2.0,26.0,0.0
R,U,"[5, 10]",1.0,7.0,0.33260202407836914,1.8205578327178955,0.38946752430198606,2.0,27.0,0.0
R,U,"[4, 10]",1.0,8.0,0.42326903343200684,1.9193999767303467,0.392224805032843,2.0,28.0,0.0
B,L,"[4, 9]",1.0,9.0,0.38576698303222656,1.8223819732666016,0.34793447492404667,2.0,29.0,0.0
R,U,"[3, 9]",1.0,10.0,0.2732369899749756,2.0372180938720703,0.6515911592512499,2.0,30.0,0.0
,,"(6, 6)",,,,,,,,
R,U,"[5, 6]",1.0,1.0,0.5419089794158936,5.612329006195068,0.43082836842477734,3.0,31.0,0.0
Y,R,"[5, 7]",1.0,2.0,0.3004131317138672,1.9846460819244385,0.5819666630213722,3.0,32.0,0.0
Y,R,"[5, 8]",1.0,3.0,0.32721900939941406,1.7527801990509033,0.3184393944273872,3.0,33.0,0.0
B,L,"[5, 7]",0.0,3.0,0.5344839096069336,2.3193459510803223,0.6873868770632403,3.0,34.0,0.0
Y,R,"[5, 8]",0.0,3.0,0.21216797828674316,2.014648914337158,0.7019664805914484,3.0,35.0,0.0
Y,R,"[5, 9]",0.0,3.0,0.2041170597076416,1.7073919773101807,0.40960284655446483,3.0,36.0,0.0
R,U,"[4, 9]",1.0,4.0,0.28413891792297363,1.657710075378418,0.2842410736391887,3.0,37.0,0.0
R,U,"[3, 9]",1.0,5.0,0.309873104095459,1.6970999240875244,0.2812807433333219,3.0,38.0,0.0
B,L,"[3, 8]",0.0,5.0,0.320803165435791,1.882154941558838,0.46324463768310914,3.0,39.0,0.0
R,U,"[2, 8]",0.0,5.0,0.19031000137329102,1.6454699039459229,0.35881267956929747,3.0,40.0,0.0
,,"(6, 6)",,,,,,,,
R,U,"[5, 6]",1.0,1.0,0.5352630615234375,4.043706893920898,0.6023573518194334,4.0,41.0,0.0
Y,R,"[5, 7]",1.0,2.0,0.2711939811706543,2.0658700466156006,0.7014210912520515,4.0,42.0,0.0
Y,R,"[5, 8]",1.0,3.0,0.2806107997894287,2.022331953048706,0.6405089116975604,4.0,43.0,0.0
G,D,"[6, 8]",1.0,4.0,0.3228738307952881,2.050952196121216,0.6248296753906163,4.0,44.0,0.0
Y,R,"[6, 9]",1.0,5.0,0.32409191131591797,1.8180620670318604,0.39319791016218275,4.0,45.0,0.0
Y,R,"[6, 10]",1.0,6.0,0.311431884765625,1.7090890407562256,0.30229760768529856,4.0,46.0,0.0
R,U,"[5, 10]",1.0,7.0,0.38274192810058594,1.8921630382537842,0.41099597404943045,4.0,47.0,0.0
R,U,"[4, 10]",1.0,8.0,0.2825191020965576,1.6767089366912842,0.30450902476680186,4.0,48.0,0.0
B,L,"[4, 9]",1.0,9.0,0.4219701290130615,1.7796151638031006,0.2508353308195857,4.0,49.0,0.0
R,U,"[3, 9]",1.0,10.0,0.3530161380767822,2.0945210456848145,0.6449031458100065,4.0,50.0,0.0
,,"(6, 6)",,,,,,,,
R,U,"[5, 6]",1.0,1.0,0.6365640163421631,3.6703569889068604,0.3823427015999552,5.0,51.0,0.0
Y,R,"[5, 7]",1.0,2.0,0.32566189765930176,1.9729700088500977,0.538459126515366,5.0,52.0,0.0
Y,R,"[5, 8]",1.0,3.0,0.41004490852355957,2.0427629947662354,0.5311421885511903,5.0,53.0,0.0
G,D,"[6, 8]",1.0,4.0,0.40823888778686523,2.233816146850586,0.7149482800797917,5.0,54.0,0.0
Y,R,"[6, 9]",1.0,5.0,0.3997340202331543,2.1331260204315186,0.6315273453959931,5.0,55.0,0.0
Y,R,"[6, 10]",1.0,6.0,0.36749696731567383,2.132091999053955,0.6635552680381429,5.0,56.0,0.0
R,U,"[5, 10]",1.0,7.0,0.3603389263153076,1.7502939701080322,0.2809133720734197,5.0,57.0,0.0
R,U,"[4, 10]",1.0,8.0,0.3402838706970215,1.7194528579711914,0.2668965957031196,5.0,58.0,0.0
B,L,"[4, 9]",1.0,9.0,0.27399706840515137,1.9611749649047852,0.5779548062655218,5.0,59.0,0.0
R,U,"[3, 9]",1.0,10.0,0.2138512134552002,1.968885898590088,0.663443977094672,5.0,60.0,0.0
,,"(6, 6)",,,,,,,,
R,U,"[5, 6]",1.0,1.0,0.6712861061096191,5.363746881484985,0.6604243580317501,6.0,61.0,0.0
Y,R,"[5, 7]",1.0,2.0,0.2806670665740967,1.8516860008239746,0.4789318498110676,6.0,62.0,0.0
Y,R,"[5, 8]",1.0,3.0,0.30310487747192383,2.113668918609619,0.7258047726175435,6.0,63.0,0.0
G,D,"[6, 8]",1.0,4.0,0.23123788833618164,1.6482889652252197,0.32445657820714896,6.0,64.0,0.0
Y,R,"[6, 9]",1.0,5.0,0.30718278884887695,1.7750651836395264,0.36610614745832415,6.0,65.0,0.0
Y,R,"[6, 10]",1.0,6.0,0.3629910945892334,2.1321051120758057,0.6647090236541502,6.0,66.0,0.0
R,U,"[5, 10]",1.0,7.0,0.3146059513092041,2.020220994949341,0.6016922687824702,6.0,67.0,0.0
R,U,"[4, 10]",1.0,8.0,0.32131481170654297,1.825157880783081,0.41030537706094594,6.0,68.0,0.0
B,L,"[4, 9]",1.0,9.0,0.3536701202392578,1.9739928245544434,0.534149642213422,6.0,69.0,0.0
R,U,"[3, 9]",1.0,10.0,0.37720489501953125,2.010113000869751,0.5277327801511451,6.0,70.0,0.0
,,"(6, 6)",,,,,,,,
R,U,"[5, 6]",1.0,1.0,0.5480108261108398,3.5745370388031006,0.35247386142445913,7.0,71.0,0.0
Y,R,"[5, 7]",1.0,2.0,0.2980349063873291,1.8249139785766602,0.42718124399437835,7.0,72.0,0.0
Y,R,"[5, 8]",1.0,3.0,0.35343313217163086,1.740638017654419,0.30125233810981766,7.0,73.0,0.0
G,D,"[6, 8]",1.0,4.0,0.35845112800598145,1.891901969909668,0.4263703949280876,7.0,74.0,0.0
Y,R,"[6, 9]",1.0,5.0,0.22522497177124023,1.9010868072509766,0.5773982615059252,7.0,75.0,0.0
Y,R,"[6, 10]",1.0,6.0,0.2772791385650635,1.9778249263763428,0.6051146224334201,7.0,76.0,0.0
R,U,"[5, 10]",1.0,7.0,0.2961258888244629,1.866821050643921,0.4721894085502269,7.0,77.0,0.0
R,U,"[4, 10]",1.0,8.0,0.2564980983734131,1.783660888671875,0.42257137932990885,7.0,78.0,0.0
B,L,"[4, 9]",1.0,9.0,0.2971038818359375,1.7696819305419922,0.37565492466765665,7.0,79.0,0.0
R,U,"[3, 9]",1.0,10.0,0.3584921360015869,2.0830559730529785,0.6248850191925692,7.0,80.0,0.0
,,"(6, 6)",,,,,,,,
R,U,"[5, 6]",1.0,1.0,0.5329420566558838,3.3916330337524414,0.5168158714244027,8.0,81.0,0.0
Y,R,"[5, 7]",1.0,2.0,0.36136794090270996,1.8566908836364746,0.3904087628528587,8.0,82.0,0.0
Y,R,"[5, 8]",1.0,3.0,0.44646716117858887,1.8739972114562988,0.33111662458474966,8.0,83.0,0.0
G,D,"[6, 8]",1.0,4.0,0.35109806060791016,1.8495728969573975,0.3972251543172164,8.0,84.0,0.0
Y,R,"[6, 9]",1.0,5.0,0.2582061290740967,2.0459048748016357,0.6762614299477194,8.0,85.0,0.0
Y,R,"[6, 10]",1.0,6.0,0.35802698135375977,1.9741878509521484,0.5172181467851906,8.0,86.0,0.0
R,U,"[5, 10]",1.0,7.0,0.24681305885314941,1.8727538585662842,0.5233020539023382,8.0,87.0,0.0
R,U,"[4, 10]",1.0,8.0,0.2960550785064697,1.735342025756836,0.34215933012744787,8.0,88.0,0.0
B,L,"[4, 9]",1.0,9.0,0.431851863861084,1.8527030944824219,0.3283114017490468,8.0,89.0,0.0
R,U,"[3, 9]",1.0,10.0,0.3788788318634033,2.203850030899048,0.7316763869745874,8.0,90.0,0.0
,,"(6, 6)",,,,,,,,
R,U,"[5, 6]",1.0,1.0,0.496157169342041,3.364076852798462,0.44608014271108853,9.0,91.0,0.0
Y,R,"[5, 7]",1.0,2.0,0.2417900562286377,1.9614038467407227,0.6073564311088606,9.0,92.0,0.0
Y,R,"[5, 8]",1.0,3.0,0.21508193016052246,1.85172700881958,0.5424524086299438,9.0,93.0,0.0
G,D,"[6, 8]",1.0,4.0,0.25675296783447266,1.7158970832824707,0.3587197653444462,9.0,94.0,0.0
Y,R,"[6, 9]",1.0,5.0,0.22036290168762207,2.035306930541992,0.7102277673278325,9.0,95.0,0.0
Y,R,"[6, 10]",1.0,6.0,0.1861109733581543,1.8539459705352783,0.5809950928082874,9.0,96.0,0.0
R,U,"[5, 10]",1.0,7.0,0.3064558506011963,1.7794768810272217,0.3607670099415809,9.0,97.0,0.0
R,U,"[4, 10]",1.0,8.0,0.27089405059814453,1.7782771587371826,0.4223198253591677,9.0,98.0,0.0
B,L,"[4, 9]",1.0,9.0,0.32950711250305176,1.7674381732940674,0.33988142175310876,9.0,99.0,0.0
R,U,"[3, 9]",1.0,10.0,0.25402188301086426,2.0307159423828125,0.6869658888035624,9.0,100.0,0.0
,,"(6, 6)",,,,,,,,
R,U,"[5, 6]",1.0,1.0,0.5511319637298584,6.040369033813477,0.6939729693296673,10.0,101.0,0.0
Y,R,"[5, 7]",1.0,2.0,0.22762203216552734,1.9845619201660156,0.6618414949081499,10.0,102.0,0.0
Y,R,"[5, 8]",1.0,3.0,0.2911059856414795,1.7070350646972656,0.3191209404408176,10.0,103.0,0.0
G,D,"[6, 8]",1.0,4.0,0.271651029586792,2.1306209564208984,0.7494570990360242,10.0,104.0,0.0
Y,R,"[6, 9]",1.0,5.0,0.23317790031433105,1.5839428901672363,0.2505500390124458,10.0,105.0,0.0
Y,R,"[6, 10]",1.0,6.0,0.35904502868652344,2.2066898345947266,0.740091042061604,10.0,106.0,0.0
R,U,"[5, 10]",1.0,7.0,0.2651660442352295,1.7064290046691895,0.3469290544033848,10.0,107.0,0.0
R,U,"[4, 10]",1.0,8.0,0.23670005798339844,1.895313024520874,0.5587434122240915,10.0,108.0,0.0
B,L,"[4, 9]",1.0,9.0,0.2585270404815674,1.749000072479248,0.39120990999654515,10.0,109.0,0.0
R,U,"[3, 9]",1.0,10.0,0.30228185653686523,2.1010570526123047,0.7086152581263097,10.0,110.0,0.0
,,"(6, 6)",,,,,,,,
R,U,"[5, 6]",1.0,1.0,0.4208850860595703,3.0716419219970703,0.3639586549883142,11.0,111.0,0.0
Y,R,"[5, 7]",1.0,2.0,0.27932095527648926,2.1033968925476074,0.7169659253385772,11.0,112.0,0.0
Y,R,"[5, 8]",1.0,3.0,0.3242619037628174,1.813279151916504,0.3803891753563111,11.0,113.0,0.0
G,D,"[6, 8]",1.0,4.0,0.33866000175476074,1.8686590194702148,0.41595792542872545,11.0,114.0,0.0
Y,R,"[6, 9]",1.0,5.0,0.33510518074035645,2.0988500118255615,0.6645382921948442,11.0,115.0,0.0
Y,R,"[6, 10]",1.0,6.0,0.36605000495910645,1.743786096572876,0.27544689331743993,11.0,116.0,0.0
R,U,"[5, 10]",1.0,7.0,0.3298158645629883,2.1499969959259033,0.7249851608197411,11.0,117.0,0.0
R,U,"[4, 10]",1.0,8.0,0.37681007385253906,1.9268949031829834,0.4521858176675935,11.0,118.0,0.0
B,L,"[4, 9]",1.0,9.0,0.2386031150817871,1.8144521713256836,0.4667011429838497,11.0,119.0,0.0
R,U,"[3, 9]",1.0,10.0,0.22493195533752441,1.9712600708007812,0.63774518693553,11.0,120.0,0.0
,,"(6, 6)",,,,,,,,
R,U,"[5, 6]",1.0,1.0,0.5146389007568359,3.7343239784240723,0.7387506850359622,12.0,121.0,0.0
Y,R,"[5, 7]",1.0,2.0,0.18218207359313965,1.5669479370117188,0.2894772623620501,12.0,122.0,0.0
Y,R,"[5, 8]",1.0,3.0,0.24150490760803223,1.7424240112304688,0.3982879922232623,12.0,123.0,0.0
G,D,"[6, 8]",1.0,4.0,0.2198469638824463,1.5785000324249268,0.2604396999222005,12.0,124.0,0.0
Y,R,"[6, 9]",1.0,5.0,0.320904016494751,1.8343651294708252,0.42803581686562714,12.0,125.0,0.0
Y,R,"[6, 10]",1.0,6.0,0.2277088165283203,2.0622000694274902,0.7399385996430088,12.0,126.0,0.0
R,U,"[5, 10]",1.0,7.0,0.18338799476623535,1.6137409210205078,0.3373396857243344,12.0,127.0,0.0
R,U,"[4, 10]",1.0,8.0,0.25319504737854004,1.8694369792938232,0.5066133242044086,12.0,128.0,0.0
B,L,"[4, 9]",1.0,9.0,0.2550489902496338,1.655691146850586,0.312450563248977,12.0,129.0,0.0
R,U,"[3, 9]",1.0,10.0,0.25815606117248535,2.0779049396514893,0.7233639827880092,12.0,130.0,0.0
,,"(6, 6)",,,,,,,,
Y,R,"[6, 7]",0.0,0.0,0.6810481548309326,3.482064962387085,0.27271088372091945,13.0,131.0,0.0
Y,R,"[6, 8]",1.0,1.0,0.5554540157318115,2.2453510761260986,0.5842275101578716,13.0,132.0,0.0
Y,R,"[6, 9]",1.0,2.0,0.2855191230773926,2.0694310665130615,0.68699730341062,13.0,133.0,0.0
G,D,"[7, 9]",0.0,2.0,0.29850101470947266,1.9832870960235596,0.5869627858530289,13.0,134.0,0.0
Y,R,"[7, 10]",0.0,2.0,0.21836304664611816,1.6423230171203613,0.329617287309997,13.0,135.0,0.0
Y,R,"[7, 11]",0.0,2.0,0.21861910820007324,1.5715279579162598,0.2512316932678845,13.0,136.0,0.0
R,U,"[6, 11]",0.0,2.0,0.2520928382873535,1.944713830947876,0.5956549877316085,13.0,137.0,0.0
R,U,"[5, 11]",0.0,2.0,0.22170782089233398,1.7651820182800293,0.4442027850557163,13.0,138.0,0.0
B,L,"[5, 10]",1.0,3.0,0.23178601264953613,1.6828200817108154,0.36056252084711443,13.0,139.0,0.0
R,U,"[4, 10]",1.0,4.0,0.1990070343017578,1.6991660594940186,0.40965574204785615,13.0,140.0,0.0
,,"(6, 6)",,,,,,,,
R,U,"[5, 6]",1.0,1.0,0.6005051136016846,3.5454351902008057,0.5882429060551355,14.0,141.0,0.0
Y,R,"[5, 7]",1.0,2.0,0.2281780242919922,1.5910799503326416,0.2630043784232985,14.0,142.0,0.0
Y,R,"[5, 8]",1.0,3.0,0.2522130012512207,1.837838888168335,0.4840633179369809,14.0,143.0,0.0
G,D,"[6, 8]",1.0,4.0,0.2340860366821289,2.0587048530578613,0.7258593272264647,14.0,144.0,0.0
Y,R,"[6, 9]",1.0,5.0,0.19653105735778809,1.6488678455352783,0.35837327404122404,14.0,145.0,0.0
Y,R,"[6, 10]",1.0,6.0,0.2322378158569336,2.070901870727539,0.7454914530907772,14.0,146.0,0.0
R,U,"[5, 10]",1.0,7.0,0.18741106986999512,1.9760868549346924,0.6883621830865453,14.0,147.0,0.0
R,U,"[4, 10]",1.0,8.0,0.2503640651702881,2.025444984436035,0.680583359626871,14.0,148.0,0.0
B,L,"[4, 9]",1.0,9.0,0.26882410049438477,2.1117780208587646,0.7422622437728359,14.0,149.0,0.0
R,U,"[3, 9]",1.0,10.0,0.2348489761352539,1.9667580127716064,0.6424499353892986,14.0,150.0,0.0
,,"(6, 6)",,,,,,,,
R,U,"[5, 6]",1.0,1.0,0.6644999980926514,4.474516868591309,0.7170684270630873,15.0,151.0,0.0
Y,R,"[5, 7]",1.0,2.0,0.24519586563110352,1.7373268604278564,0.3880262173517652,15.0,152.0,0.0
Y,R,"[5, 8]",1.0,3.0,0.24930787086486816,1.8112900257110596,0.46590618745214596,15.0,153.0,0.0
G,D,"[6, 8]",1.0,4.0,0.3002028465270996,1.8498589992523193,0.4490185151343422,15.0,154.0,0.0
Y,R,"[6, 9]",1.0,5.0,0.22335004806518555,1.7958040237426758,0.4615891922240966,15.0,155.0,0.0
Y,R,"[6, 10]",1.0,6.0,0.22795891761779785,2.0337259769439697,0.7116715700437615,15.0,156.0,0.0
R,U,"[5, 10]",1.0,7.0,0.22881412506103516,1.7954440116882324,0.4740912993761356,15.0,157.0,0.0
R,U,"[4, 10]",1.0,8.0,0.2399308681488037,1.953718900680542,0.6110025482001511,15.0,158.0,0.0
B,L,"[4, 9]",1.0,9.0,0.2549581527709961,1.9671800136566162,0.6114902228888768,15.0,159.0,0.0
R,U,"[3, 9]",1.0,10.0,0.2845578193664551,1.8186259269714355,0.4471325266426208,15.0,160.0,0.0
,,"(6, 6)",,,,,,,,
R,U,"[5, 6]",1.0,1.0,0.5366001129150391,3.5244579315185547,0.6380913022360536,16.0,161.0,0.0
Y,R,"[5, 7]",1.0,2.0,0.31156492233276367,2.0064051151275635,0.5944387139268498,16.0,162.0,0.0
Y,R,"[5, 8]",1.0,3.0,0.28005504608154297,1.7663800716400146,0.3943179100490384,16.0,163.0,0.0
G,D,"[6, 8]",1.0,4.0,0.25311279296875,1.9044830799102783,0.5652731304909624,16.0,164.0,0.0
Y,R,"[6, 9]",1.0,5.0,0.276461124420166,1.9888429641723633,0.6041726223014126,16.0,165.0,0.0
Y,R,"[6, 10]",1.0,6.0,0.2796018123626709,1.718261957168579,0.33938542672443556,16.0,166.0,0.0
R,U,"[5, 10]",1.0,7.0,0.2925288677215576,1.6725399494171143,0.27872236669599026,16.0,167.0,0.0
R,U,"[4, 10]",1.0,8.0,0.2689549922943115,1.8348569869995117,0.4800765415300512,16.0,168.0,0.0
B,L,"[4, 9]",1.0,9.0,0.1939840316772461,1.9981579780578613,0.694747328462364,16.0,169.0,0.0
R,U,"[3, 9]",1.0,10.0,0.23192191123962402,1.736685037612915,0.41493059668254495,16.0,170.0,0.0
,,"(6, 6)",,,,,,,,
R,U,"[5, 6]",1.0,1.0,0.4865751266479492,3.425187826156616,0.30696046352118983,17.0,171.0,0.0
Y,R,"[5, 7]",1.0,2.0,0.2683441638946533,1.984212875366211,0.6241381959297023,17.0,172.0,0.0
Y,R,"[5, 8]",1.0,3.0,0.19500494003295898,1.6343839168548584,0.34227727182616025,17.0,173.0,0.0
G,D,"[6, 8]",1.0,4.0,0.29668307304382324,2.0938339233398438,0.7021741771612129,17.0,174.0,0.0
Y,R,"[6, 9]",1.0,5.0,0.19823598861694336,1.9647071361541748,0.6670832279243818,17.0,175.0,0.0
Y,R,"[6, 10]",1.0,6.0,0.18447303771972656,1.5925629138946533,0.3100320869617599,17.0,176.0,0.0
R,U,"[5, 10]",1.0,7.0,0.3538658618927002,2.1134469509124756,0.6732226464930011,17.0,177.0,0.0
R,U,"[4, 10]",1.0,8.0,0.24631404876708984,1.8603618144989014,0.517069409714413,17.0,178.0,0.0
B,L,"[4, 9]",1.0,9.0,0.2786409854888916,1.890084981918335,0.5070800469070721,17.0,179.0,0.0
R,U,"[3, 9]",1.0,10.0,0.2408428192138672,1.9625229835510254,0.619501111693217,17.0,180.0,0.0
,,"(6, 6)",,,,,,,,
R,U,"[5, 6]",1.0,1.0,0.3877410888671875,4.56123685836792,0.5975409177926705,18.0,181.0,0.0
Y,R,"[5, 7]",1.0,2.0,0.20536088943481445,1.9808299541473389,0.661599315485879,18.0,182.0,0.0
Y,R,"[5, 8]",1.0,3.0,0.1798398494720459,1.918328046798706,0.6465949252092817,18.0,183.0,0.0
G,D,"[6, 8]",1.0,4.0,0.23155713081359863,1.9087438583374023,0.5721231684835972,18.0,184.0,0.0
Y,R,"[6, 9]",1.0,5.0,0.2044239044189453,1.619370937347412,0.3251020336210029,18.0,185.0,0.0
Y,R,"[6, 10]",1.0,6.0,0.22815895080566406,1.8681869506835938,0.5431148355193921,18.0,186.0,0.0
R,U,"[5, 10]",1.0,7.0,0.2275991439819336,1.5991060733795166,0.2759215839902026,18.0,187.0,0.0
R,U,"[4, 10]",1.0,8.0,0.2845311164855957,1.6262447834014893,0.2521264308926624,18.0,188.0,0.0
B,L,"[4, 9]",1.0,9.0,0.2851729393005371,1.969407081604004,0.5879331539508001,18.0,189.0,0.0
R,U,"[3, 9]",1.0,10.0,0.19990181922912598,1.7243599891662598,0.42915415994998257,18.0,190.0,0.0
,,"(6, 6)",,,,,,,,
R,U,"[5, 6]",1.0,1.0,0.34683680534362793,2.9285390377044678,0.35765131548746126,19.0,191.0,0.0
Y,R,"[5, 7]",1.0,2.0,0.21660494804382324,2.050205945968628,0.7408459691110936,19.0,192.0,0.0
Y,R,"[5, 8]",1.0,3.0,0.16263294219970703,1.969761848449707,0.7106107581921619,19.0,193.0,0.0
G,D,"[6, 8]",1.0,4.0,0.19250893592834473,1.82240891456604,0.533393856734917,19.0,194.0,0.0
Y,R,"[6, 9]",1.0,5.0,0.24594807624816895,1.7619848251342773,0.4120824664333378,19.0,195.0,0.0
Y,R,"[6, 10]",1.0,6.0,0.29505395889282227,2.12890887260437,0.7406650850768339,19.0,196.0,0.0
R,U,"[5, 10]",1.0,7.0,0.29357290267944336,1.7328789234161377,0.34068647680033876,19.0,197.0,0.0
R,U,"[4, 10]",1.0,8.0,0.22431588172912598,1.6045770645141602,0.27869546802295303,19.0,198.0,0.0
B,L,"[4, 9]",1.0,9.0,0.29839181900024414,1.6817619800567627,0.29375376606812387,19.0,199.0,0.0
R,U,"[3, 9]",1.0,10.0,0.2755560874938965,1.753403902053833,0.3804112756812755,19.0,200.0,0.0
,,"(6, 6)",,,,,,,,
R,U,"[5, 6]",1.0,1.0,0.36469388008117676,3.861396074295044,0.6083022810794398,20.0,201.0,0.0
Y,R,"[5, 7]",1.0,2.0,0.18510818481445312,2.017138957977295,0.7419137690243727,20.0,202.0,0.0
Y,R,"[5, 8]",1.0,3.0,0.23116493225097656,1.5824871063232422,0.2583862873448938,20.0,203.0,0.0
G,D,"[6, 8]",1.0,4.0,0.2877359390258789,1.6954472064971924,0.30366853159311025,20.0,204.0,0.0
Y,R,"[6, 9]",1.0,5.0,0.24596691131591797,1.708862066268921,0.36260056691005216,20.0,205.0,0.0
Y,R,"[6, 10]",1.0,6.0,0.20697402954101562,1.7035560607910156,0.3993703958274251,20.0,206.0,0.0
R,U,"[5, 10]",1.0,7.0,0.2392139434814453,1.8352651596069336,0.4846131434924007,20.0,207.0,0.0
R,U,"[4, 10]",1.0,8.0,0.3619508743286133,1.9665579795837402,0.501199119193939,20.0,208.0,0.0
B,L,"[4, 9]",1.0,9.0,0.21053791046142578,1.858900785446167,0.5433697557850243,20.0,209.0,0.0
R,U,"[3, 9]",1.0,10.0,0.335629940032959,1.8867881298065186,0.46354407230659544,20.0,210.0,0.0
,,"(6, 6)",,,,,,,,
R,U,"[5, 6]",1.0,1.0,0.44837498664855957,5.140221118927002,0.5704545284777014,21.0,211.0,0.0
Y,R,"[5, 7]",1.0,2.0,0.22805500030517578,1.832442045211792,0.5028892801527942,21.0,212.0,0.0
Y,R,"[5, 8]",1.0,3.0,0.2160191535949707,2.044138193130493,0.7300982725601772,21.0,213.0,0.0
G,D,"[6, 8]",1.0,4.0,0.27625203132629395,1.8502020835876465,0.4640796638818134,21.0,214.0,0.0
Y,R,"[6, 9]",1.0,5.0,0.21628689765930176,1.8077468872070312,0.48837797619039974,21.0,215.0,0.0
Y,R,"[6, 10]",1.0,6.0,0.21331381797790527,1.663316011428833,0.3518705591470993,21.0,216.0,0.0
R,U,"[5, 10]",1.0,7.0,0.2936680316925049,1.9816858768463135,0.5834529587070026,21.0,217.0,0.0
R,U,"[4, 10]",1.0,8.0,0.29530787467956543,1.6532199382781982,0.25358995406970664,21.0,218.0,0.0
B,L,"[4, 9]",1.0,9.0,0.27544283866882324,1.6829049587249756,0.30321726466986804,21.0,219.0,0.0
R,U,"[3, 9]",1.0,10.0,0.23928284645080566,1.9729700088500977,0.6258541814418821,21.0,220.0,0.0
,,"(6, 6)",,,,,,,,
R,U,"[5, 6]",1.0,1.0,0.39475512504577637,2.939857006072998,0.5492223464145443,22.0,221.0,0.0
Y,R,"[5, 7]",1.0,2.0,0.22962403297424316,1.6287188529968262,0.29473300497827837,22.0,222.0,0.0
Y,R,"[5, 8]",1.0,3.0,0.2469630241394043,1.7856478691101074,0.44691996622072755,22.0,223.0,0.0
G,D,"[6, 8]",1.0,4.0,0.217087984085083,1.9851930141448975,0.6651689331921945,22.0,224.0,0.0
Y,R,"[6, 9]",1.0,5.0,0.21705007553100586,1.7992300987243652,0.4813298809361897,22.0,225.0,0.0
Y,R,"[6, 10]",1.0,6.0,0.2018578052520752,1.5845661163330078,0.2828830584202973,22.0,226.0,0.0
R,U,"[5, 10]",1.0,7.0,0.22053885459899902,1.7156200408935547,0.38163482430178935,22.0,227.0,0.0
R,U,"[4, 10]",1.0,8.0,0.22290802001953125,1.9915649890899658,0.6562975165045155,22.0,228.0,0.0
B,L,"[4, 9]",1.0,9.0,0.2200021743774414,2.0600929260253906,0.7496257582671031,22.0,229.0,0.0
R,U,"[3, 9]",1.0,10.0,0.2323470115661621,2.0429210662841797,0.7092582722345415,22.0,230.0,0.0
,,"(6, 6)",,,,,,,,
R,U,"[5, 6]",1.0,1.0,0.46898603439331055,4.880223989486694,0.6729451954805363,23.0,231.0,0.0
Y,R,"[5, 7]",1.0,2.0,0.23752689361572266,2.006075859069824,0.678888531558684,23.0,232.0,0.0
Y,R,"[5, 8]",1.0,3.0,0.39015793800354004,1.8875999450683594,0.3836372573857033,23.0,233.0,0.0
G,D,"[6, 8]",1.0,4.0,0.276806116104126,1.8898530006408691,0.5067079079442158,23.0,234.0,0.0
Y,R,"[6, 9]",1.0,5.0,0.32753801345825195,1.9904508590698242,0.5636269030934187,23.0,235.0,0.0
Y,R,"[6, 10]",1.0,6.0,0.32559800148010254,2.0055840015411377,0.5694286434074485,23.0,236.0,0.0
R,U,"[5, 10]",1.0,7.0,0.3060610294342041,1.9525530338287354,0.5385829196003723,23.0,237.0,0.0
R,U,"[4, 10]",1.0,8.0,0.23189592361450195,1.8690338134765625,0.5408559852192527,23.0,238.0,0.0
B,L,"[4, 9]",1.0,9.0,0.2640969753265381,1.9451539516448975,0.5861724722077233,23.0,239.0,0.0
R,U,"[3, 9]",1.0,10.0,0.25841188430786133,2.001084089279175,0.6371693316534588,23.0,240.0,0.0
,,"(6, 6)",,,,,,,,
R,U,"[5, 6]",1.0,1.0,0.5429630279541016,3.981874942779541,0.6024738967165404,24.0,241.0,0.0
Y,R,"[5, 7]",1.0,2.0,0.25842785835266113,1.7895820140838623,0.42560069817431007,24.0,242.0,0.0
Y,R,"[5, 8]",1.0,3.0,0.21307897567749023,1.82259202003479,0.5148259551575852,24.0,243.0,0.0
G,D,"[6, 8]",1.0,4.0,0.21663308143615723,1.8733270168304443,0.5547541880137068,24.0,244.0,0.0
Y,R,"[6, 9]",1.0,5.0,0.26526880264282227,1.912118911743164,0.5502828938546198,24.0,245.0,0.0
Y,R,"[6, 10]",1.0,6.0,0.2103562355041504,1.7443010807037354,0.427976057419914,24.0,246.0,0.0
R,U,"[5, 10]",1.0,7.0,0.2610280513763428,2.0169551372528076,0.6613796345613595,24.0,247.0,0.0
R,U,"[4, 10]",1.0,8.0,0.30846285820007324,2.0703840255737305,0.6650824717864043,24.0,248.0,0.0
B,L,"[4, 9]",1.0,9.0,0.25115299224853516,1.8053138256072998,0.45378287129373807,24.0,249.0,0.0
R,U,"[3, 9]",1.0,10.0,0.26384496688842773,2.0952048301696777,0.732288969595863,24.0,250.0,0.0
,,"(6, 6)",,,,,,,,
R,U,"[5, 6]",1.0,1.0,0.5491881370544434,3.678317070007324,0.410982191743289,25.0,251.0,0.0
Y,R,"[5, 7]",1.0,2.0,0.2189500331878662,1.8470070362091064,0.5411721902854831,25.0,252.0,0.0
Y,R,"[5, 8]",1.0,3.0,0.2888069152832031,1.6498029232025146,0.25798930830002936,25.0,253.0,0.0
G,D,"[6, 8]",1.0,4.0,0.34504103660583496,2.0625500679016113,0.6202099941591435,25.0,254.0,0.0
Y,R,"[6, 9]",1.0,5.0,0.2221369743347168,1.7052149772644043,0.3756489071452055,25.0,255.0,0.0
Y,R,"[6, 10]",1.0,6.0,0.24130511283874512,2.007533073425293,0.6661178012307891,25.0,256.0,0.0
R,U,"[5, 10]",1.0,7.0,0.1709151268005371,2.0213069915771484,0.7374733526356201,25.0,257.0,0.0
R,U,"[4, 10]",1.0,8.0,0.23950505256652832,1.9155879020690918,0.5699143052696751,25.0,258.0,0.0
B,L,"[4, 9]",1.0,9.0,0.23241901397705078,1.8053269386291504,0.47541416944237797,25.0,259.0,0.0
R,U,"[3, 9]",1.0,10.0,0.2545740604400635,1.9724280834197998,0.6310382035632857,25.0,260.0,0.0
,,"(6, 6)",,,,,,,,
R,U,"[5, 6]",1.0,1.0,0.5266978740692139,3.301603078842163,0.39963679928083096,26.0,261.0,0.0
Y,R,"[5, 7]",1.0,2.0,0.20440316200256348,1.997661828994751,0.6969345902705582,26.0,262.0,0.0
Y,R,"[5, 8]",1.0,3.0,0.2564830780029297,2.04070782661438,0.6709968797506664,26.0,263.0,0.0
G,D,"[6, 8]",1.0,4.0,0.24185991287231445,1.8331220149993896,0.4877154804357349,26.0,264.0,0.0
Y,R,"[6, 9]",1.0,5.0,0.19151592254638672,1.763970136642456,0.4683996489012155,26.0,265.0,0.0
Y,R,"[6, 10]",1.0,6.0,0.22458195686340332,1.6140611171722412,0.2826248500983155,26.0,266.0,0.0
R,U,"[5, 10]",1.0,7.0,0.30489087104797363,2.137190103530884,0.7194945404921014,26.0,267.0,0.0
R,U,"[4, 10]",1.0,8.0,0.23872900009155273,1.6954829692840576,0.3487019127931553,26.0,268.0,0.0
B,L,"[4, 9]",1.0,9.0,0.31364011764526367,1.880267858505249,0.4621279125869432,26.0,269.0,0.0
R,U,"[3, 9]",1.0,10.0,0.24989581108093262,1.9863698482513428,0.6483788131786496,26.0,270.0,0.0
,,"(6, 6)",,,,,,,,
R,U,"[5, 6]",1.0,1.0,0.39041805267333984,2.911247968673706,0.6097573341203755,27.0,271.0,0.0
Y,R,"[5, 7]",1.0,2.0,0.23107290267944336,1.7796499729156494,0.45624473363126067,27.0,272.0,0.0
Y,R,"[5, 8]",1.0,3.0,0.1898949146270752,1.978571891784668,0.6846169041356158,27.0,273.0,0.0
G,D,"[6, 8]",1.0,4.0,0.21358299255371094,1.637253999710083,0.32226609044594856,27.0,274.0,0.0
Y,R,"[6, 9]",1.0,5.0,0.22239995002746582,1.7757151126861572,0.44767904245390766,27.0,275.0,0.0
Y,R,"[6, 10]",1.0,6.0,0.19898700714111328,1.5925209522247314,0.29040340569030737,27.0,276.0,0.0
R,U,"[5, 10]",1.0,7.0,0.26735401153564453,2.015887975692749,0.6560157288219675,27.0,277.0,0.0
R,U,"[4, 10]",1.0,8.0,0.21411585807800293,1.7863941192626953,0.4760221243830723,27.0,278.0,0.0
B,L,"[4, 9]",1.0,9.0,0.2839670181274414,1.9082889556884766,0.5342439971447467,27.0,279.0,0.0
R,U,"[3, 9]",1.0,10.0,0.2314438819885254,1.9072418212890625,0.574826828441879,27.0,280.0,0.0
,,"(6, 6)",,,,,,,,
R,U,"[5, 6]",1.0,1.0,0.45319104194641113,3.430850028991699,0.35581831405551506,28.0,281.0,0.0
Y,R,"[5, 7]",1.0,2.0,0.3030669689178467,2.055040121078491,0.6605746613419847,28.0,282.0,0.0
Y,R,"[5, 8]",1.0,3.0,0.2665290832519531,1.9701189994812012,0.614173787483481,28.0,283.0,0.0
G,D,"[6, 8]",1.0,4.0,0.2240281105041504,1.5894219875335693,0.25387145492729163,28.0,284.0,0.0
Y,R,"[6, 9]",1.0,5.0,0.2533740997314453,1.7967150211334229,0.45051952716290805,28.0,285.0,0.0
Y,R,"[6, 10]",1.0,6.0,0.2135310173034668,1.7595429420471191,0.44332645897958667,28.0,286.0,0.0
R,U,"[5, 10]",1.0,7.0,0.24156999588012695,1.7634859085083008,0.4234651570349915,28.0,287.0,0.0
R,U,"[4, 10]",1.0,8.0,0.2371811866760254,1.9821770191192627,0.6387966620762375,28.0,288.0,0.0
B,L,"[4, 9]",1.0,9.0,0.2297041416168213,1.9421188831329346,0.6143354657128016,28.0,289.0,0.0
R,U,"[3, 9]",1.0,10.0,0.24076485633850098,1.9090561866760254,0.5567282065077077,28.0,290.0,0.0
,,"(6, 6)",,,,,,,,
R,U,"[5, 6]",1.0,1.0,0.44350600242614746,3.159234046936035,0.5164367239752446,29.0,291.0,0.0
Y,R,"[5, 7]",1.0,2.0,0.22076106071472168,1.6218822002410889,0.3050537908493223,29.0,292.0,0.0
Y,R,"[5, 8]",1.0,3.0,0.23106598854064941,1.7595970630645752,0.4309568806767135,29.0,293.0,0.0
G,D,"[6, 8]",1.0,4.0,0.25516200065612793,2.1149139404296875,0.7456315935684155,29.0,294.0,0.0
Y,R,"[6, 9]",1.0,5.0,0.26057004928588867,1.7167479991912842,0.3462470178606682,29.0,295.0,0.0
Y,R,"[6, 10]",1.0,6.0,0.24894213676452637,2.0009210109710693,0.6468046308761326,29.0,296.0,0.0
R,U,"[5, 10]",1.0,7.0,0.27797603607177734,1.7238249778747559,0.3376983230148942,29.0,297.0,0.0
R,U,"[4, 10]",1.0,8.0,0.25411391258239746,1.9881720542907715,0.6422878812869213,29.0,298.0,0.0
B,L,"[4, 9]",1.0,9.0,0.23730206489562988,1.6767008304595947,0.3525411748892132,29.0,299.0,0.0
R,U,"[3, 9]",1.0,10.0,0.20205903053283691,1.7007198333740234,0.4032413481964486,29.0,300.0,0.0
,,"(6, 6)",,,,,,,,
R,U,"[5, 6]",1.0,1.0,0.35471510887145996,3.3344638347625732,0.3878428264974605,30.0,301.0,0.0
Y,R,"[5, 7]",1.0,2.0,0.2503471374511719,2.0608599185943604,0.7150729788074566,30.0,302.0,0.0
Y,R,"[5, 8]",1.0,3.0,0.2582371234893799,1.8906550407409668,0.5224215767970697,30.0,303.0,0.0
G,D,"[6, 8]",1.0,4.0,0.22582101821899414,1.9472460746765137,0.6195971568889418,30.0,304.0,0.0
Y,R,"[6, 9]",1.0,5.0,0.20298194885253906,1.7559521198272705,0.4592134000479585,30.0,305.0,0.0
Y,R,"[6, 10]",1.0,6.0,0.21312999725341797,1.5730938911437988,0.26588948194205003,30.0,306.0,0.0
R,U,"[5, 10]",1.0,7.0,0.3139040470123291,1.976733922958374,0.5588729285597249,30.0,307.0,0.0
R,U,"[4, 10]",1.0,8.0,0.20627903938293457,2.015801191329956,0.7078357683461914,30.0,308.0,0.0
B,L,"[4, 9]",1.0,9.0,0.27773404121398926,1.7880198955535889,0.4130036214506308,30.0,309.0,0.0
R,U,"[3, 9]",1.0,10.0,0.2856600284576416,1.9230749607086182,0.5358170704736969,30.0,310.0,0.0
,,"(6, 6)",,,,,,,,
R,U,"[5, 6]",1.0,1.0,0.4191749095916748,10.892166137695312,0.3116986596899713,31.0,311.0,0.0
Y,R,"[5, 7]",1.0,2.0,0.23891901969909668,1.7657201290130615,0.42741898346990453,31.0,312.0,0.0
Y,R,"[5, 8]",1.0,3.0,0.21234798431396484,1.5590219497680664,0.25323876070118584,31.0,313.0,0.0
G,D,"[6, 8]",1.0,4.0,0.22596192359924316,1.7619309425354004,0.4316113209474577,31.0,314.0,0.0
Y,R,"[6, 9]",1.0,5.0,0.3960881233215332,1.9753568172454834,0.47355289928450056,31.0,315.0,0.0
Y,R,"[6, 10]",1.0,6.0,0.2285311222076416,2.0551459789276123,0.728635977604005,31.0,316.0,0.0
R,U,"[5, 10]",1.0,7.0,0.21860313415527344,1.9541380405426025,0.6495133204080034,31.0,317.0,0.0
R,U,"[4, 10]",1.0,8.0,0.254457950592041,1.78273606300354,0.4157920875160594,31.0,318.0,0.0
B,L,"[4, 9]",1.0,9.0,0.226668119430542,1.7262649536132812,0.39202061931786253,31.0,319.0,0.0
R,U,"[3, 9]",1.0,10.0,0.25508904457092285,1.601621150970459,0.2606862516679204,31.0,320.0,0.0
,,"(6, 6)",,,,,,,,
R,U,"[5, 6]",1.0,1.0,0.35770297050476074,3.5316309928894043,0.7252213731030561,32.0,321.0,0.0
Y,R,"[5, 7]",1.0,2.0,0.22604894638061523,1.6410768032073975,0.3166935517643628,32.0,322.0,0.0
Y,R,"[5, 8]",1.0,3.0,0.2510111331939697,1.6452140808105469,0.29515888679200525,32.0,323.0,0.0
G,D,"[6, 8]",1.0,4.0,0.27181196212768555,2.1145389080047607,0.7425911388094126,32.0,324.0,0.0
Y,R,"[6, 9]",1.0,5.0,0.23516297340393066,1.5919620990753174,0.26851453248680207,32.0,325.0,0.0
Y,R,"[6, 10]",1.0,6.0,0.24627017974853516,1.789175033569336,0.4408837619424617,32.0,326.0,0.0
R,U,"[5, 10]",1.0,7.0,0.30501699447631836,2.058581829071045,0.6490836935766917,32.0,327.0,0.0
R,U,"[4, 10]",1.0,8.0,0.31720805168151855,1.9658548831939697,0.54855106432866,32.0,328.0,0.0
B,L,"[4, 9]",1.0,9.0,0.2571709156036377,2.0606749057769775,0.6924304081475823,32.0,329.0,0.0
R,U,"[3, 9]",1.0,10.0,0.3167450428009033,2.1097910404205322,0.702291535553581,32.0,330.0,0.0
,,"(6, 6)",,,,,,,,
R,U,"[5, 6]",1.0,1.0,0.36414194107055664,3.0643739700317383,0.5001263392996071,33.0,331.0,0.0
Y,R,"[5, 7]",1.0,2.0,0.3376309871673584,2.1681370735168457,0.7347175662223132,33.0,332.0,0.0
Y,R,"[5, 8]",1.0,3.0,0.2520780563354492,1.9468390941619873,0.5984746354146835,33.0,333.0,0.0
G,D,"[6, 8]",1.0,4.0,0.33825087547302246,2.0721471309661865,0.6038786007554436,33.0,334.0,0.0
Y,R,"[6, 9]",1.0,5.0,0.25317811965942383,1.653597116470337,0.30789228870859764,33.0,335.0,0.0
Y,R,"[6, 10]",1.0,6.0,0.2876870632171631,1.8701889514923096,0.47791160284061696,33.0,336.0,0.0
R,U,"[5, 10]",1.0,7.0,0.3560910224914551,1.8038499355316162,0.3485817259079509,33.0,337.0,0.0
R,U,"[4, 10]",1.0,8.0,0.2913498878479004,1.8789482116699219,0.4773323186176894,33.0,338.0,0.0
B,L,"[4, 9]",1.0,9.0,0.21112394332885742,1.564669132232666,0.2589385742311943,33.0,339.0,0.0
R,U,"[3, 9]",1.0,10.0,0.28011512756347656,1.8496489524841309,0.4750525499543488,33.0,340.0,0.0
,,"(6, 6)",,,,,,,,
R,U,"[5, 6]",1.0,1.0,0.44084811210632324,3.2265589237213135,0.3184448764774648,34.0,341.0,0.0
Y,R,"[5, 7]",1.0,2.0,0.3329808712005615,1.9949629306793213,0.5631283832041277,34.0,342.0,0.0
Y,R,"[5, 8]",1.0,3.0,0.20890593528747559,1.9937081336975098,0.673469531120704,34.0,343.0,0.0
G,D,"[6, 8]",1.0,4.0,0.24765992164611816,1.9593009948730469,0.6163131945168636,34.0,344.0,0.0
Y,R,"[6, 9]",1.0,5.0,0.2201690673828125,1.7410800457000732,0.4241141197789675,34.0,345.0,0.0
Y,R,"[6, 10]",1.0,6.0,0.21690082550048828,1.609593152999878,0.3006469465777092,34.0,346.0,0.0
R,U,"[5, 10]",1.0,7.0,0.2754828929901123,1.6923770904541016,0.30973779169347965,34.0,347.0,0.0
R,U,"[4, 10]",1.0,8.0,0.25519800186157227,2.046128988265991,0.7053349954605357,34.0,348.0,0.0
B,L,"[4, 9]",1.0,9.0,0.24823498725891113,2.0888400077819824,0.7441213516960583,34.0,349.0,0.0
R,U,"[3, 9]",1.0,10.0,0.24277997016906738,2.003851890563965,0.6648559198759618,34.0,350.0,0.0
,,"(6, 6)",,,,,,,,
R,U,"[5, 6]",1.0,1.0,0.3555920124053955,2.8319737911224365,0.36381225596285205,35.0,351.0,0.0
Y,R,"[5, 7]",1.0,2.0,0.25013184547424316,2.0483601093292236,0.6950214268233759,35.0,352.0,0.0
Y,R,"[5, 8]",1.0,3.0,0.21378111839294434,1.9105238914489746,0.605884947747301,35.0,353.0,0.0
G,D,"[6, 8]",1.0,4.0,0.23210883140563965,1.8321681022644043,0.5047960968618908,35.0,354.0,0.0
Y,R,"[6, 9]",1.0,5.0,0.2241220474243164,1.8905460834503174,0.5620713362467296,35.0,355.0,0.0
Y,R,"[6, 10]",1.0,6.0,0.21668100357055664,1.919517993927002,0.6147064506966435,35.0,356.0,0.0
R,U,"[5, 10]",1.0,7.0,0.22239303588867188,1.6081318855285645,0.2898999505599275,35.0,357.0,0.0
R,U,"[4, 10]",1.0,8.0,0.23174095153808594,1.68992018699646,0.3631160416910991,35.0,358.0,0.0
B,L,"[4, 9]",1.0,9.0,0.28448987007141113,1.6389479637145996,0.2522113902254214,35.0,359.0,0.0
R,U,"[3, 9]",1.0,10.0,0.2731201648712158,1.8666729927062988,0.4853020198134836,35.0,360.0,0.0
,,"(6, 6)",,,,,,,,
R,U,"[5, 6]",1.0,1.0,0.35013699531555176,3.425089120864868,0.660425885629662,36.0,361.0,0.0
Y,R,"[5, 7]",1.0,2.0,0.21596217155456543,1.661818027496338,0.35580697710673503,36.0,362.0,0.0
Y,R,"[5, 8]",1.0,3.0,0.21345305442810059,1.651172161102295,0.34035868025888233,36.0,363.0,0.0
G,D,"[6, 8]",1.0,4.0,0.26639580726623535,1.8163180351257324,0.4565065835272336,36.0,364.0,0.0
Y,R,"[6, 9]",1.0,5.0,0.19692683219909668,1.6060688495635986,0.31279679380585257,36.0,365.0,0.0
Y,R,"[6, 10]",1.0,6.0,0.19515395164489746,1.757215976715088,0.4531023169031249,36.0,366.0,0.0
R,U,"[5, 10]",-1.0,6.0,0.028527021408081055,5.457432985305786,0.2942558890226758,36.0,367.0,0.0
R,U,"[4, 10]",1.0,7.0,0.504425048828125,1.8741071224212646,0.26817835727852596,36.0,368.0,0.0
B,L,"[4, 9]",1.0,8.0,0.2812039852142334,1.736039161682129,0.35430771827676344,36.0,369.0,0.0
R,U,"[3, 9]",1.0,9.0,0.287539005279541,1.9246389865875244,0.5452890315891198,36.0,370.0,0.0
,,"(6, 6)",,,,,,,,
R,U,"[5, 6]",1.0,1.0,0.39314913749694824,3.6063499450683594,0.5018659867417383,37.0,371.0,0.0
Y,R,"[5, 7]",1.0,2.0,0.26174092292785645,1.8323798179626465,0.46762079205096674,37.0,372.0,0.0
Y,R,"[5, 8]",1.0,3.0,0.2935600280761719,1.6666698455810547,0.26791544690687885,37.0,373.0,0.0
G,D,"[6, 8]",1.0,4.0,0.3028578758239746,1.6575219631195068,0.2587334297603766,37.0,374.0,0.0
Y,R,"[6, 9]",1.0,5.0,0.33127784729003906,1.9492831230163574,0.5244353160627226,37.0,375.0,0.0
Y,R,"[6, 10]",1.0,6.0,0.2729320526123047,1.9264230728149414,0.5508999836802864,37.0,376.0,0.0
R,U,"[5, 10]",1.0,7.0,0.3038361072540283,1.8992600440979004,0.5002670514928421,37.0,377.0,0.0
R,U,"[4, 10]",1.0,8.0,0.3007540702819824,2.024521827697754,0.6245820739934997,37.0,378.0,0.0
B,L,"[4, 9]",1.0,9.0,0.37236499786376953,2.1518399715423584,0.6763881000953553,37.0,379.0,0.0
R,U,"[3, 9]",1.0,10.0,0.2492828369140625,1.7663249969482422,0.4263779219688327,37.0,380.0,0.0
,,"(6, 6)",,,,,,,,
R,U,"[5, 6]",1.0,1.0,0.41202211380004883,4.052231073379517,0.345335171961645,38.0,381.0,0.0
Y,R,"[5, 7]",1.0,2.0,0.2647578716278076,2.0836310386657715,0.7286861282364563,38.0,382.0,0.0
Y,R,"[5, 8]",1.0,3.0,0.2647550106048584,1.756209135055542,0.4018533055005583,38.0,383.0,0.0
G,D,"[6, 8]",1.0,4.0,0.32209300994873047,2.154344081878662,0.7225532049552916,38.0,384.0,0.0
Y,R,"[6, 9]",1.0,5.0,0.18507695198059082,1.5569610595703125,0.2801210562953766,38.0,385.0,0.0
Y,R,"[6, 10]",1.0,6.0,0.3083631992340088,1.7209460735321045,0.30111542198510965,38.0,386.0,0.0
R,U,"[5, 10]",1.0,7.0,0.36591601371765137,2.1634111404418945,0.6972799185389182,38.0,387.0,0.0
R,U,"[4, 10]",1.0,8.0,0.23053312301635742,1.591689109802246,0.256144209738924,38.0,388.0,0.0
B,L,"[4, 9]",1.0,9.0,0.3000009059906006,2.008352041244507,0.6141602707201443,38.0,389.0,0.0
R,U,"[3, 9]",1.0,10.0,0.28743410110473633,1.9273240566253662,0.5417005396416175,38.0,390.0,0.0
,,"(6, 6)",,,,,,,,
R,U,"[5, 6]",1.0,1.0,0.4398329257965088,3.6250240802764893,0.5998368800701668,39.0,391.0,0.0
Y,R,"[5, 7]",1.0,2.0,0.26155686378479004,2.0763490200042725,0.7094573871692127,39.0,392.0,0.0
Y,R,"[5, 8]",1.0,3.0,0.20294189453125,1.7250800132751465,0.435029148771503,39.0,393.0,0.0
G,D,"[6, 8]",1.0,4.0,0.20068883895874023,1.761559009552002,0.4631486893069357,39.0,394.0,0.0
Y,R,"[6, 9]",1.0,5.0,0.21244406700134277,1.7205820083618164,0.4004135306987155,39.0,395.0,0.0
Y,R,"[6, 10]",1.0,6.0,0.24036598205566406,2.0337400436401367,0.6840170652862148,39.0,396.0,0.0
R,U,"[5, 10]",1.0,7.0,0.2222459316253662,1.7053661346435547,0.37290419568652505,39.0,397.0,0.0
R,U,"[4, 10]",1.0,8.0,0.3493969440460205,1.8749768733978271,0.431253957779918,39.0,398.0,0.0
B,L,"[4, 9]",1.0,9.0,0.2618978023529053,1.9354939460754395,0.566593610475953,39.0,399.0,0.0
R,U,"[3, 9]",1.0,10.0,0.22081708908081055,1.9484360218048096,0.6150897061187717,39.0,400.0,0.0
,,"(6, 6)",,,,,,,,
R,U,"[5, 6]",1.0,1.0,0.43098998069763184,2.6838130950927734,0.3493031639378424,40.0,401.0,0.0
Y,R,"[5, 7]",1.0,2.0,0.23966407775878906,1.6511170864105225,0.3003627956009292,40.0,402.0,0.0
Y,R,"[5, 8]",1.0,3.0,0.2424311637878418,2.059554100036621,0.7096076131545952,40.0,403.0,0.0
G,D,"[6, 8]",1.0,4.0,0.26854896545410156,1.9860801696777344,0.6291253110414328,40.0,404.0,0.0
Y,R,"[6, 9]",1.0,5.0,0.23654603958129883,1.930069923400879,0.5923722516442866,40.0,405.0,0.0
Y,R,"[6, 10]",-1.0,5.0,0.04737710952758789,5.576509952545166,0.40256014545489244,40.0,406.0,0.0
R,U,"[5, 10]",1.0,6.0,0.48889589309692383,2.1313540935516357,0.5338349091579597,40.0,407.0,0.0
R,U,"[4, 10]",1.0,7.0,0.2570340633392334,1.9977500438690186,0.6481954811181652,40.0,408.0,0.0
B,L,"[4, 9]",1.0,8.0,0.23865985870361328,1.7770650386810303,0.42540305122171146,40.0,409.0,0.0
R,U,"[3, 9]",1.0,9.0,0.27601122856140137,2.015467882156372,0.6407558343909718,40.0,410.0,0.0
,,"(6, 6)",,,,,,,,
R,U,"[5, 6]",1.0,1.0,0.38422608375549316,3.6334969997406006,0.5412157886903128,41.0,411.0,0.0
Y,R,"[5, 7]",1.0,2.0,0.24279499053955078,1.8671751022338867,0.5250168218469501,41.0,412.0,0.0
Y,R,"[5, 8]",1.0,3.0,0.3177800178527832,1.690845012664795,0.2827637926435802,41.0,413.0,0.0
G,D,"[6, 8]",1.0,4.0,0.28293299674987793,1.9280409812927246,0.543737470966895,41.0,414.0,0.0
Y,R,"[6, 9]",1.0,5.0,0.24008893966674805,1.7294740676879883,0.3902458795646278,41.0,415.0,0.0
Y,R,"[6, 10]",1.0,6.0,0.32184290885925293,1.7308201789855957,0.30451950200398953,41.0,416.0,0.0
R,U,"[5, 10]",1.0,7.0,0.3072071075439453,1.6922409534454346,0.28004739961452324,41.0,417.0,0.0
R,U,"[4, 10]",1.0,8.0,0.25383806228637695,1.6714329719543457,0.28484381403416253,41.0,418.0,0.0
B,L,"[4, 9]",1.0,9.0,0.2560300827026367,2.064089059829712,0.7152754002909059,41.0,419.0,0.0
R,U,"[3, 9]",1.0,10.0,0.25241804122924805,1.7655329704284668,0.4144844661118916,41.0,420.0,0.0
,,"(6, 6)",,,,,,,,
R,U,"[5, 6]",1.0,1.0,0.34536004066467285,3.0303421020507812,0.3778993111241905,42.0,421.0,0.0
Y,R,"[5, 7]",1.0,2.0,0.21523690223693848,2.017965078353882,0.7123295771959892,42.0,422.0,0.0
Y,R,"[5, 8]",1.0,3.0,0.2509481906890869,1.8623290061950684,0.5083595855932133,42.0,423.0,0.0
G,D,"[6, 8]",1.0,4.0,0.296983003616333,1.7653679847717285,0.3738494953856316,42.0,424.0,0.0
Y,R,"[6, 9]",1.0,5.0,0.2935938835144043,1.8557939529418945,0.4629204297321922,42.0,425.0,0.0
Y,R,"[6, 10]",1.0,6.0,0.24796295166015625,1.927664041519165,0.5737896777037561,42.0,426.0,0.0
R,U,"[5, 10]",1.0,7.0,0.339231014251709,1.8289780616760254,0.3863771601560765,42.0,427.0,0.0
R,U,"[4, 10]",1.0,8.0,0.2630019187927246,1.6489410400390625,0.28535368809408207,42.0,428.0,0.0
B,L,"[4, 9]",1.0,9.0,0.2983248233795166,1.8822729587554932,0.48415742035307524,42.0,429.0,0.0
R,U,"[3, 9]",1.0,10.0,0.2987191677093506,1.9716639518737793,0.5724288607549097,42.0,430.0,0.0
,,"(6, 6)",,,,,,,,
R,U,"[5, 6]",1.0,1.0,0.4070408344268799,3.2089130878448486,0.2651933533106203,43.0,431.0,0.0
Y,R,"[5, 7]",1.0,2.0,0.271589994430542,1.681678056716919,0.31340870765890044,43.0,432.0,0.0
Y,R,"[5, 8]",1.0,3.0,0.23327398300170898,1.7203781604766846,0.38373913763520623,43.0,433.0,0.0
G,D,"[6, 8]",1.0,4.0,0.28867101669311523,1.7538049221038818,0.35423713619475966,43.0,434.0,0.0
Y,R,"[6, 9]",1.0,5.0,0.24250197410583496,1.6665279865264893,0.3208869722013817,43.0,435.0,0.0
Y,R,"[6, 10]",1.0,6.0,0.23282694816589355,1.9543070793151855,0.6248859640643852,43.0,436.0,0.0
R,U,"[5, 10]",1.0,7.0,0.24470305442810059,1.8811759948730469,0.5394737419901542,43.0,437.0,0.0
R,U,"[4, 10]",1.0,8.0,0.22285985946655273,1.5776069164276123,0.2506673629212282,43.0,438.0,0.0
B,L,"[4, 9]",1.0,9.0,0.35061216354370117,1.752713918685913,0.3033386003847379,43.0,439.0,0.0
R,U,"[3, 9]",1.0,10.0,0.25168299674987793,1.8552350997924805,0.5085214014977965,43.0,440.0,0.0
,,"(6, 6)",,,,,,,,
R,U,"[5, 6]",1.0,1.0,0.34752511978149414,3.3111369609832764,0.5363535832774131,44.0,441.0,0.0
Y,R,"[5, 7]",1.0,2.0,0.22229909896850586,1.701632022857666,0.3714128218147368,44.0,442.0,0.0
Y,R,"[5, 8]",1.0,3.0,0.2014751434326172,1.779404878616333,0.48414489533457594,44.0,443.0,0.0
G,D,"[6, 8]",1.0,4.0,0.2556169033050537,1.9197988510131836,0.5537843492850685,44.0,444.0,0.0
Y,R,"[6, 9]",1.0,5.0,0.1663038730621338,1.7313330173492432,0.4685591404054696,44.0,445.0,0.0
Y,R,"[6, 10]",1.0,6.0,0.19512701034545898,1.9214301109313965,0.623271863301475,44.0,446.0,0.0
R,U,"[5, 10]",1.0,7.0,0.27961087226867676,1.9208619594573975,0.544171354515538,44.0,447.0,0.0
R,U,"[4, 10]",1.0,8.0,0.21507906913757324,1.954699993133545,0.6487912937715763,44.0,448.0,0.0
B,L,"[4, 9]",1.0,9.0,0.2122800350189209,1.6086630821228027,0.2911641270229816,44.0,449.0,0.0
R,U,"[3, 9]",1.0,10.0,0.36040496826171875,1.8834280967712402,0.4244609119909699,44.0,450.0,0.0
,,"(6, 6)",,,,,,,,
R,U,"[5, 6]",1.0,1.0,0.39220094680786133,5.63505482673645,0.7092057577867578,45.0,451.0,0.0
Y,R,"[5, 7]",1.0,2.0,0.22386789321899414,1.707054853439331,0.38349212916268266,45.0,452.0,0.0
Y,R,"[5, 8]",1.0,3.0,0.19930481910705566,1.7655959129333496,0.46563884271034844,45.0,453.0,0.0
G,D,"[6, 8]",1.0,4.0,0.2457590103149414,1.6276659965515137,0.2769209567544893,45.0,454.0,0.0
Y,R,"[6, 9]",1.0,5.0,0.22419190406799316,1.78131103515625,0.45776041491295605,45.0,455.0,0.0
Y,R,"[6, 10]",1.0,6.0,0.2091209888458252,2.053611993789673,0.7445331413954142,45.0,456.0,0.0
R,U,"[5, 10]",1.0,7.0,0.229017972946167,1.700592041015625,0.37902113355581624,45.0,457.0,0.0
R,U,"[4, 10]",1.0,8.0,0.2111039161682129,1.722033977508545,0.4177413491936561,45.0,458.0,0.0
B,L,"[4, 9]",1.0,9.0,0.22583913803100586,2.080922842025757,0.7483768394777395,45.0,459.0,0.0
R,U,"[3, 9]",1.0,10.0,0.24943113327026367,1.8844139575958252,0.5330113047203464,45.0,460.0,0.0
,,"(6, 6)",,,,,,,,
R,U,"[5, 6]",1.0,1.0,0.4150681495666504,3.8344149589538574,0.6839000255190957,46.0,461.0,0.0
Y,R,"[5, 7]",1.0,2.0,0.22502398490905762,1.8520660400390625,0.5198539727907867,46.0,462.0,0.0
Y,R,"[5, 8]",1.0,3.0,0.1939859390258789,1.8904919624328613,0.5932796821161122,46.0,463.0,0.0
G,D,"[6, 8]",1.0,4.0,0.14278101921081543,1.6756479740142822,0.43598058365610326,46.0,464.0,0.0
Y,R,"[6, 9]",1.0,5.0,0.21045398712158203,1.633234977722168,0.31912168912565975,46.0,465.0,0.0
Y,R,"[6, 10]",1.0,6.0,0.20132088661193848,1.8076450824737549,0.5099037654015325,46.0,466.0,0.0
R,U,"[5, 10]",1.0,7.0,0.2022249698638916,1.9200801849365234,0.6300119789016964,46.0,467.0,0.0
R,U,"[4, 10]",1.0,8.0,0.23998498916625977,1.6486499309539795,0.29555017501787084,46.0,468.0,0.0
B,L,"[4, 9]",1.0,9.0,0.27568984031677246,1.9857299327850342,0.6143808049061578,46.0,469.0,0.0
R,U,"[3, 9]",1.0,10.0,0.23787689208984375,1.630558967590332,0.27872274118835116,46.0,470.0,0.0
,,"(6, 6)",,,,,,,,
R,U,"[5, 6]",1.0,1.0,0.4393038749694824,3.1698999404907227,0.4984018689830749,47.0,471.0,0.0
Y,R,"[5, 7]",1.0,2.0,0.1380620002746582,1.5122098922729492,0.2774893562441344,47.0,472.0,0.0
Y,R,"[5, 8]",1.0,3.0,0.282289981842041,1.8179748058319092,0.4453853219024622,47.0,473.0,0.0
G,D,"[6, 8]",1.0,4.0,0.2363138198852539,1.6662168502807617,0.3447948144872866,47.0,474.0,0.0
Y,R,"[6, 9]",1.0,5.0,0.22795391082763672,1.9976439476013184,0.6755491102554061,47.0,475.0,0.0
Y,R,"[6, 10]",1.0,6.0,0.18914413452148438,2.0175318717956543,0.7263520300510485,47.0,476.0,0.0
R,U,"[5, 10]",1.0,7.0,0.11944293975830078,1.5034761428833008,0.2972056371072418,47.0,477.0,0.0
R,U,"[4, 10]",1.0,8.0,0.29358696937561035,2.0877230167388916,0.684457485772434,47.0,478.0,0.0
B,L,"[4, 9]",1.0,9.0,0.21821308135986328,1.625458002090454,0.310320372353009,47.0,479.0,0.0
R,U,"[3, 9]",1.0,10.0,0.24996685981750488,1.6675281524658203,0.327793818287722,47.0,480.0,0.0
,,"(6, 6)",,,,,,,,
R,U,"[5, 6]",1.0,1.0,0.4149160385131836,3.1706290245056152,0.3818547378870535,48.0,481.0,0.0
Y,R,"[5, 7]",1.0,2.0,0.22197294235229492,1.9167499542236328,0.5817301675015062,48.0,482.0,0.0
Y,R,"[5, 8]",1.0,3.0,0.22336196899414062,1.8343567848205566,0.4994573903966917,48.0,483.0,0.0
G,D,"[6, 8]",1.0,4.0,0.20117497444152832,1.9869649410247803,0.6862834658771746,48.0,484.0,0.0
Y,R,"[6, 9]",1.0,5.0,0.2119131088256836,1.8958451747894287,0.5823212665125439,48.0,485.0,0.0
Y,R,"[6, 10]",1.0,6.0,0.1968381404876709,1.9326930046081543,0.6315878658119529,48.0,486.0,0.0
R,U,"[5, 10]",1.0,7.0,0.20654010772705078,1.7176198959350586,0.3994484211842339,48.0,487.0,0.0
R,U,"[4, 10]",1.0,8.0,0.27416086196899414,1.9744999408721924,0.59047793624398,48.0,488.0,0.0
B,L,"[4, 9]",1.0,9.0,0.2236948013305664,2.0129621028900146,0.6867952270665602,48.0,489.0,0.0
R,U,"[3, 9]",1.0,10.0,0.14662790298461914,1.781170129776001,0.5347223512294514,48.0,490.0,0.0
,,"(6, 6)",,,,,,,,
R,U,"[5, 6]",1.0,1.0,0.8556418418884277,3.4400529861450195,0.4748405468123875,49.0,491.0,0.0
Y,R,"[5, 7]",1.0,2.0,0.24518489837646484,1.8502528667449951,0.5084057982863801,49.0,492.0,0.0
Y,R,"[5, 8]",1.0,3.0,0.20624518394470215,1.8925719261169434,0.5842602784169904,49.0,493.0,0.0
G,D,"[6, 8]",1.0,4.0,0.26311492919921875,1.992408037185669,0.6265400407924251,49.0,494.0,0.0
Y,R,"[6, 9]",1.0,5.0,0.21001005172729492,1.640031099319458,0.33370704038771365,49.0,495.0,0.0
Y,R,"[6, 10]",1.0,6.0,0.2942650318145752,2.0787620544433594,0.6787444015365178,49.0,496.0,0.0
R,U,"[5, 10]",1.0,7.0,0.2587740421295166,1.8965709209442139,0.5588238758718895,49.0,497.0,0.0
R,U,"[4, 10]",1.0,8.0,0.26515793800354004,2.096261978149414,0.7383695056622426,49.0,498.0,0.0
B,L,"[4, 9]",1.0,9.0,0.19482898712158203,1.6654300689697266,0.37074615724140103,49.0,499.0,0.0
R,U,"[3, 9]",1.0,10.0,0.41173887252807617,1.8789689540863037,0.366412817383499,49.0,500.0,0.0
,,"(6, 6)",,,,,,,,
R,U,"[5, 6]",1.0,1.0,0.5067250728607178,3.2435011863708496,0.5932675775585652,50.0,501.0,0.0
Y,R,"[5, 7]",1.0,2.0,0.24843096733093262,1.9966349601745605,0.6562980131807608,50.0,502.0,0.0
Y,R,"[5, 8]",1.0,3.0,0.21279692649841309,2.010468006134033,0.700080472374204,50.0,503.0,0.0
G,D,"[6, 8]",1.0,4.0,0.22115111351013184,1.9675450325012207,0.6510337171247047,50.0,504.0,0.0
Y,R,"[6, 9]",1.0,5.0,0.23966407775878906,1.8757719993591309,0.5270870170024837,50.0,505.0,0.0
Y,R,"[6, 10]",1.0,6.0,0.2288501262664795,1.8628389835357666,0.5398706087974177,50.0,506.0,0.0
R,U,"[5, 10]",1.0,7.0,0.254410982131958,1.7262799739837646,0.3829807439192926,50.0,507.0,0.0
R,U,"[4, 10]",1.0,8.0,0.22480392456054688,1.9533860683441162,0.6194482278625629,50.0,508.0,0.0
B,L,"[4, 9]",1.0,9.0,0.15688681602478027,1.6965839862823486,0.4495055744716576,50.0,509.0,0.0
R,U,"[3, 9]",1.0,10.0,0.3074960708618164,1.676800012588501,0.2599541323942434,50.0,510.0,0.0
,,"(6, 6)",,,,,,,,
R,U,"[5, 6]",1.0,1.0,0.4902842044830322,3.4202640056610107,0.3636457812136286,51.0,511.0,0.0
Y,R,"[5, 7]",1.0,2.0,0.4530980587005615,1.8758740425109863,0.3227216757871989,51.0,512.0,0.0
Y,R,"[5, 8]",1.0,3.0,0.24747705459594727,1.998898983001709,0.6548235504115871,51.0,513.0,0.0
G,D,"[6, 8]",1.0,4.0,0.19176697731018066,1.9549450874328613,0.6595991819507614,51.0,514.0,0.0
Y,R,"[6, 9]",1.0,5.0,0.20398497581481934,1.5741291046142578,0.2842162936513812,51.0,515.0,0.0
Y,R,"[6, 10]",1.0,6.0,0.23163509368896484,1.774852991104126,0.44225725091702145,51.0,516.0,0.0
R,U,"[5, 10]",1.0,7.0,0.24985909461975098,1.7556049823760986,0.4145691510316771,51.0,517.0,0.0
R,U,"[4, 10]",1.0,8.0,0.20823383331298828,1.6652650833129883,0.346651806484786,51.0,518.0,0.0
B,L,"[4, 9]",1.0,9.0,0.2107830047607422,1.9320580959320068,0.6116884101631009,51.0,519.0,0.0
R,U,"[3, 9]",1.0,10.0,0.2324671745300293,2.0671541690826416,0.745476654410439,51.0,520.0,0.0
,,"(6, 6)",,,,,,,,
R,U,"[5, 6]",1.0,1.0,0.4119420051574707,2.8632099628448486,0.5423281964130604,52.0,521.0,0.0
Y,R,"[5, 7]",1.0,2.0,0.21188592910766602,1.7682700157165527,0.46070434682484135,52.0,522.0,0.0
Y,R,"[5, 8]",1.0,3.0,0.1991560459136963,2.0178298950195312,0.7281456872313052,52.0,523.0,0.0
G,D,"[6, 8]",1.0,4.0,0.2746591567993164,1.9123070240020752,0.5407428847399711,52.0,524.0,0.0
Y,R,"[6, 9]",1.0,5.0,0.25208091735839844,1.8846280574798584,0.5421399286112716,52.0,525.0,0.0
Y,R,"[6, 10]",1.0,6.0,0.1248939037322998,1.7750170230865479,0.550504043631846,52.0,526.0,0.0
R,U,"[5, 10]",1.0,7.0,0.22663021087646484,2.0410079956054688,0.7078792858282854,52.0,527.0,0.0
R,U,"[4, 10]",1.0,8.0,0.21735405921936035,1.8831050395965576,0.574620983713108,52.0,528.0,0.0
B,L,"[4, 9]",1.0,9.0,0.24097299575805664,1.8827028274536133,0.5406932490550689,52.0,529.0,0.0
R,U,"[3, 9]",1.0,10.0,0.24871492385864258,1.8255739212036133,0.4830851167149237,52.0,530.0,0.0
,,"(6, 6)",,,,,,,,
R,U,"[5, 6]",1.0,1.0,0.4667649269104004,3.957686185836792,0.29061412902788436,53.0,531.0,0.0
Y,R,"[5, 7]",1.0,2.0,0.28869104385375977,2.0116560459136963,0.6189687286931636,53.0,532.0,0.0
Y,R,"[5, 8]",1.0,3.0,0.19004297256469727,1.8468430042266846,0.5491674611112844,53.0,533.0,0.0
G,D,"[6, 8]",1.0,4.0,0.19200396537780762,1.8643369674682617,0.5636299737428043,53.0,534.0,0.0
Y,R,"[6, 9]",1.0,5.0,0.20858478546142578,1.9032881259918213,0.583603922832092,53.0,535.0,0.0
Y,R,"[6, 10]",1.0,6.0,0.20161104202270508,1.6551101207733154,0.3555884615356428,53.0,536.0,0.0
R,U,"[5, 10]",1.0,7.0,0.32261013984680176,2.172775983810425,0.7446022971383393,53.0,537.0,0.0
R,U,"[4, 10]",1.0,8.0,0.2180330753326416,2.013761043548584,0.7083894645992047,53.0,538.0,0.0
B,L,"[4, 9]",1.0,9.0,0.23670601844787598,1.9987778663635254,0.6738806237278221,53.0,539.0,0.0
R,U,"[3, 9]",1.0,10.0,0.20859098434448242,1.5820698738098145,0.2730769135747634,53.0,540.0,0.0
,,"(6, 6)",,,,,,,,
R,U,"[5, 6]",1.0,1.0,0.42870187759399414,3.5188708305358887,0.32515193374643747,54.0,541.0,0.0
Y,R,"[5, 7]",1.0,2.0,0.2526850700378418,1.7211270332336426,0.3798184172060224,54.0,542.0,0.0
Y,R,"[5, 8]",1.0,3.0,0.23129677772521973,1.725728988647461,0.38889630948549725,54.0,543.0,0.0
G,D,"[6, 8]",1.0,4.0,0.23468708992004395,2.047677993774414,0.7195431372161781,54.0,544.0,0.0
Y,R,"[6, 9]",1.0,5.0,0.2067430019378662,1.862746000289917,0.549024709211751,54.0,545.0,0.0
Y,R,"[6, 10]",1.0,6.0,0.22003793716430664,2.001265048980713,0.6836627050239088,54.0,546.0,0.0
R,U,"[5, 10]",1.0,7.0,0.17531204223632812,1.7444970607757568,0.4616767925185916,54.0,547.0,0.0
R,U,"[4, 10]",1.0,8.0,0.21916604042053223,1.954498052597046,0.6498617804787333,54.0,548.0,0.0
B,L,"[4, 9]",1.0,9.0,0.20422101020812988,1.669222116470337,0.36884831124657197,54.0,549.0,0.0
R,U,"[3, 9]",1.0,10.0,0.26274895668029785,1.9541380405426025,0.5894953079587218,54.0,550.0,0.0
,,"(6, 6)",,,,,,,,
R,U,"[5, 6]",1.0,1.0,0.4451298713684082,3.6123850345611572,0.3355070956889562,55.0,551.0,0.0
Y,R,"[5, 7]",1.0,2.0,0.23433995246887207,1.6790049076080322,0.3478421394085891,55.0,552.0,0.0
Y,R,"[5, 8]",1.0,3.0,0.21879315376281738,1.849302053451538,0.5302387426969661,55.0,553.0,0.0
G,D,"[6, 8]",1.0,4.0,0.2249600887298584,1.8164560794830322,0.48028961440729945,55.0,554.0,0.0
Y,R,"[6, 9]",1.0,5.0,0.20943093299865723,1.8058700561523438,0.48616233897699274,55.0,555.0,0.0
Y,R,"[6, 10]",1.0,6.0,0.22450494766235352,2.073284149169922,0.7424354676317071,55.0,556.0,0.0
R,U,"[5, 10]",1.0,7.0,0.22870802879333496,1.9195759296417236,0.5954948707148977,55.0,557.0,0.0
R,U,"[4, 10]",-1.0,7.0,0.09647083282470703,5.640718936920166,0.4199413938690359,55.0,558.0,0.0
B,L,"[4, 9]",1.0,8.0,0.3264200687408447,1.9138290882110596,0.48367008882360696,55.0,559.0,0.0
R,U,"[3, 9]",1.0,9.0,0.3448607921600342,1.8238770961761475,0.37421155893268315,55.0,560.0,0.0
,,"(6, 6)",,,,,,,,
R,U,"[5, 6]",1.0,1.0,0.39906907081604004,4.061913967132568,0.6194272910048818,56.0,561.0,0.0
Y,R,"[5, 7]",1.0,2.0,0.35793590545654297,1.9728889465332031,0.5090461565603985,56.0,562.0,0.0
Y,R,"[5, 8]",1.0,3.0,0.2583780288696289,2.0698699951171875,0.7120752516818505,56.0,563.0,0.0
G,D,"[6, 8]",1.0,4.0,0.27558183670043945,1.826474905014038,0.45559390852081827,56.0,564.0,0.0
Y,R,"[6, 9]",1.0,5.0,0.2612879276275635,1.9376468658447266,0.5764931727294111,56.0,565.0,0.0
Y,R,"[6, 10]",1.0,6.0,0.2830040454864502,1.987095832824707,0.6134499262466733,56.0,566.0,0.0
R,U,"[5, 10]",1.0,7.0,0.2590510845184326,1.7772860527038574,0.40765436614411,56.0,567.0,0.0
R,U,"[4, 10]",1.0,8.0,0.2246260643005371,1.6912460327148438,0.3656228622948621,56.0,568.0,0.0
B,L,"[4, 9]",1.0,9.0,0.37151408195495605,1.7589168548583984,0.2746432288256781,56.0,569.0,0.0
R,U,"[3, 9]",1.0,10.0,0.33756089210510254,1.882091999053955,0.4566244105388518,56.0,570.0,0.0
,,"(6, 6)",,,,,,,,
R,U,"[5, 6]",1.0,1.0,0.36658692359924316,3.3804869651794434,0.7202187359558994,57.0,571.0,0.0
Y,R,"[5, 7]",1.0,2.0,0.23547697067260742,1.9469459056854248,0.6172802924848921,57.0,572.0,0.0
Y,R,"[5, 8]",1.0,3.0,0.23314714431762695,1.9061150550842285,0.5735412205681787,57.0,573.0,0.0
G,D,"[6, 8]",1.0,4.0,0.2502880096435547,1.7367899417877197,0.393801664998462,57.0,574.0,0.0
Y,R,"[6, 9]",1.0,5.0,0.2879209518432617,1.7226080894470215,0.349801110761985,57.0,575.0,0.0
Y,R,"[6, 10]",1.0,6.0,0.24092817306518555,1.811068058013916,0.4609086617460253,57.0,576.0,0.0
R,U,"[5, 10]",1.0,7.0,0.2689201831817627,1.7202379703521729,0.36445715395068834,57.0,577.0,0.0
R,U,"[4, 10]",1.0,8.0,0.30066585540771484,1.820713996887207,0.41851323903550597,57.0,578.0,0.0
B,L,"[4, 9]",1.0,9.0,0.11293601989746094,1.50685715675354,0.2921522888733246,57.0,579.0,0.0
R,U,"[3, 9]",1.0,10.0,0.3060450553894043,2.1475300788879395,0.7392755974016176,57.0,580.0,0.0
,,"(6, 6)",,,,,,,,
R,U,"[5, 6]",1.0,1.0,0.4590790271759033,3.448122978210449,0.5542766452191822,58.0,581.0,0.0
Y,R,"[5, 7]",1.0,2.0,0.19241905212402344,1.850106954574585,0.5545036483603489,58.0,582.0,0.0
Y,R,"[5, 8]",1.0,3.0,0.2027750015258789,1.9674091339111328,0.6716485840937586,58.0,583.0,0.0
G,D,"[6, 8]",1.0,4.0,0.2745630741119385,2.019788980484009,0.6414512665080727,58.0,584.0,0.0
Y,R,"[6, 9]",1.0,5.0,0.2949240207672119,2.1008639335632324,0.7091903658034073,58.0,585.0,0.0
Y,R,"[6, 10]",1.0,6.0,0.2102360725402832,2.0506222248077393,0.7431574946529786,58.0,586.0,0.0
R,U,"[5, 10]",1.0,7.0,0.768031120300293,2.449850082397461,0.5931426933337822,58.0,587.0,0.0
R,U,"[4, 10]",1.0,8.0,0.179124116897583,1.745737075805664,0.4723631308615433,58.0,588.0,0.0
B,L,"[4, 9]",1.0,9.0,0.2953529357910156,1.9021039009094238,0.5076589336581927,58.0,589.0,0.0
R,U,"[3, 9]",1.0,10.0,0.28728294372558594,1.8751819133758545,0.49985747860847973,58.0,590.0,0.0
,,"(6, 6)",,,,,,,,
R,U,"[5, 6]",1.0,1.0,0.41568994522094727,3.3346619606018066,0.2512563109516563,59.0,591.0,0.0
Y,R,"[5, 7]",1.0,2.0,0.363696813583374,2.0297231674194336,0.5639911091127328,59.0,592.0,0.0
Y,R,"[5, 8]",1.0,3.0,0.24173688888549805,1.9033360481262207,0.5507246179549028,59.0,593.0,0.0
G,D,"[6, 8]",1.0,4.0,0.22757720947265625,2.023480176925659,0.6908852611866131,59.0,594.0,0.0
Y,R,"[6, 9]",1.0,5.0,0.22505593299865723,1.8357961177825928,0.5100837933114286,59.0,595.0,0.0
Y,R,"[6, 10]",1.0,6.0,0.24087095260620117,1.6005659103393555,0.26085710163092596,59.0,596.0,0.0
R,U,"[5, 10]",1.0,7.0,0.42375802993774414,2.2380268573760986,0.7151524679343453,59.0,597.0,0.0
R,U,"[4, 10]",1.0,8.0,0.24188709259033203,1.8446309566497803,0.4933629991825695,59.0,598.0,0.0
B,L,"[4, 9]",1.0,9.0,0.2777411937713623,1.9870681762695312,0.6136437921084781,59.0,599.0,0.0
R,U,"[3, 9]",1.0,10.0,0.26674604415893555,1.940882921218872,0.5714232588038143,59.0,600.0,0.0
,,"(6, 6)",,,,,,,,
R,U,"[5, 6]",1.0,1.0,0.4719681739807129,3.7712810039520264,0.6925171305046118,60.0,601.0,0.0
Y,R,"[5, 7]",1.0,2.0,0.21119189262390137,1.6911859512329102,0.3839092617229442,60.0,602.0,0.0
Y,R,"[5, 8]",1.0,3.0,0.35284900665283203,1.9072141647338867,0.45786728454491277,60.0,603.0,0.0
G,D,"[6, 8]",1.0,4.0,0.3431220054626465,1.8315989971160889,0.38958283775847835,60.0,604.0,0.0
Y,R,"[6, 9]",1.0,5.0,0.29367804527282715,1.7053451538085938,0.3117276197085589,60.0,605.0,0.0
Y,R,"[6, 10]",1.0,6.0,0.29987096786499023,1.966372013092041,0.5779002057941194,60.0,606.0,0.0
R,U,"[5, 10]",1.0,7.0,0.23409390449523926,1.8810629844665527,0.5589329156474494,60.0,607.0,0.0
R,U,"[4, 10]",1.0,8.0,0.15982890129089355,1.7590360641479492,0.5014888068911982,60.0,608.0,0.0
B,L,"[4, 9]",1.0,9.0,0.2972240447998047,2.1307780742645264,0.7319987327033441,60.0,609.0,0.0
R,U,"[3, 9]",1.0,10.0,0.3079690933227539,2.12709903717041,0.7091406254947581,60.0,610.0,0.0
,,"(6, 6)",,,,,,,,
R,U,"[5, 6]",1.0,1.0,0.5545001029968262,4.080005168914795,0.37279796878858346,61.0,611.0,0.0
Y,R,"[5, 7]",1.0,2.0,0.22539305686950684,1.9775550365447998,0.6502483001027637,61.0,612.0,0.0
Y,R,"[5, 8]",1.0,3.0,0.22091293334960938,1.8750908374786377,0.5420399643970437,61.0,613.0,0.0
G,D,"[6, 8]",1.0,4.0,0.28830885887145996,1.872493028640747,0.49794707941634225,61.0,614.0,0.0
Y,R,"[6, 9]",1.0,5.0,0.28509998321533203,1.725761890411377,0.3405438730236615,61.0,615.0,0.0
Y,R,"[6, 10]",1.0,6.0,0.33194589614868164,1.9839329719543457,0.5576189296645131,61.0,616.0,0.0
R,U,"[5, 10]",1.0,7.0,0.34927988052368164,1.760580062866211,0.31848735238695686,61.0,617.0,0.0
R,U,"[4, 10]",1.0,8.0,0.2695169448852539,2.0151848793029785,0.6500387199509321,61.0,618.0,0.0
B,L,"[4, 9]",1.0,9.0,0.22394800186157227,1.7791881561279297,0.44609813984664065,61.0,619.0,0.0
R,U,"[3, 9]",1.0,10.0,0.2897210121154785,1.6558918952941895,0.25208212377019773,61.0,620.0,0.0
,,"(6, 6)",,,,,,,,
R,U,"[5, 6]",1.0,1.0,0.41403889656066895,3.539640188217163,0.27500945541813554,62.0,621.0,0.0
Y,R,"[5, 7]",1.0,2.0,0.25672388076782227,1.6335220336914062,0.2755439295498773,62.0,622.0,0.0
Y,R,"[5, 8]",1.0,3.0,0.28025102615356445,1.8472599983215332,0.4725222792075246,62.0,623.0,0.0
G,D,"[6, 8]",1.0,4.0,0.2813100814819336,1.9410679340362549,0.5634715629272893,62.0,624.0,0.0
Y,R,"[6, 9]",1.0,5.0,0.20576000213623047,2.062311887741089,0.742317466467584,62.0,625.0,0.0
Y,R,"[6, 10]",1.0,6.0,0.14466094970703125,1.6663751602172852,0.4257572084035198,62.0,626.0,0.0
R,U,"[5, 10]",1.0,7.0,0.40886616706848145,2.2143099308013916,0.7065343217376713,62.0,627.0,0.0
R,U,"[4, 10]",1.0,8.0,0.269366979598999,1.7526700496673584,0.3927506926980892,62.0,628.0,0.0
B,L,"[4, 9]",1.0,9.0,0.687614917755127,2.042884111404419,0.26917692326469567,62.0,629.0,0.0
R,U,"[3, 9]",1.0,10.0,0.4503779411315918,1.8085050582885742,0.26104312316956174,62.0,630.0,0.0
,,"(6, 6)",,,,,,,,
R,U,"[5, 6]",1.0,1.0,0.32753491401672363,3.7332820892333984,0.6272880290076103,63.0,631.0,0.0
Y,R,"[5, 7]",1.0,2.0,0.28646302223205566,2.1080398559570312,0.7352843654068946,63.0,632.0,0.0
Y,R,"[5, 8]",1.0,3.0,0.2597827911376953,2.084183931350708,0.7194375011998113,63.0,633.0,0.0
G,D,"[6, 8]",1.0,4.0,0.2603919506072998,1.8797500133514404,0.5162510983340595,63.0,634.0,0.0
Y,R,"[6, 9]",1.0,5.0,0.2572472095489502,2.041079044342041,0.6738355611121967,63.0,635.0,0.0
Y,R,"[6, 10]",1.0,6.0,0.2449791431427002,1.6207621097564697,0.2783255221255509,63.0,636.0,0.0
R,U,"[5, 10]",1.0,7.0,0.4032411575317383,1.9698569774627686,0.4812909236671492,63.0,637.0,0.0
R,U,"[4, 10]",1.0,8.0,0.24491596221923828,2.0957419872283936,0.7433759871187435,63.0,638.0,0.0
B,L,"[4, 9]",1.0,9.0,0.21768689155578613,1.67445707321167,0.36834283766255554,63.0,639.0,0.0
R,U,"[3, 9]",1.0,10.0,0.33147382736206055,2.0529351234436035,0.6210078646260353,63.0,640.0,0.0
,,"(6, 6)",,,,,,,,
R,U,"[5, 6]",1.0,1.0,0.3855249881744385,3.5653369426727295,0.6030952678495494,64.0,641.0,0.0
Y,R,"[5, 7]",1.0,2.0,0.22054505348205566,1.6669819355010986,0.35369208643399147,64.0,642.0,0.0
Y,R,"[5, 8]",1.0,3.0,0.23787903785705566,1.715566873550415,0.3858787648571408,64.0,643.0,0.0
G,D,"[6, 8]",1.0,4.0,0.23371481895446777,1.6550438404083252,0.32437399735175654,64.0,644.0,0.0
Y,R,"[6, 9]",1.0,5.0,0.23974108695983887,2.0697150230407715,0.7270237741651756,64.0,645.0,0.0
Y,R,"[6, 10]",1.0,6.0,0.2672250270843506,1.7294270992279053,0.3735646526843112,64.0,646.0,0.0
R,U,"[5, 10]",1.0,7.0,0.37882184982299805,1.9686229228973389,0.4920782247198793,64.0,647.0,0.0
R,U,"[4, 10]",1.0,8.0,0.16440510749816895,1.7325379848480225,0.47452862225616566,64.0,648.0,0.0
B,L,"[4, 9]",1.0,9.0,0.23228907585144043,1.8987340927124023,0.5732550136043917,64.0,649.0,0.0
R,U,"[3, 9]",1.0,10.0,0.21915006637573242,1.7975330352783203,0.48747719257050337,64.0,650.0,0.0
,,"(6, 6)",,,,,,,,
R,U,"[5, 6]",1.0,1.0,0.47066211700439453,4.092395782470703,0.59660280032501,65.0,651.0,0.0
Y,R,"[5, 7]",1.0,2.0,0.26125121116638184,1.7858898639678955,0.4161291177278794,65.0,652.0,0.0
Y,R,"[5, 8]",1.0,3.0,0.24048519134521484,2.0970678329467773,0.7462643159445215,65.0,653.0,0.0
G,D,"[6, 8]",1.0,4.0,0.21111512184143066,1.9684960842132568,0.6480553243166259,65.0,654.0,0.0
Y,R,"[6, 9]",1.0,5.0,0.21562910079956055,1.8071730136871338,0.4890027718222846,65.0,655.0,0.0
Y,R,"[6, 10]",1.0,6.0,0.23066115379333496,2.030959129333496,0.7028714233937925,65.0,656.0,0.0
R,U,"[5, 10]",1.0,7.0,0.2433629035949707,1.8678431510925293,0.5210334650651989,65.0,657.0,0.0
R,U,"[4, 10]",1.0,8.0,0.304332971572876,2.0414490699768066,0.6290760987999965,65.0,658.0,0.0
B,L,"[4, 9]",1.0,9.0,0.2258470058441162,1.6290290355682373,0.29171757314165947,65.0,659.0,0.0
R,U,"[3, 9]",1.0,10.0,0.3604719638824463,1.870628833770752,0.4122370905907668,65.0,660.0,0.0
,,"(6, 6)",,,,,,,,
R,U,"[5, 6]",1.0,1.0,0.42690396308898926,3.6788330078125,0.4740512236977427,66.0,661.0,0.0
Y,R,"[5, 7]",1.0,2.0,0.24327397346496582,1.5991570949554443,0.2572334889739958,66.0,662.0,0.0
Y,R,"[5, 8]",1.0,3.0,0.23234200477600098,1.5773980617523193,0.25116881047432227,66.0,663.0,0.0
G,D,"[6, 8]",1.0,4.0,0.260051965713501,2.0771031379699707,0.7113486476136499,66.0,664.0,0.0
Y,R,"[6, 9]",1.0,5.0,0.22742605209350586,1.988128900527954,0.6660495316753492,66.0,665.0,0.0
Y,R,"[6, 10]",1.0,6.0,0.40749406814575195,2.046496868133545,0.529403641751853,66.0,666.0,0.0
R,U,"[5, 10]",1.0,7.0,0.1994929313659668,1.7607829570770264,0.4570228174381647,66.0,667.0,0.0
R,U,"[4, 10]",1.0,8.0,0.20968389511108398,1.9405810832977295,0.6307520965673936,66.0,668.0,0.0
B,L,"[4, 9]",1.0,9.0,0.3387141227722168,1.8505499362945557,0.3982444117385911,66.0,669.0,0.0
R,U,"[3, 9]",1.0,10.0,0.29089999198913574,2.1015548706054688,0.6994815373324141,66.0,670.0,0.0
,,"(6, 6)",,,,,,,,
R,U,"[5, 6]",1.0,1.0,0.37994980812072754,3.4497828483581543,0.6496674727457634,67.0,671.0,0.0
Y,R,"[5, 7]",1.0,2.0,0.22509312629699707,2.003303050994873,0.6693442127879808,67.0,672.0,0.0
Y,R,"[5, 8]",1.0,3.0,0.27115297317504883,1.98636794090271,0.6224824733825751,67.0,673.0,0.0
G,D,"[6, 8]",1.0,4.0,0.22283005714416504,1.6149308681488037,0.2877847278893846,67.0,674.0,0.0
Y,R,"[6, 9]",1.0,5.0,0.25081706047058105,1.7156329154968262,0.36992353886224805,67.0,675.0,0.0
Y,R,"[6, 10]",1.0,6.0,0.26065587997436523,1.9224011898040771,0.5589236684287762,67.0,676.0,0.0
R,U,"[5, 10]",1.0,7.0,0.24101901054382324,1.7876338958740234,0.44668989878473403,67.0,677.0,0.0
R,U,"[4, 10]",1.0,8.0,0.17241597175598145,1.586690902709961,0.31697696742694836,67.0,678.0,0.0
B,L,"[4, 9]",1.0,9.0,0.363677978515625,2.1450369358062744,0.6783264973796166,67.0,679.0,0.0
R,U,"[3, 9]",1.0,10.0,0.2985248565673828,1.681164026260376,0.29314670110316354,67.0,680.0,0.0
,,"(6, 6)",,,,,,,,
R,U,"[5, 6]",1.0,1.0,0.47643089294433594,3.6226208209991455,0.3989350869081235,68.0,681.0,0.0
Y,R,"[5, 7]",1.0,2.0,0.6659770011901855,2.2734739780426025,0.5057398456534338,68.0,682.0,0.0
Y,R,"[5, 8]",1.0,3.0,0.24362897872924805,1.7686569690704346,0.4245335196457657,68.0,683.0,0.0
G,D,"[6, 8]",1.0,4.0,0.30786895751953125,2.1066999435424805,0.6976238596251663,68.0,684.0,0.0
Y,R,"[6, 9]",1.0,5.0,0.2431778907775879,1.6976258754730225,0.34562115896576684,68.0,685.0,0.0
Y,R,"[6, 10]",1.0,6.0,0.2884848117828369,1.751965045928955,0.36442936676054727,68.0,686.0,0.0
R,U,"[5, 10]",1.0,7.0,0.3272709846496582,2.0024969577789307,0.5665990632242799,68.0,687.0,0.0
R,U,"[4, 10]",1.0,8.0,0.20633196830749512,1.6624679565429688,0.34600838683305535,68.0,688.0,0.0
B,L,"[4, 9]",1.0,9.0,0.31173205375671387,2.1253981590270996,0.7043720900770805,68.0,689.0,0.0
R,U,"[3, 9]",1.0,10.0,0.23164606094360352,1.9876701831817627,0.6587547546749444,68.0,690.0,0.0
,,"(6, 6)",,,,,,,,
R,U,"[5, 6]",1.0,1.0,0.3645458221435547,5.948328018188477,0.39105778589456436,69.0,691.0,0.0
Y,R,"[5, 7]",1.0,2.0,0.24868202209472656,1.7568490505218506,0.41436695392464845,69.0,692.0,0.0
Y,R,"[5, 8]",1.0,3.0,0.20956993103027344,1.9659490585327148,0.6468100997531265,69.0,693.0,0.0
G,D,"[6, 8]",1.0,4.0,0.23385000228881836,1.9275658130645752,0.5910357541970859,69.0,694.0,0.0
Y,R,"[6, 9]",1.0,5.0,0.20732617378234863,1.9019849300384521,0.5930445255482897,69.0,695.0,0.0
Y,R,"[6, 10]",1.0,6.0,0.18550705909729004,1.6739771366119385,0.40060887352252295,69.0,696.0,0.0
R,U,"[5, 10]",1.0,7.0,0.23390507698059082,1.7147130966186523,0.382119448438306,69.0,697.0,0.0
R,U,"[4, 10]",1.0,8.0,0.26141810417175293,1.9350149631500244,0.5669979410562906,69.0,698.0,0.0
B,L,"[4, 9]",1.0,9.0,0.35938096046447754,2.067199945449829,0.6007633660458946,69.0,699.0,0.0
R,U,"[3, 9]",1.0,10.0,0.27147579193115234,1.6793169975280762,0.3136782555729741,69.0,700.0,0.0
,,"(6, 6)",,,,,,,,
R,U,"[5, 6]",1.0,1.0,0.3911418914794922,3.6978960037231445,0.6779580837282829,70.0,701.0,0.0
Y,R,"[5, 7]",1.0,2.0,0.24108314514160156,1.6790509223937988,0.3406800547601074,70.0,702.0,0.0
Y,R,"[5, 8]",1.0,3.0,0.25275301933288574,1.6165010929107666,0.2739730730797986,70.0,703.0,0.0
G,D,"[6, 8]",1.0,4.0,0.3012049198150635,1.8169291019439697,0.42408970811372176,70.0,704.0,0.0
Y,R,"[6, 9]",1.0,5.0,0.31860804557800293,2.044741153717041,0.6353381846197743,70.0,705.0,0.0
Y,R,"[6, 10]",1.0,6.0,0.2625699043273926,2.1045000553131104,0.7396773807426285,70.0,706.0,0.0
R,U,"[5, 10]",1.0,7.0,0.25264883041381836,2.0592219829559326,0.715634877521006,70.0,707.0,0.0
R,U,"[4, 10]",1.0,8.0,0.37613511085510254,1.766024112701416,0.28230681503149346,70.0,708.0,0.0
B,L,"[4, 9]",1.0,9.0,0.2714998722076416,1.6501858234405518,0.2824726170119479,70.0,709.0,0.0
R,U,"[3, 9]",1.0,10.0,0.31659507751464844,1.9317188262939453,0.5139964856289223,70.0,710.0,0.0
,,"(6, 6)",,,,,,,,
R,U,"[5, 6]",1.0,1.0,0.36095499992370605,2.940760850906372,0.37173284171485627,71.0,711.0,0.0
Y,R,"[5, 7]",1.0,2.0,0.28022003173828125,1.9070429801940918,0.5284522682309271,71.0,712.0,0.0
Y,R,"[5, 8]",1.0,3.0,0.23409390449523926,1.8585798740386963,0.5371206873810226,71.0,713.0,0.0
G,D,"[6, 8]",1.0,4.0,0.2596628665924072,1.8649640083312988,0.5019880437169777,71.0,714.0,0.0
Y,R,"[6, 9]",1.0,5.0,0.21503210067749023,1.928628921508789,0.6140279163740062,71.0,715.0,0.0
Y,R,"[6, 10]",1.0,6.0,0.2535889148712158,2.090169906616211,0.7373375959312765,71.0,716.0,0.0
R,U,"[5, 10]",1.0,7.0,0.5099489688873291,2.0329079627990723,0.42058643473270807,71.0,717.0,0.0
R,U,"[4, 10]",1.0,8.0,0.24285006523132324,2.0763099193573,0.7298337353283402,71.0,718.0,0.0
B,L,"[4, 9]",1.0,9.0,0.22470903396606445,2.0835158824920654,0.7469393696954425,71.0,719.0,0.0
R,U,"[3, 9]",1.0,10.0,0.23163509368896484,1.882883071899414,0.5466432728096524,71.0,720.0,0.0
,,"(6, 6)",,,,,,,,
R,U,"[5, 6]",1.0,1.0,0.3785061836242676,3.428816080093384,0.608740042455264,72.0,721.0,0.0
Y,R,"[5, 7]",1.0,2.0,0.2767629623413086,1.6494700908660889,0.2752290466321504,72.0,722.0,0.0
Y,R,"[5, 8]",1.0,3.0,0.3218379020690918,2.023303985595703,0.5985644709236828,72.0,723.0,0.0
G,D,"[6, 8]",1.0,4.0,0.22256803512573242,2.0660879611968994,0.7308915292980737,72.0,724.0,0.0
Y,R,"[6, 9]",1.0,5.0,0.17193913459777832,1.7089061737060547,0.4233859778140715,72.0,725.0,0.0
Y,R,"[6, 10]",1.0,6.0,0.2410259246826172,1.9205961227416992,0.5773064245287903,72.0,726.0,0.0
R,U,"[5, 10]",1.0,7.0,0.2913529872894287,1.7320449352264404,0.3428711927441096,72.0,727.0,0.0
R,U,"[4, 10]",1.0,8.0,0.23630404472351074,1.776432991027832,0.4525711918374232,72.0,728.0,0.0
B,L,"[4, 9]",1.0,9.0,0.853844165802002,2.232769012451172,0.2689109110202477,72.0,729.0,0.0
R,U,"[3, 9]",1.0,10.0,0.3799569606781006,2.1175589561462402,0.6360113018667234,72.0,730.0,0.0
,,"(6, 6)",,,,,,,,
R,U,"[5, 6]",1.0,1.0,0.4196138381958008,3.616858959197998,0.48651563914125306,73.0,731.0,0.0
Y,R,"[5, 7]",1.0,2.0,0.2313089370727539,1.720088005065918,0.39015406298317895,73.0,732.0,0.0
Y,R,"[5, 8]",1.0,3.0,0.29500508308410645,1.8105919361114502,0.41674412056145826,73.0,733.0,0.0
G,D,"[6, 8]",1.0,4.0,0.27066922187805176,1.7524058818817139,0.3865718474350552,73.0,734.0,0.0
Y,R,"[6, 9]",1.0,5.0,0.2824430465698242,1.761883020401001,0.38165964698830507,73.0,735.0,0.0
Y,R,"[6, 10]",1.0,6.0,0.23418498039245605,1.7959849834442139,0.460892291616964,73.0,736.0,0.0
R,U,"[5, 10]",1.0,7.0,0.23150205612182617,1.8896989822387695,0.567359986759123,73.0,737.0,0.0
R,U,"[4, 10]",1.0,8.0,0.32755303382873535,1.8902390003204346,0.45760820957724063,73.0,738.0,0.0
B,L,"[4, 9]",1.0,9.0,0.20945215225219727,1.9809541702270508,0.6717653833695822,73.0,739.0,0.0
R,U,"[3, 9]",1.0,10.0,0.24206995964050293,1.942521095275879,0.5977449173829856,73.0,740.0,0.0
,,"(6, 6)",,,,,,,,
R,U,"[5, 6]",1.0,1.0,0.4380779266357422,5.39196515083313,0.2733413523468563,74.0,741.0,0.0
Y,R,"[5, 7]",1.0,2.0,0.279979944229126,1.847999095916748,0.4710814252285615,74.0,742.0,0.0
Y,R,"[5, 8]",1.0,3.0,0.22569012641906738,1.8109700679779053,0.48203956471931325,74.0,743.0,0.0
G,D,"[6, 8]",1.0,4.0,0.23327398300170898,2.0378990173339844,0.7031700623262525,74.0,744.0,0.0
Y,R,"[6, 9]",1.0,5.0,0.2640409469604492,1.720202922821045,0.3571116771251148,74.0,745.0,0.0
Y,R,"[6, 10]",1.0,6.0,0.3555140495300293,1.8741400241851807,0.4145281390187213,74.0,746.0,0.0
R,U,"[5, 10]",1.0,7.0,0.2851698398590088,1.8293559551239014,0.44375580913386525,74.0,747.0,0.0
R,U,"[4, 10]",1.0,8.0,0.24358201026916504,2.0027568340301514,0.6630935379989458,74.0,748.0,0.0
B,L,"[4, 9]",1.0,9.0,0.2021329402923584,1.6543569564819336,0.3511516678893282,74.0,749.0,0.0
R,U,"[3, 9]",1.0,10.0,0.23677897453308105,1.802105188369751,0.4699254471413639,74.0,750.0,0.0
,,"(6, 6)",,,,,,,,
R,U,"[5, 6]",1.0,1.0,0.4410848617553711,3.116231918334961,0.30309154104741015,75.0,751.0,0.0
Y,R,"[5, 7]",1.0,2.0,0.24180197715759277,2.0766499042510986,0.7291824763342079,75.0,752.0,0.0
Y,R,"[5, 8]",1.0,3.0,0.2536489963531494,2.0217478275299072,0.66769630196581,75.0,753.0,0.0
G,D,"[6, 8]",1.0,4.0,0.2764708995819092,1.8559598922729492,0.47387615522243787,75.0,754.0,0.0
Y,R,"[6, 9]",1.0,5.0,0.271759033203125,1.724980115890503,0.34913350821139294,75.0,755.0,0.0
Y,R,"[6, 10]",1.0,6.0,0.28939008712768555,1.8142662048339844,0.4133172240443331,75.0,756.0,0.0
R,U,"[5, 10]",1.0,7.0,0.3188450336456299,1.943342924118042,0.5230967029191768,75.0,757.0,0.0
R,U,"[4, 10]",1.0,8.0,0.3895549774169922,1.7529048919677734,0.2596553932612559,75.0,758.0,0.0
B,L,"[4, 9]",1.0,9.0,0.3849508762359619,2.0382111072540283,0.5643397279250266,75.0,759.0,0.0
R,U,"[3, 9]",1.0,10.0,0.24193501472473145,1.9795951843261719,0.6439274637633234,75.0,760.0,0.0
,,"(6, 6)",,,,,,,,
R,U,"[5, 6]",1.0,1.0,0.352567195892334,3.2198119163513184,0.7137543632902585,76.0,761.0,0.0
Y,R,"[5, 7]",1.0,2.0,0.22632598876953125,2.0019118785858154,0.6656018422536505,76.0,762.0,0.0
Y,R,"[5, 8]",1.0,3.0,0.3061351776123047,2.128861904144287,0.7111061244220676,76.0,763.0,0.0
G,D,"[6, 8]",1.0,4.0,0.2715620994567871,1.8884150981903076,0.5331122007052975,76.0,764.0,0.0
Y,R,"[6, 9]",1.0,5.0,0.27181077003479004,1.9195950031280518,0.5526865087354236,76.0,765.0,0.0
Y,R,"[6, 10]",1.0,6.0,0.32087087631225586,2.178950071334839,0.7482539717395118,76.0,766.0,0.0
R,U,"[5, 10]",1.0,7.0,0.27454090118408203,1.737231969833374,0.3525209264544656,76.0,767.0,0.0
R,U,"[4, 10]",1.0,8.0,0.299623966217041,2.128187894821167,0.7302306605089457,76.0,768.0,0.0
B,L,"[4, 9]",1.0,9.0,0.1999530792236328,1.930091142654419,0.627208181825768,76.0,769.0,0.0
R,U,"[3, 9]",1.0,10.0,0.26526594161987305,1.952341079711914,0.5962429072656859,76.0,770.0,0.0
,,"(6, 6)",,,,,,,,
R,U,"[5, 6]",1.0,1.0,0.35063600540161133,4.0714991092681885,0.5679662741814304,77.0,771.0,0.0
Y,R,"[5, 7]",1.0,2.0,0.2523338794708252,1.6623499393463135,0.3138447545934684,77.0,772.0,0.0
Y,R,"[5, 8]",1.0,3.0,0.2996671199798584,2.140352964401245,0.7371567347438666,77.0,773.0,0.0
G,D,"[6, 8]",1.0,4.0,0.2629129886627197,1.7227280139923096,0.3602339670195192,77.0,774.0,0.0
Y,R,"[6, 9]",1.0,5.0,0.28167295455932617,2.1132960319519043,0.7399196125374627,77.0,775.0,0.0
Y,R,"[6, 10]",1.0,6.0,0.2480778694152832,2.031614065170288,0.6882026293191861,77.0,776.0,0.0
R,U,"[5, 10]",1.0,7.0,0.2617809772491455,1.9718480110168457,0.610151279432771,77.0,777.0,0.0
R,U,"[4, 10]",1.0,8.0,0.3021690845489502,1.9491839408874512,0.5595085134706457,77.0,778.0,0.0
B,L,"[4, 9]",1.0,9.0,0.2702610492706299,1.7965211868286133,0.43926096260619574,77.0,779.0,0.0
R,U,"[3, 9]",1.0,10.0,0.3252711296081543,1.764280080795288,0.3372555348649417,77.0,780.0,0.0
,,"(6, 6)",,,,,,,,
R,U,"[5, 6]",1.0,1.0,0.5036900043487549,3.3727550506591797,0.46005850220840255,78.0,781.0,0.0
Y,R,"[5, 7]",1.0,2.0,0.2582700252532959,1.921612024307251,0.5647445925687766,78.0,782.0,0.0
Y,R,"[5, 8]",1.0,3.0,0.323138952255249,1.748809814453125,0.31377055367823364,78.0,783.0,0.0
G,D,"[6, 8]",1.0,4.0,0.29102396965026855,1.9951980113983154,0.5921785321298898,78.0,784.0,0.0
Y,R,"[6, 9]",1.0,5.0,0.19178009033203125,1.9179351329803467,0.6266816717480999,78.0,785.0,0.0
Y,R,"[6, 10]",1.0,6.0,0.39107418060302734,2.152431011199951,0.6624365340011764,78.0,786.0,0.0
R,U,"[5, 10]",1.0,7.0,0.24970507621765137,2.060119867324829,0.7058647878352671,78.0,787.0,0.0
R,U,"[4, 10]",1.0,8.0,0.2436378002166748,1.6051127910614014,0.2615444564240876,78.0,788.0,0.0
B,L,"[4, 9]",1.0,9.0,0.32671594619750977,1.7204880714416504,0.29868490314294477,78.0,789.0,0.0
R,U,"[3, 9]",1.0,10.0,0.4034419059753418,2.1400229930877686,0.6382680242545373,78.0,790.0,0.0
,,"(6, 6)",,,,,,,,
R,U,"[5, 6]",1.0,1.0,0.5203690528869629,3.0536301136016846,0.658777640996651,79.0,791.0,0.0
Y,R,"[5, 7]",1.0,2.0,0.2602500915527344,2.070073127746582,0.711974883915631,79.0,792.0,0.0
Y,R,"[5, 8]",1.0,3.0,0.2245950698852539,2.0100350379943848,0.6887522014186267,79.0,793.0,0.0
G,D,"[6, 8]",1.0,4.0,0.31696581840515137,2.069309949874878,0.6581861384272197,79.0,794.0,0.0
Y,R,"[6, 9]",1.0,5.0,0.22374987602233887,2.0335440635681152,0.7083405207546354,79.0,795.0,0.0
Y,R,"[6, 10]",1.0,6.0,0.2691190242767334,1.6831719875335693,0.3253587334436486,79.0,796.0,0.0
R,U,"[5, 10]",1.0,7.0,0.45406413078308105,2.220350980758667,0.6787001523580726,79.0,797.0,0.0
R,U,"[4, 10]",1.0,8.0,0.2705080509185791,1.839834213256836,0.48529116094128033,79.0,798.0,0.0
B,L,"[4, 9]",1.0,9.0,0.38362789154052734,2.2081689834594727,0.7265574830037294,79.0,799.0,0.0
R,U,"[3, 9]",1.0,10.0,0.24854803085327148,2.0522921085357666,0.7122880498169137,79.0,800.0,0.0
,,"(6, 6)",,,,,,,,
R,U,"[5, 6]",1.0,1.0,0.3957509994506836,4.1659770011901855,0.4952342491992829,80.0,801.0,0.0
Y,R,"[5, 7]",1.0,2.0,0.27819108963012695,1.7780930995941162,0.40672934515894216,80.0,802.0,0.0
Y,R,"[5, 8]",1.0,3.0,0.2568628787994385,1.6274809837341309,0.2676403495595238,80.0,803.0,0.0
G,D,"[6, 8]",1.0,4.0,0.32388806343078613,1.7426719665527344,0.3270913194855858,80.0,804.0,0.0
Y,R,"[6, 9]",1.0,5.0,0.3315160274505615,2.0027830600738525,0.5795509205778796,80.0,805.0,0.0
Y,R,"[6, 10]",1.0,6.0,0.27359485626220703,1.889158010482788,0.5021250040447129,80.0,806.0,0.0
R,U,"[5, 10]",1.0,7.0,0.2259681224822998,2.0338079929351807,0.7024694911454962,80.0,807.0,0.0
R,U,"[4, 10]",1.0,8.0,0.31297802925109863,2.0596790313720703,0.6456934450214031,80.0,808.0,0.0
B,L,"[4, 9]",1.0,9.0,0.31032299995422363,2.1203629970550537,0.6826187513040123,80.0,809.0,0.0
R,U,"[3, 9]",1.0,10.0,0.40681004524230957,2.2527408599853516,0.7353038353501631,80.0,810.0,0.0
,,"(6, 6)",,,,,,,,
R,U,"[5, 6]",1.0,1.0,0.3537559509277344,7.830699920654297,0.7161574474817036,81.0,811.0,0.0
Y,R,"[5, 7]",1.0,2.0,0.2458631992340088,1.6341168880462646,0.284078040247796,81.0,812.0,0.0
Y,R,"[5, 8]",1.0,3.0,0.30463600158691406,1.6809978485107422,0.28176767366096656,81.0,813.0,0.0
G,D,"[6, 8]",1.0,4.0,0.28235816955566406,2.032917022705078,0.6478211387929179,81.0,814.0,0.0
Y,R,"[6, 9]",1.0,5.0,0.2360401153564453,1.6793179512023926,0.3440228431608278,81.0,815.0,0.0
Y,R,"[6, 10]",1.0,6.0,0.27838802337646484,1.8396129608154297,0.4668481490550243,81.0,816.0,0.0
R,U,"[5, 10]",1.0,7.0,0.27749204635620117,1.7228782176971436,0.33996498859110136,81.0,817.0,0.0
R,U,"[4, 10]",1.0,8.0,0.2178959846496582,1.9103569984436035,0.5999650772336027,81.0,818.0,0.0
B,L,"[4, 9]",1.0,9.0,0.21825194358825684,2.038058042526245,0.7210725639146749,81.0,819.0,0.0
R,U,"[3, 9]",1.0,10.0,0.2042551040649414,1.6419198513031006,0.3303429589577023,81.0,820.0,0.0
,,"(6, 6)",,,,,,,,
R,U,"[5, 6]",1.0,1.0,0.6537649631500244,4.070976972579956,0.26792039293166614,82.0,821.0,0.0
Y,R,"[5, 7]",1.0,2.0,0.303631067276001,2.1309750080108643,0.7320462204788338,82.0,822.0,0.0
Y,R,"[5, 8]",1.0,3.0,0.27628397941589355,2.061033010482788,0.6762305107656592,82.0,823.0,0.0
G,D,"[6, 8]",1.0,4.0,0.1923520565032959,1.7643399238586426,0.4741942210072902,82.0,824.0,0.0
Y,R,"[6, 9]",1.0,5.0,0.3367421627044678,1.8103139400482178,0.38472216202368525,82.0,825.0,0.0
Y,R,"[6, 10]",1.0,6.0,0.27887582778930664,2.114495038986206,0.7321498972692776,82.0,826.0,0.0
R,U,"[5, 10]",1.0,7.0,0.2184901237487793,1.9101409912109375,0.5925397785687992,82.0,827.0,0.0
R,U,"[4, 10]",1.0,8.0,0.21877717971801758,1.662693977355957,0.35551317859219567,82.0,828.0,0.0
B,L,"[4, 9]",1.0,9.0,0.2551460266113281,2.0943830013275146,0.7494616149590774,82.0,829.0,0.0
R,U,"[3, 9]",1.0,10.0,0.22426486015319824,1.8959240913391113,0.5624158741887832,82.0,830.0,0.0
,,"(6, 6)",,,,,,,,
R,U,"[5, 6]",1.0,1.0,0.48387598991394043,3.868096113204956,0.7136771525745593,83.0,831.0,0.0
Y,R,"[5, 7]",1.0,2.0,0.2824878692626953,1.9875869750976562,0.601347330066784,83.0,832.0,0.0
Y,R,"[5, 8]",1.0,3.0,0.2592799663543701,1.8414499759674072,0.47624423306165803,83.0,833.0,0.0
G,D,"[6, 8]",1.0,4.0,0.24403905868530273,1.69828200340271,0.3580207333654714,83.0,834.0,0.0
Y,R,"[6, 9]",1.0,5.0,0.2690889835357666,1.7315049171447754,0.3726935009695271,83.0,835.0,0.0
Y,R,"[6, 10]",1.0,6.0,0.23799395561218262,1.7301161289215088,0.40313314777394743,83.0,836.0,0.0
R,U,"[5, 10]",1.0,7.0,0.36461615562438965,1.9019479751586914,0.4382247015161208,83.0,837.0,0.0
R,U,"[4, 10]",1.0,8.0,0.22377896308898926,1.75773286819458,0.4293182826632484,83.0,838.0,0.0
B,L,"[4, 9]",1.0,9.0,0.23433899879455566,2.009507894515991,0.6721154783609408,83.0,839.0,0.0
R,U,"[3, 9]",-1.0,9.0,0.02435302734375,5.628233909606934,0.48383862915035725,83.0,840.0,0.0
,,"(6, 6)",,,,,,,,
R,U,"[5, 6]",1.0,1.0,0.47336483001708984,4.429058074951172,0.6294551966671723,84.0,841.0,0.0
Y,R,"[5, 7]",1.0,2.0,0.25998401641845703,1.8966619968414307,0.5262503933848582,84.0,842.0,0.0
Y,R,"[5, 8]",1.0,3.0,0.28403592109680176,1.7749409675598145,0.4012043448177191,84.0,843.0,0.0
G,D,"[6, 8]",1.0,4.0,0.266185998916626,2.0298781394958496,0.6644560995780137,84.0,844.0,0.0
Y,R,"[6, 9]",1.0,5.0,0.36490607261657715,2.102269172668457,0.6334225901543838,84.0,845.0,0.0
Y,R,"[6, 10]",1.0,6.0,0.251147985458374,2.092095136642456,0.7419809280920256,84.0,846.0,0.0
R,U,"[5, 10]",1.0,7.0,0.2679109573364258,1.8888680934906006,0.5311059076057132,84.0,847.0,0.0
R,U,"[4, 10]",1.0,8.0,0.403242826461792,1.8765249252319336,0.3745095469939419,84.0,848.0,0.0
B,L,"[4, 9]",1.0,9.0,0.45920896530151367,2.076002836227417,0.5170568284386892,84.0,849.0,0.0
R,U,"[3, 9]",1.0,10.0,0.3213071823120117,1.94986891746521,0.5170469597130167,84.0,850.0,0.0
,,"(6, 6)",,,,,,,,
R,U,"[5, 6]",1.0,1.0,0.4454309940338135,4.249819993972778,0.533627206493186,85.0,851.0,0.0
Y,R,"[5, 7]",1.0,2.0,0.3261539936065674,1.9342329502105713,0.5012012365111777,85.0,852.0,0.0
Y,R,"[5, 8]",1.0,3.0,0.25774693489074707,1.9200451374053955,0.5544759705039208,85.0,853.0,0.0
G,D,"[6, 8]",1.0,4.0,0.22264695167541504,1.6041350364685059,0.27562107773982214,85.0,854.0,0.0
Y,R,"[6, 9]",1.0,5.0,0.2844269275665283,1.8460049629211426,0.47145501303004544,85.0,855.0,0.0
Y,R,"[6, 10]",1.0,6.0,0.2316269874572754,2.025585889816284,0.6968359504496658,85.0,856.0,0.0
R,U,"[5, 10]",-1.0,6.0,0.0085601806640625,5.522017002105713,0.38582344836791366,85.0,857.0,0.0
R,U,"[4, 10]",1.0,7.0,0.35214900970458984,1.7746140956878662,0.32732879639259566,85.0,858.0,0.0
B,L,"[4, 9]",1.0,8.0,0.3260469436645508,2.1115589141845703,0.6888822762335809,85.0,859.0,0.0
R,U,"[3, 9]",1.0,9.0,0.2705550193786621,1.8663249015808105,0.505100620190316,85.0,860.0,0.0
,,"(6, 6)",,,,,,,,
R,U,"[5, 6]",1.0,1.0,0.6108889579772949,4.197749853134155,0.6027967953232027,86.0,861.0,0.0
Y,R,"[5, 7]",1.0,2.0,0.32924914360046387,1.8882639408111572,0.4576845479339289,86.0,862.0,0.0
Y,R,"[5, 8]",1.0,3.0,0.3637080192565918,1.924941062927246,0.4661573841315601,86.0,863.0,0.0
G,D,"[6, 8]",1.0,4.0,0.2974729537963867,2.003800868988037,0.6032173078765117,86.0,864.0,0.0
Y,R,"[6, 9]",1.0,5.0,0.4054300785064697,1.7924888134002686,0.2792507024719183,86.0,865.0,0.0
Y,R,"[6, 10]",1.0,6.0,0.36525583267211914,2.185835838317871,0.698048288817335,86.0,866.0,0.0
R,U,"[5, 10]",1.0,7.0,0.4054138660430908,2.0072269439697266,0.5056445378496721,86.0,867.0,0.0
R,U,"[4, 10]",1.0,8.0,0.3093400001525879,1.6960620880126953,0.2852571382916752,86.0,868.0,0.0
B,L,"[4, 9]",1.0,9.0,0.31151795387268066,1.855403184890747,0.4404144952666424,86.0,869.0,0.0
R,U,"[3, 9]",1.0,10.0,0.315479040145874,1.7012689113616943,0.29193449882247385,86.0,870.0,0.0
,,"(6, 6)",,,,,,,,
R,U,"[5, 6]",1.0,1.0,0.5152461528778076,4.866595983505249,0.34140493013475154,87.0,871.0,0.0
Y,R,"[5, 7]",1.0,2.0,0.2780420780181885,1.7612769603729248,0.38648088470225717,87.0,872.0,0.0
Y,R,"[5, 8]",1.0,3.0,0.24929189682006836,2.0088090896606445,0.6616329140217865,87.0,873.0,0.0
G,D,"[6, 8]",1.0,4.0,0.20045804977416992,1.9436039924621582,0.6552492923585327,87.0,874.0,0.0
Y,R,"[6, 9]",1.0,5.0,0.21750187873840332,1.9279630184173584,0.6167620910375778,87.0,875.0,0.0
Y,R,"[6, 10]",1.0,6.0,0.294389009475708,1.8294320106506348,0.4293620807225537,87.0,876.0,0.0
R,U,"[5, 10]",1.0,7.0,0.3320910930633545,1.7237660884857178,0.28686165192252816,87.0,877.0,0.0
R,U,"[4, 10]",1.0,8.0,0.2484138011932373,1.6773169040679932,0.3309276407461301,87.0,878.0,0.0
B,L,"[4, 9]",1.0,9.0,0.27666401863098145,2.040808916091919,0.6547383487423339,87.0,879.0,0.0
R,U,"[3, 9]",1.0,10.0,0.23912596702575684,1.8380868434906006,0.4929942903660112,87.0,880.0,0.0
,,"(6, 6)",,,,,,,,
R,U,"[5, 6]",1.0,1.0,0.5584030151367188,4.06677508354187,0.40999591061463353,88.0,881.0,0.0
Y,R,"[5, 7]",1.0,2.0,0.2890779972076416,2.083725929260254,0.6934945255383699,88.0,882.0,0.0
Y,R,"[5, 8]",1.0,3.0,0.2261500358581543,2.0048890113830566,0.6817437438680352,88.0,883.0,0.0
G,D,"[6, 8]",1.0,4.0,0.295396089553833,1.9577209949493408,0.5562228769437174,88.0,884.0,0.0
Y,R,"[6, 9]",1.0,5.0,0.21227002143859863,1.5602648258209229,0.25011708692079365,88.0,885.0,0.0
Y,R,"[6, 10]",1.0,6.0,0.3007800579071045,1.6945788860321045,0.29467179155452605,88.0,886.0,0.0
R,U,"[5, 10]",1.0,7.0,0.39037394523620605,2.024561882019043,0.5356646961515955,88.0,887.0,0.0
R,U,"[4, 10]",1.0,8.0,0.29306888580322266,1.9255828857421875,0.5280585507104211,88.0,888.0,0.0
B,L,"[4, 9]",1.0,9.0,0.31847405433654785,1.9378631114959717,0.5324340257578148,88.0,889.0,0.0
R,U,"[3, 9]",1.0,10.0,0.2878119945526123,1.8020129203796387,0.41801075360538686,88.0,890.0,0.0
,,"(6, 6)",,,,,,,,
R,U,"[5, 6]",1.0,1.0,0.5094380378723145,2.815664052963257,0.28386136222603414,89.0,891.0,0.0
Y,R,"[5, 7]",1.0,2.0,0.24303007125854492,1.8722209930419922,0.5225214878767133,89.0,892.0,0.0
Y,R,"[5, 8]",1.0,3.0,0.2624330520629883,1.9707589149475098,0.609980647928698,89.0,893.0,0.0
G,D,"[6, 8]",1.0,4.0,0.19080805778503418,1.6851999759674072,0.3953356635205636,89.0,894.0,0.0
Y,R,"[6, 9]",1.0,5.0,0.2605750560760498,1.7124381065368652,0.3579288332898107,89.0,895.0,0.0
Y,R,"[6, 10]",1.0,6.0,0.2391200065612793,1.7190120220184326,0.3768739770400527,89.0,896.0,0.0
R,U,"[5, 10]",1.0,7.0,0.2603158950805664,1.6631171703338623,0.306703669665483,89.0,897.0,0.0
R,U,"[4, 10]",1.0,8.0,0.27372193336486816,1.9370949268341064,0.5602299505428066,89.0,898.0,0.0
B,L,"[4, 9]",1.0,9.0,0.23238801956176758,1.8060259819030762,0.4830382284931726,89.0,899.0,0.0
R,U,"[3, 9]",1.0,10.0,0.22795987129211426,1.6948280334472656,0.3612859653659228,89.0,900.0,0.0
,,"(6, 6)",,,,,,,,
R,U,"[5, 6]",1.0,1.0,0.5208489894866943,4.871265172958374,0.41610603126250245,90.0,901.0,0.0
Y,R,"[5, 7]",1.0,2.0,0.2725040912628174,2.1142289638519287,0.7299403965796307,90.0,902.0,0.0
Y,R,"[5, 8]",1.0,3.0,0.2738168239593506,1.916290044784546,0.5297547644290188,90.0,903.0,0.0
G,D,"[6, 8]",1.0,4.0,0.28119397163391113,1.918623924255371,0.5318298869774118,90.0,904.0,0.0
Y,R,"[6, 9]",1.0,5.0,0.2747228145599365,1.71760892868042,0.3329477793928931,90.0,905.0,0.0
Y,R,"[6, 10]",1.0,6.0,0.3229842185974121,2.0934929847717285,0.6594593480400648,90.0,906.0,0.0
R,U,"[5, 10]",1.0,7.0,0.24983596801757812,1.8790628910064697,0.5387475824976846,90.0,907.0,0.0
R,U,"[4, 10]",1.0,8.0,0.19934606552124023,1.7641339302062988,0.46956217982296966,90.0,908.0,0.0
B,L,"[4, 9]",1.0,9.0,0.2379438877105713,2.0725350379943848,0.7419429324586803,90.0,909.0,0.0
R,U,"[3, 9]",1.0,10.0,0.2162339687347412,1.8213458061218262,0.5132490097365422,90.0,910.0,0.0
,,"(6, 6)",,,,,,,,
R,U,"[5, 6]",1.0,1.0,0.47144103050231934,10.845365047454834,0.3757806714552559,91.0,911.0,0.0
Y,R,"[5, 7]",1.0,2.0,0.2589719295501709,1.9741129875183105,0.6164167345278493,91.0,912.0,0.0
Y,R,"[5, 8]",1.0,3.0,0.26567697525024414,1.6823360919952393,0.31578028533142055,91.0,913.0,0.0
G,D,"[6, 8]",1.0,4.0,0.2736070156097412,1.7064452171325684,0.32224218226278273,91.0,914.0,0.0
Y,R,"[6, 9]",1.0,5.0,0.2224888801574707,1.918323040008545,0.6067633280733716,91.0,915.0,0.0
Y,R,"[6, 10]",1.0,6.0,0.2430868148803711,2.065192937850952,0.7220831878090269,91.0,916.0,0.0
R,U,"[5, 10]",-1.0,6.0,0.02951812744140625,5.637754917144775,0.47673599964866564,91.0,917.0,0.0
R,U,"[4, 10]",1.0,7.0,0.2911558151245117,1.9688220024108887,0.5788996672560158,91.0,918.0,0.0
B,L,"[4, 9]",1.0,8.0,0.27457618713378906,1.6236159801483154,0.2527851524522384,91.0,919.0,0.0
R,U,"[3, 9]",1.0,9.0,0.34630703926086426,1.9659569263458252,0.5184729984283879,91.0,920.0,0.0
,,"(6, 6)",,,,,,,,
R,U,"[5, 6]",1.0,1.0,0.4824180603027344,4.159137964248657,0.6112832200785451,92.0,921.0,0.0
Y,R,"[5, 7]",1.0,2.0,0.29484105110168457,1.796910047531128,0.408057727877525,92.0,922.0,0.0
Y,R,"[5, 8]",1.0,3.0,0.24587082862854004,1.960932970046997,0.6193755055116148,92.0,923.0,0.0
G,D,"[6, 8]",1.0,4.0,0.22250699996948242,1.8773679733276367,0.5630004770820239,92.0,924.0,0.0
Y,R,"[6, 9]",1.0,5.0,0.23402905464172363,1.9718940258026123,0.634931960234782,92.0,925.0,0.0
Y,R,"[6, 10]",1.0,6.0,0.2536489963531494,1.9287171363830566,0.5803923046762689,92.0,926.0,0.0
R,U,"[5, 10]",1.0,7.0,0.4183809757232666,2.017353057861328,0.4979384499157878,92.0,927.0,0.0
R,U,"[4, 10]",1.0,8.0,0.20380401611328125,1.8575241565704346,0.5554869926951146,92.0,928.0,0.0
B,L,"[4, 9]",1.0,9.0,0.33858799934387207,1.773940086364746,0.3463643674333022,92.0,929.0,0.0
R,U,"[3, 9]",1.0,10.0,0.32048606872558594,2.0970351696014404,0.676517055329174,92.0,930.0,0.0
,,"(6, 6)",,,,,,,,
R,U,"[5, 6]",1.0,1.0,0.5375730991363525,3.473383903503418,0.40035272262712,93.0,931.0,0.0
Y,R,"[5, 7]",1.0,2.0,0.2657909393310547,2.0962278842926025,0.7296036444686873,93.0,932.0,0.0
Y,R,"[5, 8]",1.0,3.0,0.2402491569519043,2.097501039505005,0.7438607393996767,93.0,933.0,0.0
G,D,"[6, 8]",1.0,4.0,0.14975309371948242,1.682344913482666,0.44310131521946144,93.0,934.0,0.0
Y,R,"[6, 9]",1.0,5.0,0.1955280303955078,1.8129668235778809,0.5228653953228485,93.0,935.0,0.0
Y,R,"[6, 10]",1.0,6.0,0.24590396881103516,1.9613609313964844,0.6173537553597235,93.0,936.0,0.0
R,U,"[5, 10]",1.0,7.0,0.2206268310546875,1.9565329551696777,0.6407498606205492,93.0,937.0,0.0
R,U,"[4, 10]",1.0,8.0,0.24138784408569336,1.6431190967559814,0.3006279835635911,93.0,938.0,0.0
B,L,"[4, 9]",1.0,9.0,0.27439308166503906,1.7190570831298828,0.3365233730091881,93.0,939.0,0.0
R,U,"[3, 9]",1.0,10.0,0.24484682083129883,2.0516459941864014,0.7045528937602152,93.0,940.0,0.0
,,"(6, 6)",,,,,,,,
R,U,"[5, 6]",1.0,1.0,0.4876539707183838,3.888576030731201,0.5767744796966906,94.0,941.0,0.0
Y,R,"[5, 7]",1.0,2.0,0.2476961612701416,1.9678120613098145,0.6278928081771397,94.0,942.0,0.0
Y,R,"[5, 8]",1.0,3.0,0.22316908836364746,1.5765149593353271,0.2548092786537301,94.0,943.0,0.0
G,D,"[6, 8]",1.0,4.0,0.21794700622558594,1.8196768760681152,0.5076787876750559,94.0,944.0,0.0
Y,R,"[6, 9]",1.0,5.0,0.21704792976379395,1.8623278141021729,0.5532961957042698,94.0,945.0,0.0
Y,R,"[6, 10]",1.0,6.0,0.21927309036254883,1.7237329483032227,0.41056964567722465,94.0,946.0,0.0
R,U,"[5, 10]",1.0,7.0,0.26384711265563965,1.7074129581451416,0.3515452656247095,94.0,947.0,0.0
R,U,"[4, 10]",1.0,8.0,0.26429104804992676,1.8152329921722412,0.45006462009146264,94.0,948.0,0.0
B,L,"[4, 9]",1.0,9.0,0.21962904930114746,1.8953979015350342,0.5787396685047074,94.0,949.0,0.0
R,U,"[3, 9]",1.0,10.0,0.2948441505432129,2.1255478858947754,0.7373899532055932,94.0,950.0,0.0
,,"(6, 6)",,,,,,,,
R,U,"[5, 6]",1.0,1.0,0.5027189254760742,3.7984609603881836,0.6029344927775571,95.0,951.0,0.0
Y,R,"[5, 7]",1.0,2.0,0.22937488555908203,1.8497071266174316,0.5189429484098078,95.0,952.0,0.0
Y,R,"[5, 8]",1.0,3.0,0.21128606796264648,1.630789041519165,0.31701207040038853,95.0,953.0,0.0
G,D,"[6, 8]",1.0,4.0,0.2652010917663574,2.0284831523895264,0.6617721074775096,95.0,954.0,0.0
Y,R,"[6, 9]",1.0,5.0,0.19739294052124023,1.7762739658355713,0.48842497403924395,95.0,955.0,0.0
Y,R,"[6, 10]",1.0,6.0,0.1923508644104004,1.9310188293457031,0.6360988971806283,95.0,956.0,0.0
R,U,"[5, 10]",1.0,7.0,0.2290658950805664,1.9703259468078613,0.6395617845295989,95.0,957.0,0.0
R,U,"[4, 10]",1.0,8.0,0.21444296836853027,1.8477199077606201,0.5376942470964885,95.0,958.0,0.0
B,L,"[4, 9]",1.0,9.0,0.2590789794921875,1.8871889114379883,0.5249578154283931,95.0,959.0,0.0
R,U,"[3, 9]",1.0,10.0,0.30002903938293457,2.0241851806640625,0.6323321321727762,95.0,960.0,0.0
,,"(6, 6)",,,,,,,,
R,U,"[5, 6]",1.0,1.0,0.5174438953399658,3.585066080093384,0.4844898703100792,96.0,961.0,0.0
Y,R,"[5, 7]",1.0,2.0,0.23895001411437988,1.6471099853515625,0.2983116176644877,96.0,962.0,0.0
Y,R,"[5, 8]",1.0,3.0,0.2546060085296631,1.6767301559448242,0.32515777991373307,96.0,963.0,0.0
G,D,"[6, 8]",1.0,4.0,0.24600601196289062,1.8103439807891846,0.4687244160021708,96.0,964.0,0.0
Y,R,"[6, 9]",1.0,5.0,0.19639801979064941,1.661012887954712,0.3631807899421665,96.0,965.0,0.0
Y,R,"[6, 10]",1.0,6.0,0.2437880039215088,1.9951448440551758,0.6414738601745978,96.0,966.0,0.0
R,U,"[5, 10]",1.0,7.0,0.2165069580078125,1.7125098705291748,0.4043330136400109,96.0,967.0,0.0
R,U,"[4, 10]",1.0,8.0,0.21636295318603516,1.8811309337615967,0.5686252642506417,96.0,968.0,0.0
B,L,"[4, 9]",1.0,9.0,0.2438220977783203,1.742041826248169,0.3943430840439646,96.0,969.0,0.0
R,U,"[3, 9]",1.0,10.0,0.29635000228881836,2.114243984222412,0.7249004380968396,96.0,970.0,0.0
,,"(6, 6)",,,,,,,,
R,U,"[5, 6]",1.0,1.0,0.4411468505859375,4.0327911376953125,0.6079376198359013,97.0,971.0,0.0
Y,R,"[5, 7]",1.0,2.0,0.2767808437347412,1.8991899490356445,0.5239193110945206,97.0,972.0,0.0
Y,R,"[5, 8]",1.0,3.0,0.2209031581878662,1.9087610244750977,0.5660466889943438,97.0,973.0,0.0
G,D,"[6, 8]",1.0,4.0,0.23603510856628418,1.9556341171264648,0.6217778386422474,97.0,974.0,0.0
Y,R,"[6, 9]",1.0,5.0,0.1172029972076416,1.5088849067687988,0.29767392608194904,97.0,975.0,0.0
Y,R,"[6, 10]",1.0,6.0,0.2904078960418701,2.0177459716796875,0.6150579478683555,97.0,976.0,0.0
R,U,"[5, 10]",1.0,7.0,0.18009686470031738,1.729452133178711,0.4447035739557687,97.0,977.0,0.0
R,U,"[4, 10]",1.0,8.0,0.14656805992126465,1.951179027557373,0.7124142809951903,97.0,978.0,0.0
B,L,"[4, 9]",1.0,9.0,0.12968993186950684,1.9614830017089844,0.7239613966349714,97.0,979.0,0.0
R,U,"[3, 9]",1.0,10.0,0.2657010555267334,1.907249927520752,0.5481086029147328,97.0,980.0,0.0
,,"(6, 6)",,,,,,,,
R,U,"[5, 6]",1.0,1.0,0.4939079284667969,5.0536789894104,0.41856733694447923,98.0,981.0,0.0
Y,R,"[5, 7]",1.0,2.0,0.3107481002807617,2.1561319828033447,0.7411765558160999,98.0,982.0,0.0
Y,R,"[5, 8]",1.0,3.0,0.25632309913635254,1.713287115097046,0.3550833074137394,98.0,983.0,0.0
G,D,"[6, 8]",1.0,4.0,0.2939341068267822,2.033393144607544,0.6381996909260261,98.0,984.0,0.0
Y,R,"[6, 9]",1.0,5.0,0.22446894645690918,1.964689016342163,0.6362377260349492,98.0,985.0,0.0
Y,R,"[6, 10]",1.0,6.0,0.2682919502258301,1.672637939453125,0.30922919804341364,98.0,986.0,0.0
R,U,"[5, 10]",1.0,7.0,0.28314805030822754,1.8394200801849365,0.4653409330106703,98.0,987.0,0.0
R,U,"[4, 10]",1.0,8.0,0.33621788024902344,1.7521870136260986,0.3175540261705957,98.0,988.0,0.0
B,L,"[4, 9]",1.0,9.0,0.3502688407897949,2.1239700317382812,0.6745897293947214,98.0,989.0,0.0
R,U,"[3, 9]",1.0,10.0,0.3439791202545166,1.7518689632415771,0.310228500656231,98.0,990.0,0.0
,,"(6, 6)",,,,,,,,
R,U,"[5, 6]",1.0,1.0,0.5280859470367432,3.840658187866211,0.5340970052471878,99.0,991.0,0.0
Y,R,"[5, 7]",1.0,2.0,0.2452101707458496,1.6017301082611084,0.25286095521181623,99.0,992.0,0.0
Y,R,"[5, 8]",1.0,3.0,0.27924299240112305,1.8870351314544678,0.5063754284564024,99.0,993.0,0.0
G,D,"[6, 8]",1.0,4.0,0.25396013259887695,1.6538841724395752,0.31064208083702927,99.0,994.0,0.0
Y,R,"[6, 9]",1.0,5.0,0.31372904777526855,1.6911230087280273,0.28506363046680155,99.0,995.0,0.0
Y,R,"[6, 10]",1.0,6.0,0.29079198837280273,2.056879997253418,0.658295952013511,99.0,996.0,0.0
R,U,"[5, 10]",1.0,7.0,0.16094183921813965,1.7294249534606934,0.47129856039765494,99.0,997.0,0.0
R,U,"[4, 10]",1.0,8.0,0.22951197624206543,1.8308229446411133,0.502231923576438,99.0,998.0,0.0
B,L,"[4, 9]",1.0,9.0,0.2283480167388916,1.9044361114501953,0.57316020175404,99.0,999.0,0.0
R,U,"[3, 9]",1.0,10.0,0.2363147735595703,1.742408037185669,0.4159537019347429,99.0,1000.0,0.0
