button_choice,action_choice,coordinate_choice,reward,cumulative_reward,rt,total_trial_time,iti,block_n,trial_n,trial_type
B,L,"[6, 5]",-2.0,0.0,1.3806061744689941,3.108186960220337,0.7421419920358521,0.0,1.0,0.0
R,U,"[5, 5]",0.0,0.0,0.40371012687683105,1.8654670715332031,0.4743501339612189,0.0,2.0,0.0
Y,R,"[5, 6]",1.0,1.0,0.4309968948364258,1.735062837600708,0.3096305796708216,0.0,3.0,0.0
G,D,"[6, 6]",0.0,1.0,0.7746119499206543,2.3039638996124268,0.5300261975230975,0.0,4.0,0.0
Y,R,"[6, 7]",0.0,1.0,0.3909909725189209,1.7658100128173828,0.36259414348979446,0.0,5.0,0.0
B,L,"[6, 6]",0.0,1.0,0.2342519760131836,1.6485629081726074,0.4110840210309279,0.0,6.0,0.0
R,U,"[5, 6]",0.0,1.0,0.2719230651855469,1.5420379638671875,0.28642842568962734,0.0,7.0,0.0
Y,R,"[5, 7]",1.0,2.0,0.4509119987487793,1.8773560523986816,0.43034317592418264,0.0,8.0,0.0
R,U,"[4, 7]",0.0,2.0,0.22068309783935547,1.8643109798431396,0.6444107883874736,0.0,9.0,0.0
Y,R,"[4, 8]",0.0,2.0,0.38855504989624023,1.6614561080932617,0.2894435965833934,0.0,10.0,0.0
,,"(6, 6)",,,,,,,,
Y,R,"[6, 7]",0.0,0.0,0.5306229591369629,3.7663631439208984,0.37231431039624363,1.0,11.0,0.0
B,L,"[6, 6]",0.0,0.0,0.26219987869262695,1.59055495262146,0.32964175732926093,1.0,12.0,0.0
Y,R,"[6, 7]",0.0,0.0,0.2253880500793457,1.8342339992523193,0.5968618177236351,1.0,13.0,0.0
G,D,"[7, 7]",0.0,0.0,0.1425471305847168,1.503859043121338,0.3509508187704392,1.0,14.0,0.0
B,L,"[7, 6]",0.0,0.0,0.2688770294189453,1.9436030387878418,0.6779471567243152,1.0,15.0,0.0
R,U,"[6, 6]",0.0,0.0,0.23646807670593262,1.688323974609375,0.4660286346367347,1.0,16.0,0.0
R,U,"[5, 6]",1.0,1.0,0.38744688034057617,1.832855224609375,0.4488171799776809,1.0,17.0,0.0
R,U,"[4, 6]",0.0,1.0,0.5311648845672607,2.162868022918701,0.6283214020329057,1.0,18.0,0.0
Y,R,"[4, 7]",0.0,1.0,0.35108399391174316,1.9691720008850098,0.6305314853982661,1.0,19.0,0.0
B,L,"[4, 6]",0.0,1.0,0.25308704376220703,1.57554292678833,0.3231313865108691,1.0,20.0,0.0
,,"(6, 6)",,,,,,,,
Y,R,"[6, 7]",0.0,0.0,0.45608997344970703,4.227231025695801,0.4335265818507833,2.0,21.0,0.0
R,U,"[5, 7]",1.0,1.0,0.34169888496398926,2.071784019470215,0.7216185507311268,2.0,22.0,0.0
G,D,"[6, 7]",0.0,1.0,0.20920705795288086,1.4725630283355713,0.26119620935815685,2.0,23.0,0.0
B,L,"[6, 6]",0.0,1.0,0.40738606452941895,1.7071490287780762,0.30163372799064303,2.0,24.0,0.0
R,U,"[5, 6]",1.0,2.0,0.19563817977905273,1.837082862854004,0.6385875992649128,2.0,25.0,0.0
G,D,"[6, 6]",0.0,2.0,0.2783381938934326,1.9309618473052979,0.6525199456824582,2.0,26.0,0.0
Y,R,"[6, 7]",0.0,2.0,0.19096803665161133,1.6152229309082031,0.4178780995238094,2.0,27.0,0.0
R,U,"[5, 7]",0.0,2.0,0.2272801399230957,1.756761074066162,0.5245220203639165,2.0,28.0,0.0
Y,R,"[5, 8]",1.0,3.0,0.18059611320495605,1.8310348987579346,0.6553374482593517,2.0,29.0,0.0
B,L,"[5, 7]",0.0,3.0,0.20393610000610352,1.8726768493652344,0.6780323137440523,2.0,30.0,0.0
,,"(6, 6)",,,,,,,,
Y,R,"[6, 7]",0.0,0.0,0.7406721115112305,5.117264986038208,0.2955776039544355,3.0,31.0,0.0
B,L,"[6, 6]",0.0,0.0,0.5951271057128906,1.8915841579437256,0.3037472743802476,3.0,32.0,0.0
Y,R,"[6, 7]",0.0,0.0,0.32854390144348145,1.6916420459747314,0.3619946547861023,3.0,33.0,0.0
R,U,"[5, 7]",1.0,1.0,0.26988697052001953,1.6294898986816406,0.37470817895189995,3.0,34.0,0.0
R,U,"[4, 7]",0.0,1.0,0.5498471260070801,2.0978808403015137,0.5557659676644622,3.0,35.0,0.0
Y,R,"[4, 8]",0.0,1.0,0.23085403442382812,1.879706859588623,0.6518504789867892,3.0,36.0,0.0
G,D,"[5, 8]",1.0,2.0,0.1984848976135254,1.903620958328247,0.7054139239975963,3.0,37.0,0.0
B,L,"[5, 7]",0.0,2.0,0.19775104522705078,1.5957200527191162,0.4014799712172436,3.0,38.0,0.0
G,D,"[6, 7]",0.0,2.0,0.3014659881591797,1.861680030822754,0.5630058487000353,3.0,39.0,0.0
R,U,"[5, 7]",0.0,2.0,0.2107410430908203,1.8935918807983398,0.6732973443161355,3.0,40.0,0.0
,,"(6, 6)",,,,,,,,
R,U,"[5, 6]",1.0,1.0,0.8098878860473633,4.142518997192383,0.46560655627742054,4.0,41.0,0.0
Y,R,"[5, 7]",1.0,2.0,0.29937100410461426,1.7119510173797607,0.41091116672529726,4.0,42.0,0.0
R,U,"[4, 7]",0.0,2.0,0.40039896965026855,1.9585211277008057,0.5692647930882588,4.0,43.0,0.0
G,D,"[5, 7]",0.0,2.0,0.2417299747467041,1.6868841648101807,0.43959768620535317,4.0,44.0,0.0
B,L,"[5, 6]",0.0,2.0,0.24961400032043457,1.5763201713562012,0.3325639888285706,4.0,45.0,0.0
Y,R,"[5, 7]",0.0,2.0,0.26801300048828125,1.5225751399993896,0.2552723140749227,4.0,46.0,0.0
R,U,"[4, 7]",0.0,2.0,0.3343479633331299,1.8988080024719238,0.5703608553926045,4.0,47.0,0.0
R,U,"[3, 7]",0.0,2.0,0.21132802963256836,1.8628888130187988,0.6497885676816152,4.0,48.0,0.0
B,L,"[3, 6]",0.0,2.0,0.27971816062927246,1.6534829139709473,0.37015783215225295,4.0,49.0,0.0
G,D,"[4, 6]",0.0,2.0,0.352078914642334,1.993541955947876,0.6467433168762755,4.0,50.0,0.0
,,"(6, 6)",,,,,,,,
R,U,"[5, 6]",1.0,1.0,0.4136519432067871,3.696465015411377,0.2766854166873204,5.0,51.0,0.0
Y,R,"[5, 7]",1.0,2.0,0.32148003578186035,1.8126959800720215,0.5058296779905794,5.0,52.0,0.0
Y,R,"[5, 8]",1.0,3.0,0.20275306701660156,1.523906946182251,0.3299450066707579,5.0,53.0,0.0
G,D,"[6, 8]",1.0,4.0,0.3143160343170166,1.753403902053833,0.4331342103646585,5.0,54.0,0.0
Y,R,"[6, 9]",1.0,5.0,0.25425195693969727,1.5895638465881348,0.3227390359347786,5.0,55.0,0.0
Y,R,"[6, 10]",1.0,6.0,0.2988438606262207,1.8659379482269287,0.5717601387737847,5.0,56.0,0.0
R,U,"[5, 10]",1.0,7.0,0.19037389755249023,1.6571509838104248,0.4622783603178517,5.0,57.0,0.0
R,U,"[4, 10]",1.0,8.0,0.25104498863220215,1.8689510822296143,0.6143926359784608,5.0,58.0,0.0
B,L,"[4, 9]",1.0,9.0,0.1947948932647705,1.5976359844207764,0.39548620637017645,5.0,59.0,0.0
R,U,"[3, 9]",1.0,10.0,0.25514698028564453,1.6260199546813965,0.35496605016020366,5.0,60.0,0.0
,,"(6, 6)",,,,,,,,
R,U,"[5, 6]",1.0,1.0,0.3339569568634033,3.1120669841766357,0.7331748281376893,6.0,61.0,0.0
Y,R,"[5, 7]",1.0,2.0,0.1975090503692627,1.8073749542236328,0.6072936396884707,6.0,62.0,0.0
Y,R,"[5, 8]",1.0,3.0,0.20647788047790527,1.6060278415679932,0.4135117173134898,6.0,63.0,0.0
G,D,"[6, 8]",1.0,4.0,0.2648169994354248,1.6261348724365234,0.35629089748027093,6.0,64.0,0.0
Y,R,"[6, 9]",1.0,5.0,0.23124194145202637,1.7592880725860596,0.5320193291199335,6.0,65.0,0.0
Y,R,"[6, 10]",1.0,6.0,0.1794900894165039,1.6244831085205078,0.43992182940632407,6.0,66.0,0.0
R,U,"[5, 10]",1.0,7.0,0.26879286766052246,1.9398810863494873,0.6796340472445556,6.0,67.0,0.0
R,U,"[4, 10]",1.0,8.0,0.18881988525390625,1.4537029266357422,0.25017303442767047,6.0,68.0,0.0
B,L,"[4, 9]",1.0,9.0,0.4067099094390869,1.8425660133361816,0.4259586076000057,6.0,69.0,0.0
R,U,"[3, 9]",1.0,10.0,0.22939205169677734,1.506523847579956,0.28246102882790214,6.0,70.0,0.0
,,"(6, 6)",,,,,,,,
R,U,"[5, 6]",1.0,1.0,0.3206508159637451,2.677933931350708,0.5934562807297817,7.0,71.0,0.0
Y,R,"[5, 7]",1.0,2.0,0.19107317924499512,1.5923058986663818,0.4025075236603605,7.0,72.0,0.0
Y,R,"[5, 8]",1.0,3.0,0.21218514442443848,1.5265130996704102,0.31252456337886964,7.0,73.0,0.0
G,D,"[6, 8]",1.0,4.0,0.2607100009918213,1.807417869567871,0.5364946112618332,7.0,74.0,0.0
Y,R,"[6, 9]",1.0,5.0,0.20362091064453125,1.74879789352417,0.5515596416670296,7.0,75.0,0.0
Y,R,"[6, 10]",1.0,6.0,0.1896510124206543,1.4397988319396973,0.25834106282836,7.0,76.0,0.0
R,U,"[5, 10]",1.0,7.0,0.43048810958862305,1.7504560947418213,0.32531562326029173,7.0,77.0,0.0
R,U,"[4, 10]",1.0,8.0,0.25928711891174316,1.9949579238891602,0.7365678809350015,7.0,78.0,0.0
B,L,"[4, 9]",-1.0,8.0,0.09937596321105957,5.56831693649292,0.405034382738195,7.0,79.0,0.0
R,U,"[3, 9]",1.0,9.0,0.24960994720458984,1.9049739837646484,0.6597214173450682,7.0,80.0,0.0
,,"(6, 6)",,,,,,,,
R,U,"[5, 6]",1.0,1.0,0.4975121021270752,2.349200963973999,0.35916103642456937,8.0,81.0,0.0
Y,R,"[5, 7]",1.0,2.0,0.41054201126098633,1.9947259426116943,0.5868410058202709,8.0,82.0,0.0
Y,R,"[5, 8]",1.0,3.0,0.8896019458770752,2.280646800994873,0.4010277381958905,8.0,83.0,0.0
G,D,"[6, 8]",1.0,4.0,0.6602208614349365,2.3763298988342285,0.7103225119386376,8.0,84.0,0.0
Y,R,"[6, 9]",1.0,5.0,0.23648405075073242,1.4992640018463135,0.27655313870225773,8.0,85.0,0.0
Y,R,"[6, 10]",1.0,6.0,0.7175638675689697,2.221590042114258,0.5146214601888599,8.0,86.0,0.0
R,U,"[5, 10]",1.0,7.0,0.5474469661712646,2.261573076248169,0.7091540417376558,8.0,87.0,0.0
R,U,"[4, 10]",1.0,8.0,0.1951138973236084,1.847236156463623,0.6564032771196796,8.0,88.0,0.0
B,L,"[4, 9]",1.0,9.0,0.22338199615478516,1.782400131225586,0.5556077648476062,8.0,89.0,0.0
R,U,"[3, 9]",1.0,10.0,0.24772000312805176,1.8877711296081543,0.6435953688002894,8.0,90.0,0.0
,,"(6, 6)",,,,,,,,
R,U,"[5, 6]",1.0,1.0,0.3107759952545166,2.6738669872283936,0.3673175741902368,9.0,91.0,0.0
Y,R,"[5, 7]",1.0,2.0,0.24505281448364258,1.6393802165985107,0.3899675716555991,9.0,92.0,0.0
Y,R,"[5, 8]",1.0,3.0,0.18869304656982422,1.5570640563964844,0.3635790215132903,9.0,93.0,0.0
G,D,"[6, 8]",1.0,4.0,0.2470688819885254,1.9082839488983154,0.6552837973133059,9.0,94.0,0.0
Y,R,"[6, 9]",1.0,5.0,0.1625990867614746,1.519205093383789,0.35769622248796634,9.0,95.0,0.0
Y,R,"[6, 10]",1.0,6.0,0.21232008934020996,1.6054110527038574,0.396362726538817,9.0,96.0,0.0
R,U,"[5, 10]",1.0,7.0,0.20580601692199707,1.5016260147094727,0.281312647759295,9.0,97.0,0.0
R,U,"[4, 10]",1.0,8.0,0.24668312072753906,1.627277135848999,0.3751359692748874,9.0,98.0,0.0
B,L,"[4, 9]",1.0,9.0,0.2700159549713135,1.8817269802093506,0.6231632911435846,9.0,99.0,0.0
R,U,"[3, 9]",1.0,10.0,0.2026689052581787,1.4659311771392822,0.27277090488137123,9.0,100.0,0.0
,,"(6, 6)",,,,,,,,
R,U,"[5, 6]",1.0,1.0,0.3182849884033203,2.4909701347351074,0.4134581254592971,10.0,101.0,0.0
Y,R,"[5, 7]",1.0,2.0,0.2469789981842041,1.751910924911499,0.4985760359124454,10.0,102.0,0.0
Y,R,"[5, 8]",1.0,3.0,0.19097685813903809,1.4804530143737793,0.2791216035278131,10.0,103.0,0.0
G,D,"[6, 8]",1.0,4.0,0.30763888359069824,1.994791030883789,0.6735374889099641,10.0,104.0,0.0
Y,R,"[6, 9]",1.0,5.0,0.17830491065979004,1.6017568111419678,0.42562515424600383,10.0,105.0,0.0
Y,R,"[6, 10]",1.0,6.0,0.21428203582763672,1.8723320960998535,0.6640671553174826,10.0,106.0,0.0
R,U,"[5, 10]",1.0,7.0,0.18494796752929688,1.8800909519195557,0.6943257251889836,10.0,107.0,0.0
R,U,"[4, 10]",1.0,8.0,0.20427680015563965,1.8334779739379883,0.6443337778089115,10.0,108.0,0.0
B,L,"[4, 9]",1.0,9.0,0.23134899139404297,1.6162941455841064,0.39397604324507335,10.0,109.0,0.0
R,U,"[3, 9]",1.0,10.0,0.2684791088104248,1.6993441581726074,0.4433133120862096,10.0,110.0,0.0
,,"(6, 6)",,,,,,,,
R,U,"[5, 6]",1.0,1.0,0.3863260746002197,2.6149380207061768,0.47473165440637605,11.0,111.0,0.0
Y,R,"[5, 7]",1.0,2.0,0.18552899360656738,1.7514920234680176,0.5760579184453957,11.0,112.0,0.0
Y,R,"[5, 8]",1.0,3.0,0.16653800010681152,1.4884281158447266,0.3314526569718462,11.0,113.0,0.0
G,D,"[6, 8]",1.0,4.0,0.2625160217285156,1.544640064239502,0.2760316089227876,11.0,114.0,0.0
Y,R,"[6, 9]",1.0,5.0,0.346146821975708,1.7388818264007568,0.3979742769931161,11.0,115.0,0.0
Y,R,"[6, 10]",1.0,6.0,0.21221017837524414,1.5421569347381592,0.32357660580000946,11.0,116.0,0.0
R,U,"[5, 10]",1.0,7.0,0.19481301307678223,1.7908039093017578,0.5973678971441583,11.0,117.0,0.0
R,U,"[4, 10]",1.0,8.0,0.19781017303466797,1.5086450576782227,0.30624290217059313,11.0,118.0,0.0
B,L,"[4, 9]",1.0,9.0,0.22876381874084473,1.6305019855499268,0.4031336073201348,11.0,119.0,0.0
R,U,"[3, 9]",1.0,10.0,0.22046184539794922,1.6899950504302979,0.4764034850897525,11.0,120.0,0.0
,,"(6, 6)",,,,,,,,
R,U,"[5, 6]",1.0,1.0,0.4299509525299072,2.504880905151367,0.6310824132346156,12.0,121.0,0.0
Y,R,"[5, 7]",1.0,2.0,0.17042016983032227,1.8895668983459473,0.720464405613526,12.0,122.0,0.0
Y,R,"[5, 8]",-1.0,2.0,0.010557889938354492,5.78006386756897,0.7170194335750484,12.0,123.0,0.0
G,D,"[6, 8]",1.0,3.0,0.3356809616088867,1.6822388172149658,0.34944035006734253,12.0,124.0,0.0
Y,R,"[6, 9]",1.0,4.0,0.3743619918823242,2.062034845352173,0.6778470281545701,12.0,125.0,0.0
Y,R,"[6, 10]",1.0,5.0,0.21530890464782715,1.7632839679718018,0.5578153755739799,12.0,126.0,0.0
R,U,"[5, 10]",1.0,6.0,0.1876211166381836,1.798901081085205,0.6066358485721837,12.0,127.0,0.0
R,U,"[4, 10]",1.0,7.0,0.1696789264678955,1.8757879734039307,0.7155144541392209,12.0,128.0,0.0
B,L,"[4, 9]",-1.0,7.0,0.06922006607055664,5.765162944793701,0.6304982910647214,12.0,129.0,0.0
B,L,"[4, 8]",0.0,7.0,0.2936289310455322,1.7280259132385254,0.4254274711556826,12.0,130.0,0.0
,,"(6, 6)",,,,,,,,
R,U,"[5, 6]",1.0,1.0,0.445598840713501,3.318368911743164,0.34372406070201067,13.0,131.0,0.0
Y,R,"[5, 7]",1.0,2.0,0.3853890895843506,1.8574578762054443,0.48425592007137447,13.0,132.0,0.0
Y,R,"[5, 8]",1.0,3.0,0.2175002098083496,1.791975975036621,0.5760967714987155,13.0,133.0,0.0
G,D,"[6, 8]",1.0,4.0,0.39322900772094727,1.8906879425048828,0.5001973827507866,13.0,134.0,0.0
Y,R,"[6, 9]",1.0,5.0,0.4731740951538086,2.1328139305114746,0.6494340828409966,13.0,135.0,0.0
Y,R,"[6, 10]",1.0,6.0,0.4067988395690918,2.148995876312256,0.7316421174225813,13.0,136.0,0.0
R,U,"[5, 10]",1.0,7.0,0.2638390064239502,1.8293938636779785,0.5610997232324016,13.0,137.0,0.0
R,U,"[4, 10]",1.0,8.0,0.4312100410461426,2.078763008117676,0.6563903903094486,13.0,138.0,0.0
B,L,"[4, 9]",1.0,9.0,0.30976414680480957,2.0099830627441406,0.6995841230319544,13.0,139.0,0.0
R,U,"[3, 9]",1.0,10.0,0.5311408042907715,2.0892398357391357,0.5554685556685515,13.0,140.0,0.0
,,"(6, 6)",,,,,,,,
R,U,"[5, 6]",1.0,1.0,0.5676050186157227,3.556161880493164,0.41173147561683426,14.0,141.0,0.0
Y,R,"[5, 7]",1.0,2.0,0.290802001953125,1.8630139827728271,0.5744111559671072,14.0,142.0,0.0
Y,R,"[5, 8]",1.0,3.0,0.21504902839660645,1.5625879764556885,0.35390190720451575,14.0,143.0,0.0
G,D,"[6, 8]",1.0,4.0,0.3074789047241211,1.8880829811096191,0.5750081323115619,14.0,144.0,0.0
Y,R,"[6, 9]",1.0,5.0,0.19333887100219727,1.9230599403381348,0.7312152042672879,14.0,145.0,0.0
Y,R,"[6, 10]",1.0,6.0,0.1432487964630127,1.592405080795288,0.44049540704879947,14.0,146.0,0.0
R,U,"[5, 10]",1.0,7.0,0.2034289836883545,1.5464191436767578,0.3535899727032186,14.0,147.0,0.0
R,U,"[4, 10]",1.0,8.0,0.27451610565185547,1.752047061920166,0.4720924152003586,14.0,148.0,0.0
B,L,"[4, 9]",1.0,9.0,0.23233795166015625,1.8264119625091553,0.5983900686334845,14.0,149.0,0.0
R,U,"[3, 9]",1.0,10.0,0.30602478981018066,1.5692589282989502,0.2511608848500648,14.0,150.0,0.0
,,"(6, 6)",,,,,,,,
R,U,"[5, 6]",1.0,1.0,0.2456071376800537,3.246026039123535,0.5304419666101133,15.0,151.0,0.0
Y,R,"[5, 7]",1.0,2.0,0.1632981300354004,1.5229241847991943,0.3533662275436466,15.0,152.0,0.0
Y,R,"[5, 8]",1.0,3.0,0.19167304039001465,1.5664479732513428,0.3695853250026511,15.0,153.0,0.0
G,D,"[6, 8]",1.0,4.0,0.2508869171142578,1.6620872020721436,0.4149615181842666,15.0,154.0,0.0
Y,R,"[6, 9]",1.0,5.0,0.2972228527069092,1.8149359226226807,0.5129717487940297,15.0,155.0,0.0
Y,R,"[6, 10]",1.0,6.0,0.2210550308227539,1.9193880558013916,0.6989129506883308,15.0,156.0,0.0
R,U,"[5, 10]",1.0,7.0,0.23211407661437988,1.8517451286315918,0.6172301090881631,15.0,157.0,0.0
R,U,"[4, 10]",1.0,8.0,0.257047176361084,1.9557850360870361,0.6895704177710728,15.0,158.0,0.0
B,L,"[4, 9]",1.0,9.0,0.198836088180542,1.833907127380371,0.6400511388117038,15.0,159.0,0.0
R,U,"[3, 9]",1.0,10.0,0.22865009307861328,1.882068157196045,0.6553786123095228,15.0,160.0,0.0
,,"(6, 6)",,,,,,,,
R,U,"[5, 6]",1.0,1.0,0.515625,3.0946290493011475,0.4335885948264114,16.0,161.0,0.0
Y,R,"[5, 7]",1.0,2.0,0.1891319751739502,1.5370478630065918,0.3538847525683508,16.0,162.0,0.0
Y,R,"[5, 8]",1.0,3.0,0.2678079605102539,1.5822780132293701,0.31961430605482094,16.0,163.0,0.0
G,D,"[6, 8]",1.0,4.0,0.22353100776672363,1.6461520195007324,0.4154515224267846,16.0,164.0,0.0
Y,R,"[6, 9]",1.0,5.0,0.20645999908447266,1.8383729457855225,0.620320359102785,16.0,165.0,0.0
Y,R,"[6, 10]",1.0,6.0,0.17011284828186035,1.660167932510376,0.49742347371828755,16.0,166.0,0.0
R,U,"[5, 10]",1.0,7.0,0.2244729995727539,1.6864428520202637,0.4502689732425968,16.0,167.0,0.0
B,L,"[5, 9]",0.0,7.0,0.602147102355957,2.2937119007110596,0.6937915517159853,16.0,168.0,0.0
B,L,"[5, 8]",0.0,7.0,0.18806791305541992,1.5301690101623535,0.3574873891944291,16.0,169.0,0.0
R,U,"[4, 8]",0.0,7.0,0.3665590286254883,1.6127440929412842,0.2536052839298581,16.0,170.0,0.0
,,"(6, 6)",,,,,,,,
R,U,"[5, 6]",1.0,1.0,0.3774728775024414,3.1609058380126953,0.6140204942918455,17.0,171.0,0.0
Y,R,"[5, 7]",1.0,2.0,0.1990189552307129,1.616523027420044,0.41403124902437066,17.0,172.0,0.0
Y,R,"[5, 8]",1.0,3.0,0.2003800868988037,1.464677095413208,0.26212221659230545,17.0,173.0,0.0
G,D,"[6, 8]",1.0,4.0,0.26093602180480957,1.725492000579834,0.4707320210256687,17.0,174.0,0.0
Y,R,"[6, 9]",1.0,5.0,0.18698811531066895,1.6267688274383545,0.4473955231735002,17.0,175.0,0.0
Y,R,"[6, 10]",1.0,6.0,0.19859099388122559,1.8284070491790771,0.6255806637790182,17.0,176.0,0.0
R,U,"[5, 10]",-1.0,6.0,0.04157900810241699,5.821260929107666,0.7299302980216553,17.0,177.0,0.0
R,U,"[4, 10]",1.0,7.0,0.26662278175354004,1.6632599830627441,0.39334679240538595,17.0,178.0,0.0
B,L,"[4, 9]",1.0,8.0,0.3025939464569092,1.7456071376800537,0.4554867938845873,17.0,179.0,0.0
R,U,"[3, 9]",1.0,9.0,0.2165508270263672,1.6577069759368896,0.44657876293548365,17.0,180.0,0.0
,,"(6, 6)",,,,,,,,
R,U,"[5, 6]",1.0,1.0,0.41770005226135254,2.6170198917388916,0.3301904985537074,18.0,181.0,0.0
Y,R,"[5, 7]",1.0,2.0,0.2782888412475586,1.6914658546447754,0.4048620623492848,18.0,182.0,0.0
Y,R,"[5, 8]",1.0,3.0,0.29590392112731934,1.8322041034698486,0.5369892711816725,18.0,183.0,0.0
G,D,"[6, 8]",1.0,4.0,0.2736961841583252,1.938878059387207,0.6589999561882357,18.0,184.0,0.0
Y,R,"[6, 9]",1.0,5.0,0.2583310604095459,1.6266510486602783,0.369259933736777,18.0,185.0,0.0
Y,R,"[6, 10]",1.0,6.0,0.5730810165405273,1.9072649478912354,0.3431768475382898,18.0,186.0,0.0
G,D,"[7, 10]",0.0,6.0,0.5238499641418457,2.160660982131958,0.6534234923732262,18.0,187.0,0.0
B,L,"[7, 9]",0.0,6.0,0.47116613388061523,2.1433048248291016,0.6799128581227805,18.0,188.0,0.0
B,L,"[7, 8]",0.0,6.0,0.3471260070800781,2.0968220233917236,0.7435659204756248,18.0,189.0,0.0
R,U,"[6, 8]",0.0,6.0,0.2538950443267822,1.8183331489562988,0.5783871629623362,18.0,190.0,0.0
,,"(6, 6)",,,,,,,,
R,U,"[5, 6]",1.0,1.0,0.5340838432312012,3.4820749759674072,0.6602614077234938,19.0,191.0,0.0
Y,R,"[5, 7]",1.0,2.0,0.20076990127563477,1.4493029117584229,0.2598715587175404,19.0,192.0,0.0
Y,R,"[5, 8]",1.0,3.0,0.3617551326751709,2.088571786880493,0.7311584427399573,19.0,193.0,0.0
G,D,"[6, 8]",1.0,4.0,0.1898818016052246,1.6159400939941406,0.41407194596353764,19.0,194.0,0.0
Y,R,"[6, 9]",1.0,5.0,0.5181159973144531,2.1604771614074707,0.6409929506095537,19.0,195.0,0.0
Y,R,"[6, 10]",1.0,6.0,0.20998287200927734,1.5613179206848145,0.3525236486160587,19.0,196.0,0.0
R,U,"[5, 10]",1.0,7.0,0.29842615127563477,1.9229099750518799,0.6250273195789435,19.0,197.0,0.0
R,U,"[4, 10]",1.0,8.0,0.2086629867553711,1.6741559505462646,0.46592484148607216,19.0,198.0,0.0
B,L,"[4, 9]",1.0,9.0,0.4674670696258545,1.8857481479644775,0.41841271656616663,19.0,199.0,0.0
R,U,"[3, 9]",1.0,10.0,0.2989950180053711,1.9114480018615723,0.6129406762711354,19.0,200.0,0.0
,,"(6, 6)",,,,,,,,
R,U,"[5, 6]",1.0,1.0,0.39125895500183105,2.4672930240631104,0.596850377851691,20.0,201.0,0.0
Y,R,"[5, 7]",1.0,2.0,0.20062613487243652,1.6602928638458252,0.4571107585909446,20.0,202.0,0.0
Y,R,"[5, 8]",1.0,3.0,0.23859095573425293,1.6164188385009766,0.39023931172166315,20.0,203.0,0.0
G,D,"[6, 8]",1.0,4.0,0.26889610290527344,1.9565298557281494,0.6967208368564874,20.0,204.0,0.0
Y,R,"[6, 9]",1.0,5.0,0.19127798080444336,1.7069909572601318,0.5035067307558387,20.0,205.0,0.0
Y,R,"[6, 10]",1.0,6.0,0.2223198413848877,1.7937390804290771,0.5638779299100005,20.0,206.0,0.0
R,U,"[5, 10]",1.0,7.0,0.25725293159484863,1.6179759502410889,0.3485541288714555,20.0,207.0,0.0
R,U,"[4, 10]",1.0,8.0,0.4295649528503418,2.1321511268615723,0.6970465339586682,20.0,208.0,0.0
B,L,"[4, 9]",1.0,9.0,0.197188138961792,1.7312991619110107,0.5283900562718231,20.0,209.0,0.0
R,U,"[3, 9]",1.0,10.0,0.21223998069763184,1.8324940204620361,0.6273793990909079,20.0,210.0,0.0
,,"(6, 6)",,,,,,,,
R,U,"[5, 6]",1.0,1.0,0.48795580863952637,2.1451241970062256,0.2894555271256183,21.0,211.0,0.0
Y,R,"[5, 7]",1.0,2.0,0.27817797660827637,1.6257219314575195,0.348510403011842,21.0,212.0,0.0
Y,R,"[5, 8]",1.0,3.0,0.2248220443725586,1.9233250617980957,0.6880437753536587,21.0,213.0,0.0
G,D,"[6, 8]",1.0,4.0,0.19719409942626953,1.91377592086792,0.7184681292357955,21.0,214.0,0.0
Y,R,"[6, 9]",1.0,5.0,0.14543795585632324,1.6356050968170166,0.48755231333096755,21.0,215.0,0.0
Y,R,"[6, 10]",1.0,6.0,0.20413994789123535,1.4593160152435303,0.26372781134411744,21.0,216.0,0.0
R,U,"[5, 10]",1.0,7.0,0.4684641361236572,1.7648539543151855,0.2951135274032458,21.0,217.0,0.0
R,U,"[4, 10]",1.0,8.0,0.42754602432250977,1.6827449798583984,0.2612344052890028,21.0,218.0,0.0
B,L,"[4, 9]",1.0,9.0,0.5531389713287354,2.057187080383301,0.5180609558631424,21.0,219.0,0.0
R,U,"[3, 9]",1.0,10.0,0.29664015769958496,2.036123037338257,0.7372265880406002,21.0,220.0,0.0
,,"(6, 6)",,,,,,,,
R,U,"[5, 6]",1.0,1.0,0.3830220699310303,2.7803611755371094,0.7013140622059576,22.0,221.0,0.0
Y,R,"[5, 7]",1.0,2.0,0.15468692779541016,1.558142900466919,0.4092109124452518,22.0,222.0,0.0
Y,R,"[5, 8]",1.0,3.0,0.23865795135498047,1.5146839618682861,0.2906112416643441,22.0,223.0,0.0
G,D,"[6, 8]",1.0,4.0,0.2729778289794922,1.9165520668029785,0.6400422661494269,22.0,224.0,0.0
Y,R,"[6, 9]",1.0,5.0,0.19046711921691895,1.7038722038269043,0.5107030120017522,22.0,225.0,0.0
Y,R,"[6, 10]",1.0,6.0,0.2443399429321289,1.7160041332244873,0.47662233984686403,22.0,226.0,0.0
R,U,"[5, 10]",1.0,7.0,0.2996671199798584,1.956639051437378,0.6664229323746316,22.0,227.0,0.0
R,U,"[4, 10]",1.0,8.0,0.20409703254699707,1.715512990951538,0.5153025281930674,22.0,228.0,0.0
B,L,"[4, 9]",1.0,9.0,0.5294830799102783,2.0822949409484863,0.5474836432650609,22.0,229.0,0.0
R,U,"[3, 9]",1.0,10.0,0.21598196029663086,1.4841651916503906,0.26516368524025136,22.0,230.0,0.0
,,"(6, 6)",,,,,,,,
R,U,"[5, 6]",1.0,1.0,0.3327929973602295,3.1847290992736816,0.7327765023849457,23.0,231.0,0.0
Y,R,"[5, 7]",1.0,2.0,0.19722700119018555,1.8314850330352783,0.6309606075873824,23.0,232.0,0.0
Y,R,"[5, 8]",1.0,3.0,0.1759660243988037,1.5119729042053223,0.3265568226851095,23.0,233.0,0.0
G,D,"[6, 8]",1.0,4.0,0.33983898162841797,2.064319133758545,0.723664330445228,23.0,234.0,0.0
Y,R,"[6, 9]",1.0,5.0,0.18129706382751465,1.905034065246582,0.7285653342210721,23.0,235.0,0.0
Y,R,"[6, 10]",1.0,6.0,0.21256685256958008,1.6623427867889404,0.44116425464306963,23.0,236.0,0.0
R,U,"[5, 10]",1.0,7.0,0.3365781307220459,1.6113219261169434,0.28600915571671187,23.0,237.0,0.0
R,U,"[4, 10]",1.0,8.0,0.3599059581756592,1.983771800994873,0.6196485721668482,23.0,238.0,0.0
B,L,"[4, 9]",1.0,9.0,0.19959092140197754,1.8911528587341309,0.6937446118469981,23.0,239.0,0.0
R,U,"[3, 9]",1.0,10.0,0.1941981315612793,1.543639898300171,0.3542288125104886,23.0,240.0,0.0
,,"(6, 6)",,,,,,,,
R,U,"[5, 6]",1.0,1.0,0.47841501235961914,2.581624984741211,0.5688940558862083,24.0,241.0,0.0
Y,R,"[5, 7]",1.0,2.0,0.19113397598266602,1.5720341205596924,0.37452539218607783,24.0,242.0,0.0
Y,R,"[5, 8]",1.0,3.0,0.4452040195465088,2.0754270553588867,0.6329516899696657,24.0,243.0,0.0
G,D,"[6, 8]",1.0,4.0,0.26583003997802734,1.8277649879455566,0.5607252768421762,24.0,244.0,0.0
Y,R,"[6, 9]",1.0,5.0,0.24309611320495605,1.9705359935760498,0.7310493934743738,24.0,245.0,0.0
Y,R,"[6, 10]",1.0,6.0,0.18776893615722656,1.4547569751739502,0.2694064178515091,24.0,246.0,0.0
R,U,"[5, 10]",1.0,7.0,0.6838381290435791,1.934309959411621,0.2537612035820057,24.0,247.0,0.0
R,U,"[4, 10]",1.0,8.0,0.4074828624725342,2.1594979763031006,0.7460689240446401,24.0,248.0,0.0
B,L,"[4, 9]",1.0,9.0,0.33771395683288574,1.75223708152771,0.41516974166297116,24.0,249.0,0.0
R,U,"[3, 9]",1.0,10.0,0.4757862091064453,2.074125051498413,0.5890734717288424,24.0,250.0,0.0
,,"(6, 6)",,,,,,,,
R,U,"[5, 6]",1.0,1.0,0.4502439498901367,2.3187930583953857,0.2914503290528537,25.0,251.0,0.0
Y,R,"[5, 7]",1.0,2.0,0.3403449058532715,2.050818920135498,0.7083625816439036,25.0,252.0,0.0
Y,R,"[5, 8]",1.0,3.0,0.21231293678283691,1.8217780590057373,0.6136069729718292,25.0,253.0,0.0
G,D,"[6, 8]",1.0,4.0,0.3160219192504883,1.681143045425415,0.3615205946691971,25.0,254.0,0.0
Y,R,"[6, 9]",1.0,5.0,0.23941421508789062,1.8903179168701172,0.6515279128893054,25.0,255.0,0.0
Y,R,"[6, 10]",1.0,6.0,0.19025087356567383,1.8145489692687988,0.6327700692967371,25.0,256.0,0.0
R,U,"[5, 10]",1.0,7.0,0.1956489086151123,1.6853241920471191,0.48505612455428576,25.0,257.0,0.0
R,U,"[4, 10]",1.0,8.0,0.2262740135192871,1.9647901058197021,0.7326238732383412,25.0,258.0,0.0
B,L,"[4, 9]",1.0,9.0,0.1805729866027832,1.704456090927124,0.5205669864675077,25.0,259.0,0.0
R,U,"[3, 9]",1.0,10.0,0.2755160331726074,1.803908109664917,0.5242927146594014,25.0,260.0,0.0
,,"(6, 6)",,,,,,,,
R,U,"[5, 6]",1.0,1.0,0.42293310165405273,2.429630994796753,0.6705107568763601,26.0,261.0,0.0
Y,R,"[5, 7]",1.0,2.0,0.1996150016784668,1.6727190017700195,0.4766651597692329,26.0,262.0,0.0
Y,R,"[5, 8]",1.0,3.0,0.2127211093902588,1.4982571601867676,0.29168658762619276,26.0,263.0,0.0
G,D,"[6, 8]",1.0,4.0,0.24071598052978516,1.5885140895843506,0.3467336250422672,26.0,264.0,0.0
Y,R,"[6, 9]",1.0,5.0,0.26763415336608887,1.7841999530792236,0.5141370079930857,26.0,265.0,0.0
Y,R,"[6, 10]",1.0,6.0,0.19114303588867188,1.5300779342651367,0.3276466910187353,26.0,266.0,0.0
R,U,"[5, 10]",1.0,7.0,0.4044950008392334,1.7331650257110596,0.3439929994200153,26.0,267.0,0.0
R,U,"[4, 10]",1.0,8.0,0.3414590358734131,1.8206651210784912,0.48114452893198617,26.0,268.0,0.0
Y,R,"[4, 11]",0.0,8.0,0.4538421630859375,2.1563949584960938,0.7040263517006815,26.0,269.0,0.0
R,U,"[3, 11]",0.0,8.0,0.15583491325378418,1.5235950946807861,0.3611162010090749,26.0,270.0,0.0
,,"(6, 6)",,,,,,,,
R,U,"[5, 6]",1.0,1.0,0.4313628673553467,3.9566709995269775,0.5343007500739829,27.0,271.0,0.0
Y,R,"[5, 7]",1.0,2.0,0.3704490661621094,2.007659912109375,0.6418799667516767,27.0,272.0,0.0
Y,R,"[5, 8]",1.0,3.0,0.18342089653015137,1.7799999713897705,0.6050579772527462,27.0,273.0,0.0
G,D,"[6, 8]",1.0,4.0,0.2820420265197754,1.9760589599609375,0.6976731256350044,27.0,274.0,0.0
Y,R,"[6, 9]",1.0,5.0,0.2537422180175781,1.9272069931030273,0.6748149868907324,27.0,275.0,0.0
Y,R,"[6, 10]",1.0,6.0,0.1850299835205078,1.7535200119018555,0.5783454115811748,27.0,276.0,0.0
R,U,"[5, 10]",1.0,7.0,0.22307205200195312,1.537843942642212,0.316404405440635,27.0,277.0,0.0
R,U,"[4, 10]",1.0,8.0,0.530109167098999,1.9516468048095703,0.4179388232762341,27.0,278.0,0.0
B,L,"[4, 9]",1.0,9.0,0.7900710105895996,2.2241339683532715,0.42525065863244593,27.0,279.0,0.0
R,U,"[3, 9]",1.0,10.0,0.5936810970306396,2.0845730304718018,0.49299685552051625,27.0,280.0,0.0
,,"(6, 6)",,,,,,,,
R,U,"[5, 6]",1.0,1.0,0.3241419792175293,3.320396900177002,0.7464784288601157,28.0,281.0,0.0
Y,R,"[5, 7]",1.0,2.0,0.1686267852783203,1.4881319999694824,0.3182662912552773,28.0,282.0,0.0
Y,R,"[5, 8]",1.0,3.0,0.43831396102905273,1.743276834487915,0.3114839519619836,28.0,283.0,0.0
G,D,"[6, 8]",1.0,4.0,0.4359169006347656,2.0175249576568604,0.5953225090813018,28.0,284.0,0.0
Y,R,"[6, 9]",1.0,5.0,0.18258905410766602,1.566464900970459,0.3786319170957714,28.0,285.0,0.0
Y,R,"[6, 10]",1.0,6.0,0.5452680587768555,2.089073896408081,0.5508028081816434,28.0,286.0,0.0
G,D,"[7, 10]",0.0,6.0,0.20559096336364746,1.573023796081543,0.3573130357310984,28.0,287.0,0.0
R,U,"[6, 10]",0.0,6.0,0.9249138832092285,2.2256970405578613,0.2996691523844323,28.0,288.0,0.0
B,L,"[6, 9]",0.0,6.0,0.31959080696105957,1.7952511310577393,0.47793801473204284,28.0,289.0,0.0
R,U,"[5, 9]",0.0,6.0,0.21420884132385254,1.8949270248413086,0.6895099993441736,28.0,290.0,0.0
,,"(6, 6)",,,,,,,,
R,U,"[5, 6]",1.0,1.0,0.40280818939208984,2.575756788253784,0.5152448873651161,29.0,291.0,0.0
Y,R,"[5, 7]",1.0,2.0,0.1689000129699707,1.898271083831787,0.7298544706963475,29.0,292.0,0.0
Y,R,"[5, 8]",1.0,3.0,0.18281292915344238,1.6129670143127441,0.4264041154717646,29.0,293.0,0.0
G,D,"[6, 8]",1.0,4.0,0.4557790756225586,1.9472129344940186,0.4901112414078852,29.0,294.0,0.0
Y,R,"[6, 9]",1.0,5.0,0.19877982139587402,1.9356679916381836,0.7421881367143983,29.0,295.0,0.0
Y,R,"[6, 10]",1.0,6.0,0.16744709014892578,1.8802549839019775,0.7223770071328547,29.0,296.0,0.0
R,U,"[5, 10]",1.0,7.0,0.16432785987854004,1.5867390632629395,0.4260682460021702,29.0,297.0,0.0
R,U,"[4, 10]",1.0,8.0,0.27181482315063477,1.854457139968872,0.5803134115608254,29.0,298.0,0.0
B,L,"[4, 9]",1.0,9.0,0.1982898712158203,1.5413601398468018,0.3384466162775047,29.0,299.0,0.0
R,U,"[3, 9]",1.0,10.0,0.20673012733459473,1.6189520359039307,0.40723750418211757,29.0,300.0,0.0
,,"(6, 6)",,,,,,,,
R,U,"[5, 6]",-2.0,0.0,1.1802949905395508,2.962322950363159,0.5027785579304673,30.0,301.0,-4.0
Y,R,"[5, 7]",-999.0,0.0,0.4563760757446289,1.847729206085205,0.40057237601986073,30.0,302.0,-4.0
Y,R,"[5, 8]",-999.0,0.0,0.4254319667816162,1.890289068222046,0.4740288202095911,30.0,303.0,-4.0
G,D,"[6, 8]",-999.0,0.0,0.4621748924255371,2.111387014389038,0.6519019955777074,30.0,304.0,-4.0
Y,R,"[6, 9]",-999.0,0.0,0.19635295867919922,1.6709349155426025,0.47297599110291794,30.0,305.0,-4.0
Y,R,"[6, 10]",-999.0,0.0,0.22087907791137695,1.9345860481262207,0.7239035049171674,30.0,306.0,-4.0
R,U,"[5, 10]",-999.0,0.0,0.1694810390472412,1.8342299461364746,0.6748146675606261,30.0,307.0,-4.0
R,U,"[4, 10]",-999.0,0.0,0.21503615379333496,1.9121508598327637,0.7035386516195823,30.0,308.0,-4.0
R,U,"[3, 10]",-999.0,0.0,0.43432188034057617,2.110327959060669,0.6805007365645077,30.0,309.0,-4.0
R,U,"[2, 10]",-999.0,0.0,0.7776699066162109,2.252532958984375,0.46647592102263813,30.0,310.0,1.0
,,"(6, 6)",,,,,,,,
R,U,"[5, 6]",-999.0,0.0,0.5406432151794434,3.775426149368286,0.6584243378195351,31.0,311.0,-4.0
Y,R,"[5, 7]",-999.0,0.0,0.19588685035705566,1.9260039329528809,0.734125967890211,31.0,312.0,-4.0
Y,R,"[5, 8]",-999.0,0.0,0.21456694602966309,1.522317886352539,0.30684374206776305,31.0,313.0,-4.0
R,U,"[4, 8]",-999.0,0.0,0.4888780117034912,1.8620190620422363,0.3853264782889625,31.0,314.0,-4.0
G,D,"[5, 8]",-999.0,0.0,0.5631890296936035,2.1141560077667236,0.5492074878989729,31.0,315.0,1.0
,,"(6, 6)",,,,,,,,
B,L,"[5, 8]",-999.0,0.0,0.8479931354522705,3.508286952972412,0.5241298009507678,32.0,316.0,-5.0
B,L,"[5, 8]",-999.0,0.0,0.32849693298339844,1.9880311489105225,0.6619463411102919,32.0,317.0,-5.0
R,U,"[5, 8]",-999.0,0.0,0.35843491554260254,2.022566080093384,0.6678524415514511,32.0,318.0,-5.0
R,U,"[5, 8]",-999.0,0.0,0.30277204513549805,1.5805339813232422,0.2818980198329759,32.0,319.0,-5.0
R,U,"[4, 8]",-999.0,0.0,0.8554790019989014,2.3578150272369385,0.5060785573033486,32.0,320.0,1.0
,,"(6, 6)",,,,,,,,
R,U,"[5, 6]",1.0,1.0,0.7004601955413818,3.1822540760040283,0.3550368771724041,33.0,321.0,0.0
Y,R,"[5, 7]",1.0,2.0,0.3112499713897705,1.7250008583068848,0.41338591699354893,33.0,322.0,0.0
Y,R,"[5, 8]",1.0,3.0,0.1927487850189209,1.483124017715454,0.27994924476422306,33.0,323.0,0.0
G,D,"[6, 8]",1.0,4.0,0.3764050006866455,1.823228120803833,0.4362951687002621,33.0,324.0,0.0
Y,R,"[6, 9]",1.0,5.0,0.26674795150756836,1.9477779865264893,0.6836279629203967,33.0,325.0,0.0
Y,R,"[6, 10]",1.0,6.0,0.14273405075073242,1.6449568271636963,0.4954718807345477,33.0,326.0,0.0
R,U,"[5, 10]",1.0,7.0,0.2407541275024414,1.637362003326416,0.3994773923245638,33.0,327.0,0.0
R,U,"[4, 10]",1.0,8.0,0.2353839874267578,1.5836050510406494,0.3498304008559818,33.0,328.0,0.0
B,L,"[4, 9]",1.0,9.0,0.3541550636291504,1.7344729900360107,0.3842043893332786,33.0,329.0,0.0
R,U,"[3, 9]",1.0,10.0,0.2216649055480957,1.860429048538208,0.6443894738829334,33.0,330.0,0.0
,,"(6, 6)",,,,,,,,
R,U,"[5, 6]",1.0,1.0,0.47404909133911133,2.5750930309295654,0.4196145424606754,34.0,331.0,0.0
Y,R,"[5, 7]",1.0,2.0,0.234375,1.7880730628967285,0.5574639275014679,34.0,332.0,0.0
Y,R,"[5, 8]",-1.0,2.0,0.008430957794189453,5.573593854904175,0.5142460069983346,34.0,333.0,0.0
G,D,"[6, 8]",1.0,3.0,0.29764795303344727,2.0006439685821533,0.6978988284265064,34.0,334.0,0.0
Y,R,"[6, 9]",1.0,4.0,0.2058119773864746,1.5221130847930908,0.3204061952958024,34.0,335.0,0.0
Y,R,"[6, 10]",1.0,5.0,0.2619459629058838,1.5485448837280273,0.28554222557715114,34.0,336.0,0.0
R,U,"[5, 10]",1.0,6.0,0.2999880313873291,1.6214940547943115,0.32359785729941737,34.0,337.0,0.0
B,L,"[5, 9]",0.0,6.0,0.2572660446166992,1.5135059356689453,0.25376393688996574,34.0,338.0,0.0
B,L,"[5, 8]",0.0,6.0,0.9656040668487549,2.3792078495025635,0.4161899047545422,34.0,339.0,0.0
R,U,"[4, 8]",0.0,6.0,0.27224206924438477,2.023742914199829,0.7395600895314776,34.0,340.0,0.0
,,"(6, 6)",,,,,,,,
R,U,"[5, 6]",-999.0,0.0,0.3670220375061035,2.6699938774108887,0.6927274471304103,35.0,341.0,-4.0
Y,R,"[5, 7]",-999.0,0.0,0.2638561725616455,1.9056580066680908,0.6484551371802616,35.0,342.0,-4.0
Y,R,"[5, 8]",-999.0,0.0,0.30212903022766113,1.7691280841827393,0.46771950808884727,35.0,343.0,-4.0
R,U,"[4, 8]",-999.0,0.0,0.38250207901000977,1.683885097503662,0.30173532756108395,35.0,344.0,-4.0
B,L,"[4, 7]",-999.0,0.0,0.7692029476165771,2.1608030796051025,0.3956103784798969,35.0,345.0,1.0
,,"(6, 6)",,,,,,,,
R,U,"[5, 6]",1.0,1.0,0.5645029544830322,3.556946039199829,0.6856191800541149,36.0,346.0,0.0
Y,R,"[5, 7]",1.0,2.0,0.19166898727416992,1.626507043838501,0.4289224109195919,36.0,347.0,0.0
Y,R,"[5, 8]",1.0,3.0,0.24808883666992188,1.918544054031372,0.6638451496494215,36.0,348.0,0.0
G,D,"[6, 8]",1.0,4.0,0.1944139003753662,1.5128569602966309,0.31049796368121774,36.0,349.0,0.0
Y,R,"[6, 9]",1.0,5.0,0.3293910026550293,1.6923558712005615,0.3692570165192889,36.0,350.0,0.0
,,"(6, 6)",,,,,,,,
G,D,"[6, 9]",-999.0,0.0,0.8086988925933838,5.273654937744141,0.6591363799921506,37.0,351.0,-5.0
G,D,"[6, 9]",-999.0,0.0,0.7495839595794678,2.0792770385742188,0.3385999226510018,37.0,352.0,-5.0
G,D,"[6, 9]",-999.0,0.0,0.42962098121643066,1.707961082458496,0.279823722747328,37.0,353.0,-5.0
B,L,"[6, 9]",-999.0,0.0,0.44664692878723145,2.121127128601074,0.6673316316959357,37.0,354.0,-5.0
B,L,"[6, 9]",-999.0,0.0,0.4079759120941162,1.7006590366363525,0.3016184421107687,37.0,355.0,-5.0
R,U,"[6, 9]",-999.0,0.0,0.4219698905944824,1.9137868881225586,0.49839162280122035,37.0,356.0,-5.0
R,U,"[6, 9]",-999.0,0.0,0.2823190689086914,1.7828209400177002,0.49794689370336925,37.0,357.0,-5.0
B,L,"[6, 9]",-999.0,0.0,0.4050331115722656,2.1500349044799805,0.7475538699243139,37.0,358.0,-5.0
B,L,"[6, 9]",-999.0,0.0,0.26491689682006836,1.8107821941375732,0.5419554242464826,37.0,359.0,-5.0
B,L,"[6, 8]",-999.0,0.0,0.6269500255584717,2.2299201488494873,0.6049841097776372,37.0,360.0,1.0
,,"(6, 6)",,,,,,,,
R,U,"[5, 6]",1.0,1.0,0.5784900188446045,3.509535074234009,0.6477475957198364,38.0,361.0,0.0
Y,R,"[5, 7]",1.0,2.0,0.1999220848083496,1.5060889720916748,0.3041272378765055,38.0,362.0,0.0
Y,R,"[5, 8]",1.0,3.0,0.22887396812438965,1.5870230197906494,0.3576997133698498,38.0,363.0,0.0
G,D,"[6, 8]",1.0,4.0,0.22968506813049316,1.5090889930725098,0.28351395945349955,38.0,364.0,0.0
Y,R,"[6, 9]",1.0,5.0,0.23677992820739746,1.8012821674346924,0.5677752163052081,38.0,365.0,0.0
Y,R,"[6, 10]",1.0,6.0,0.1688539981842041,1.772150993347168,0.6064064917768808,38.0,366.0,0.0
R,U,"[5, 10]",1.0,7.0,0.12629914283752441,1.746217966079712,0.6192776613136368,38.0,367.0,0.0
R,U,"[4, 10]",1.0,8.0,0.22413396835327148,1.6067969799041748,0.3762917571775666,38.0,368.0,0.0
B,L,"[4, 9]",1.0,9.0,0.48058295249938965,1.8537120819091797,0.37989813724692456,38.0,369.0,0.0
R,U,"[3, 9]",1.0,10.0,0.250499963760376,1.8435449600219727,0.5898836532290148,38.0,370.0,0.0
,,"(6, 6)",,,,,,,,
R,U,"[5, 6]",1.0,1.0,0.46441006660461426,2.8230481147766113,0.7460432909761661,39.0,371.0,0.0
Y,R,"[5, 7]",1.0,2.0,0.18788909912109375,1.846358060836792,0.6424754149827068,39.0,372.0,0.0
Y,R,"[5, 8]",1.0,3.0,0.1905651092529297,1.7899200916290283,0.5990019173862325,39.0,373.0,0.0
G,D,"[6, 8]",1.0,4.0,0.22940397262573242,1.7791931629180908,0.5448831214522339,39.0,374.0,0.0
Y,R,"[6, 9]",1.0,5.0,0.21571111679077148,1.9321279525756836,0.7267377024765492,39.0,375.0,0.0
Y,R,"[6, 10]",1.0,6.0,0.15272903442382812,1.8402221202850342,0.7003062017938981,39.0,376.0,0.0
R,U,"[5, 10]",1.0,7.0,0.1933441162109375,1.782531976699829,0.582713473712489,39.0,377.0,0.0
R,U,"[4, 10]",1.0,8.0,0.17200303077697754,1.8768877983093262,0.7095598132009548,39.0,378.0,0.0
B,L,"[4, 9]",1.0,9.0,0.18634891510009766,1.6309268474578857,0.45726643750419416,39.0,379.0,0.0
R,U,"[3, 9]",1.0,10.0,0.21401309967041016,1.6008930206298828,0.39158150981359896,39.0,380.0,0.0
,,"(6, 6)",,,,,,,,
R,U,"[5, 6]",1.0,1.0,0.5118319988250732,2.457803964614868,0.5824646553506737,40.0,381.0,0.0
Y,R,"[5, 7]",1.0,2.0,0.17555904388427734,1.4847321510314941,0.3006747125415178,40.0,382.0,0.0
Y,R,"[5, 8]",1.0,3.0,0.3621091842651367,1.878312110900879,0.5121580031494983,40.0,383.0,0.0
G,D,"[6, 8]",1.0,4.0,0.1836378574371338,1.8613879680633545,0.6734199515821815,40.0,384.0,0.0
Y,R,"[6, 9]",1.0,5.0,0.15395402908325195,1.403162956237793,0.2601814931944297,40.0,385.0,0.0
Y,R,"[6, 10]",1.0,6.0,0.26474809646606445,1.6599860191345215,0.403311367245574,40.0,386.0,0.0
R,U,"[5, 10]",1.0,7.0,0.24094104766845703,1.5747709274291992,0.32812305713717693,40.0,387.0,0.0
R,U,"[4, 10]",1.0,8.0,0.46924781799316406,2.193607807159424,0.7377893954964776,40.0,388.0,0.0
B,L,"[4, 9]",1.0,9.0,0.1861879825592041,1.9047300815582275,0.7258551089747483,40.0,389.0,0.0
R,U,"[3, 9]",-1.0,9.0,0.0007390975952148438,5.617169141769409,0.5597303693961038,40.0,390.0,0.0
,,"(6, 6)",,,,,,,,
R,U,"[5, 6]",1.0,1.0,0.5094201564788818,3.2878079414367676,0.29776950650284123,41.0,391.0,0.0
Y,R,"[5, 7]",1.0,2.0,0.2794830799102783,1.566122055053711,0.2804459375071925,41.0,392.0,0.0
Y,R,"[5, 8]",1.0,3.0,0.30385589599609375,1.7539381980895996,0.4509006697511791,41.0,393.0,0.0
G,D,"[6, 8]",1.0,4.0,0.21281909942626953,1.8468480110168457,0.630804688164727,41.0,394.0,0.0
Y,R,"[6, 9]",1.0,5.0,0.14930009841918945,1.6902577877044678,0.5377060308750533,41.0,395.0,0.0
Y,R,"[6, 10]",1.0,6.0,0.20124101638793945,1.8405308723449707,0.6448005073209022,41.0,396.0,0.0
R,U,"[5, 10]",1.0,7.0,0.2730379104614258,1.7216320037841797,0.4498858064103143,41.0,397.0,0.0
R,U,"[4, 10]",1.0,8.0,0.24175715446472168,1.8770041465759277,0.626684359463495,41.0,398.0,0.0
B,L,"[4, 9]",1.0,9.0,0.20015406608581543,1.9035391807556152,0.7133853906347235,41.0,399.0,0.0
R,U,"[3, 9]",1.0,10.0,0.13696789741516113,1.7957210540771484,0.659010863411847,41.0,400.0,0.0
,,"(6, 6)",,,,,,,,
R,U,"[5, 6]",1.0,1.0,0.4465610980987549,2.648345947265625,0.3243791723171988,42.0,401.0,0.0
Y,R,"[5, 7]",1.0,2.0,0.20203113555908203,1.6811959743499756,0.48863443126290956,42.0,402.0,0.0
Y,R,"[5, 8]",1.0,3.0,0.19674181938171387,1.658445119857788,0.46373590871053594,42.0,403.0,0.0
G,D,"[6, 8]",1.0,4.0,0.18694114685058594,1.5619680881500244,0.37580898785063893,42.0,404.0,0.0
Y,R,"[6, 9]",1.0,5.0,0.21605491638183594,1.7353429794311523,0.5275800396648782,42.0,405.0,0.0
Y,R,"[6, 10]",1.0,6.0,0.18364214897155762,1.8035898208618164,0.6310226519623501,42.0,406.0,0.0
R,U,"[5, 10]",1.0,7.0,0.16200804710388184,1.587312936782837,0.41850743498771376,42.0,407.0,0.0
R,U,"[4, 10]",1.0,8.0,0.30274510383605957,1.5957608222961426,0.2976375258442687,42.0,408.0,0.0
B,L,"[4, 9]",1.0,9.0,0.26371002197265625,1.7100489139556885,0.4407317975662103,42.0,409.0,0.0
R,U,"[3, 9]",1.0,10.0,0.2257390022277832,1.5570828914642334,0.33124939512397744,42.0,410.0,0.0
,,"(6, 6)",,,,,,,,
R,U,"[5, 6]",-999.0,0.0,0.5493729114532471,2.48187518119812,0.44657113820928424,43.0,411.0,-4.0
Y,R,"[5, 7]",-999.0,0.0,0.37082505226135254,1.7090880870819092,0.33885846807154496,43.0,412.0,-4.0
Y,R,"[5, 8]",-999.0,0.0,0.2827160358428955,1.682814121246338,0.404926513728072,43.0,413.0,-4.0
R,U,"[4, 8]",-999.0,0.0,0.31049299240112305,1.7799959182739258,0.484790772145335,43.0,414.0,-4.0
R,U,"[3, 8]",-999.0,0.0,0.553596019744873,2.2953128814697266,0.7463544582746672,43.0,415.0,1.0
,,"(6, 6)",,,,,,,,
R,U,"[5, 6]",1.0,1.0,0.5684759616851807,2.95084285736084,0.44737375173532684,44.0,416.0,0.0
Y,R,"[5, 7]",1.0,2.0,0.2018570899963379,1.7953250408172607,0.5925809575087551,44.0,417.0,0.0
Y,R,"[5, 8]",1.0,3.0,0.16652417182922363,1.8383450508117676,0.6807540762276789,44.0,418.0,0.0
G,D,"[6, 8]",1.0,4.0,0.10747504234313965,1.4201440811157227,0.30121149960513793,44.0,419.0,0.0
Y,R,"[6, 9]",1.0,5.0,0.3709220886230469,1.8568778038024902,0.4745798820264447,44.0,420.0,0.0
,,"(6, 6)",,,,,,,,
G,D,"[6, 9]",-999.0,0.0,0.6118030548095703,3.5202438831329346,0.34471478206354605,45.0,421.0,-5.0
G,D,"[6, 9]",-999.0,0.0,0.3851349353790283,1.745905876159668,0.3738973993476446,45.0,422.0,-5.0
G,D,"[6, 9]",-999.0,0.0,0.32521796226501465,2.002776861190796,0.6934741189692291,45.0,423.0,-5.0
B,L,"[6, 9]",-999.0,0.0,0.33110713958740234,1.9853029251098633,0.6619001290190859,45.0,424.0,-5.0
B,L,"[6, 9]",-999.0,0.0,0.26279401779174805,1.6719751358032227,0.41710487638223503,45.0,425.0,-5.0
R,U,"[6, 9]",-999.0,0.0,0.36939191818237305,1.9260821342468262,0.5597126594675508,45.0,426.0,-5.0
R,U,"[6, 9]",-2.0,0.0,1.4412457942962646,2.7917611598968506,0.3848039859545134,45.0,427.0,-5.0
B,L,"[6, 9]",-999.0,0.0,0.5648210048675537,2.011043071746826,0.4459308985000568,45.0,428.0,-5.0
B,L,"[6, 9]",-999.0,0.0,0.35707783699035645,2.071214199066162,0.7166337275801415,45.0,429.0,-5.0
R,U,"[5, 9]",-999.0,0.0,0.6133861541748047,2.0203990936279297,0.404001330149389,45.0,430.0,1.0
,,"(6, 6)",,,,,,,,
R,U,"[5, 6]",-999.0,0.0,0.4797689914703369,3.1473000049591064,0.5676846490382799,46.0,431.0,-4.0
Y,R,"[5, 7]",-999.0,0.0,0.3167099952697754,1.610826015472412,0.2952696423679427,46.0,432.0,-4.0
Y,R,"[5, 8]",-999.0,0.0,0.3556220531463623,1.6780619621276855,0.34003012321644743,46.0,433.0,-4.0
R,U,"[4, 8]",-999.0,0.0,0.4402351379394531,1.9586589336395264,0.5316325380120945,46.0,434.0,-4.0
G,D,"[5, 8]",-999.0,0.0,0.6796879768371582,1.9491357803344727,0.26447190183664276,46.0,435.0,1.0
,,"(6, 6)",,,,,,,,
G,D,"[5, 8]",-999.0,0.0,0.6804780960083008,3.315656900405884,0.6131698129686378,47.0,436.0,-5.0
G,D,"[5, 8]",-999.0,0.0,0.3529171943664551,1.971444845199585,0.6177301726567219,47.0,437.0,-5.0
G,D,"[5, 8]",-999.0,0.0,0.2823600769042969,1.9947819709777832,0.7123422853451176,47.0,438.0,-5.0
B,L,"[5, 8]",-999.0,0.0,0.27318906784057617,1.9729928970336914,0.70186031942685,47.0,439.0,-5.0
B,L,"[5, 8]",-999.0,0.0,0.30551886558532715,1.890336036682129,0.5922618198519112,47.0,440.0,-5.0
,,"(6, 6)",,,,,,,,
R,U,"[5, 6]",-999.0,0.0,0.4794929027557373,3.520565986633301,0.729315467513725,48.0,441.0,-4.0
Y,R,"[5, 7]",-999.0,0.0,0.38196611404418945,1.9881160259246826,0.6007275459118538,48.0,442.0,-4.0
Y,R,"[5, 8]",-999.0,0.0,0.31055593490600586,2.0397989749908447,0.7237918425111756,48.0,443.0,-4.0
G,D,"[6, 8]",-999.0,0.0,0.268186092376709,1.9409120082855225,0.6812613928146,48.0,444.0,-4.0
Y,R,"[6, 9]",-999.0,0.0,0.427260160446167,2.04783296585083,0.6124779968814269,48.0,445.0,-4.0
Y,R,"[6, 10]",-999.0,0.0,0.3611130714416504,1.8219530582427979,0.45126801526686744,48.0,446.0,-4.0
R,U,"[5, 10]",-999.0,0.0,0.42148399353027344,1.8830981254577637,0.46780659174544625,48.0,447.0,-4.0
R,U,"[4, 10]",-999.0,0.0,0.5341620445251465,1.892848014831543,0.3604606650061923,48.0,448.0,-4.0
R,U,"[3, 10]",-999.0,0.0,0.5867469310760498,2.087242841720581,0.5140727552610918,48.0,449.0,-4.0
B,L,"[3, 9]",-999.0,0.0,0.5897610187530518,1.9102740287780762,0.3245451517626892,48.0,450.0,1.0
,,"(6, 6)",,,,,,,,
B,L,"[3, 9]",-999.0,0.0,0.5695629119873047,3.864124059677124,0.6550006805067267,49.0,451.0,-5.0
B,L,"[3, 9]",-999.0,0.0,0.2260749340057373,1.827876091003418,0.6160989167327865,49.0,452.0,-5.0
R,U,"[3, 9]",-999.0,0.0,0.249708890914917,1.7893421649932861,0.5387755134073751,49.0,453.0,-5.0
R,U,"[3, 9]",-999.0,0.0,0.402385950088501,1.658452033996582,0.26417928392770257,49.0,454.0,-5.0
B,L,"[3, 8]",-999.0,0.0,0.5487160682678223,2.106653928756714,0.5541003123728251,49.0,455.0,1.0
,,"(6, 6)",,,,,,,,
R,U,"[5, 6]",1.0,1.0,0.5456461906433105,3.9344279766082764,0.27159511684576726,50.0,456.0,0.0
Y,R,"[5, 7]",1.0,2.0,0.25031018257141113,1.9522790908813477,0.7067735035682164,50.0,457.0,0.0
Y,R,"[5, 8]",1.0,3.0,0.34676313400268555,1.633328914642334,0.2905373074428445,50.0,458.0,0.0
G,D,"[6, 8]",1.0,4.0,0.42487502098083496,1.691795825958252,0.26564285550112504,50.0,459.0,0.0
Y,R,"[6, 9]",1.0,5.0,0.2769439220428467,1.9840679168701172,0.6991530390477938,50.0,460.0,0.0
,,"(6, 6)",,,,,,,,
R,U,"[5, 6]",-999.0,0.0,0.5374879837036133,4.363540887832642,0.7125741959765944,51.0,461.0,-4.0
Y,R,"[5, 7]",-999.0,0.0,0.3668661117553711,2.0542969703674316,0.6835227718219672,51.0,462.0,-4.0
Y,R,"[5, 8]",-999.0,0.0,0.30289196968078613,1.6526870727539062,0.35309927103978567,51.0,463.0,-4.0
G,D,"[6, 8]",-999.0,0.0,0.4198801517486572,2.0819590091705322,0.6680507213656228,51.0,464.0,-4.0
Y,R,"[6, 9]",-999.0,0.0,0.25550293922424316,1.5686719417572021,0.3203787016324036,51.0,465.0,-4.0
Y,R,"[6, 10]",-999.0,0.0,0.3183729648590088,1.8010470867156982,0.4877763317349579,51.0,466.0,-4.0
R,U,"[5, 10]",-999.0,0.0,0.24176812171936035,1.8352439403533936,0.6062813379341792,51.0,467.0,-4.0
R,U,"[4, 10]",-999.0,0.0,0.21248602867126465,1.6020989418029785,0.39183355729611363,51.0,468.0,-4.0
R,U,"[3, 10]",-999.0,0.0,0.5555019378662109,1.8201329708099365,0.2787124303840895,51.0,469.0,-4.0
B,L,"[3, 9]",-999.0,0.0,0.7411260604858398,2.470176935195923,0.7154201603172428,51.0,470.0,1.0
,,"(6, 6)",,,,,,,,
R,U,"[5, 6]",1.0,1.0,0.5279219150543213,3.0514259338378906,0.48324247118532615,52.0,471.0,0.0
Y,R,"[5, 7]",1.0,2.0,0.19254302978515625,1.934142827987671,0.7342735064816148,52.0,472.0,0.0
Y,R,"[5, 8]",1.0,3.0,0.18909215927124023,1.90187406539917,0.7022754750863873,52.0,473.0,0.0
G,D,"[6, 8]",1.0,4.0,0.21304607391357422,1.8466300964355469,0.6322744196770815,52.0,474.0,0.0
Y,R,"[6, 9]",1.0,5.0,0.23305010795593262,1.5080029964447021,0.2738891889289482,52.0,475.0,0.0
Y,R,"[6, 10]",1.0,6.0,0.4402589797973633,2.166635036468506,0.7233171428614451,52.0,476.0,0.0
R,U,"[5, 10]",1.0,7.0,0.2353520393371582,1.7250511646270752,0.49860997702898935,52.0,477.0,0.0
R,U,"[4, 10]",1.0,8.0,0.28801989555358887,1.6025779247283936,0.31799155883781755,52.0,478.0,0.0
B,L,"[4, 9]",1.0,9.0,0.3329648971557617,1.7380130290985107,0.40586562565607676,52.0,479.0,0.0
R,U,"[3, 9]",1.0,10.0,0.24175405502319336,1.9554600715637207,0.7111238667137696,52.0,480.0,0.0
,,"(6, 6)",,,,,,,,
R,U,"[5, 6]",-999.0,0.0,0.4919438362121582,2.366580009460449,0.3943144696117043,53.0,481.0,-4.0
Y,R,"[5, 7]",-999.0,0.0,0.23794794082641602,1.5322349071502686,0.3099455798913727,53.0,482.0,-4.0
Y,R,"[5, 8]",-999.0,0.0,0.2786238193511963,1.818331003189087,0.5447110962994866,53.0,483.0,-4.0
R,U,"[4, 8]",-999.0,0.0,0.4059131145477295,2.0484490394592285,0.659616278727657,53.0,484.0,-4.0
G,D,"[5, 8]",-999.0,0.0,0.6419398784637451,2.102442979812622,0.46227005536832305,53.0,485.0,1.0
,,"(6, 6)",,,,,,,,
R,U,"[5, 6]",1.0,1.0,0.5365760326385498,3.3004729747772217,0.5125865787638479,54.0,486.0,0.0
Y,R,"[5, 7]",1.0,2.0,0.19820404052734375,1.6004328727722168,0.3964306960579242,54.0,487.0,0.0
Y,R,"[5, 8]",1.0,3.0,0.23225712776184082,1.9745359420776367,0.7371947872377956,54.0,488.0,0.0
R,U,"[4, 8]",0.0,3.0,0.49059510231018066,1.941241979598999,0.46203009111713417,54.0,489.0,0.0
Y,R,"[4, 9]",1.0,4.0,0.49084997177124023,1.9580838680267334,0.4699186449335791,54.0,490.0,0.0
,,"(6, 6)",,,,,,,,
B,L,"[4, 9]",-999.0,0.0,0.6305069923400879,3.728415012359619,0.4482484079855537,55.0,491.0,-5.0
B,L,"[4, 9]",-999.0,0.0,0.48922181129455566,1.8005199432373047,0.3155926267807928,55.0,492.0,-5.0
R,U,"[4, 9]",-999.0,0.0,0.48328685760498047,1.9052660465240479,0.4207293347135441,55.0,493.0,-5.0
R,U,"[4, 9]",-999.0,0.0,0.3951430320739746,2.1367781162261963,0.7404878726272599,55.0,494.0,-5.0
B,L,"[4, 8]",-999.0,0.0,0.6258139610290527,2.098952054977417,0.47294648028487946,55.0,495.0,1.0
,,"(6, 6)",,,,,,,,
R,U,"[5, 6]",1.0,1.0,0.6718790531158447,4.114993095397949,0.47117539709167783,56.0,496.0,0.0
Y,R,"[5, 7]",1.0,2.0,0.21595096588134766,1.6902568340301514,0.4779810847009196,56.0,497.0,0.0
Y,R,"[5, 8]",1.0,3.0,0.21673893928527832,1.6681969165802002,0.46275709441373203,56.0,498.0,0.0
G,D,"[6, 8]",1.0,4.0,0.2003791332244873,1.809493064880371,0.6054603477332984,56.0,499.0,0.0
Y,R,"[6, 9]",1.0,5.0,0.17838001251220703,1.7571539878845215,0.5793034146344862,56.0,500.0,0.0
,,"(6, 6)",,,,,,,,
R,U,"[5, 6]",1.0,1.0,0.513355016708374,3.675239086151123,0.50446750555595,57.0,501.0,0.0
Y,R,"[5, 7]",1.0,2.0,0.21628999710083008,1.6630580425262451,0.45073379120410545,57.0,502.0,0.0
Y,R,"[5, 8]",1.0,3.0,0.19931507110595703,1.7469499111175537,0.5475966287673559,57.0,503.0,0.0
G,D,"[6, 8]",1.0,4.0,0.19756698608398438,1.5859999656677246,0.3837225797056775,57.0,504.0,0.0
Y,R,"[6, 9]",1.0,5.0,0.24712491035461426,1.7296550273895264,0.479904859008892,57.0,505.0,0.0
Y,R,"[6, 10]",1.0,6.0,0.1897721290588379,1.6499149799346924,0.4464736470337326,57.0,506.0,0.0
R,U,"[5, 10]",1.0,7.0,0.22165417671203613,1.8879148960113525,0.6673601132390865,57.0,507.0,0.0
R,U,"[4, 10]",1.0,8.0,0.3602609634399414,1.640643835067749,0.2751180322303998,57.0,508.0,0.0
B,L,"[4, 9]",1.0,9.0,0.39003896713256836,2.0841400623321533,0.6925406822256468,57.0,509.0,0.0
R,U,"[3, 9]",1.0,10.0,0.216933012008667,1.775541067123413,0.5677023253939667,57.0,510.0,0.0
,,"(6, 6)",,,,,,,,
R,U,"[5, 6]",1.0,1.0,0.6165211200714111,2.7404279708862305,0.40818278259004986,58.0,511.0,0.0
Y,R,"[5, 7]",1.0,2.0,0.23284506797790527,1.8742060661315918,0.6487005676981583,58.0,512.0,0.0
Y,R,"[5, 8]",1.0,3.0,0.2005620002746582,1.5070371627807617,0.3061379051723336,58.0,513.0,0.0
G,D,"[6, 8]",1.0,4.0,0.30945706367492676,1.8274550437927246,0.5166919947743519,58.0,514.0,0.0
Y,R,"[6, 9]",1.0,5.0,0.24615192413330078,1.7049469947814941,0.45491839534491846,58.0,515.0,0.0
Y,R,"[6, 10]",1.0,6.0,0.22117996215820312,1.6179699897766113,0.4061690960473884,58.0,516.0,0.0
R,U,"[5, 10]",1.0,7.0,0.24049091339111328,1.7086281776428223,0.46477952070926076,58.0,517.0,0.0
R,U,"[4, 10]",1.0,8.0,0.21079301834106445,1.6980938911437988,0.47933664494233424,58.0,518.0,0.0
B,L,"[4, 9]",1.0,9.0,0.20293498039245605,1.4622290134429932,0.2584811084092553,58.0,519.0,0.0
R,U,"[3, 9]",1.0,10.0,0.31679511070251465,1.676934003829956,0.36853581611180486,58.0,520.0,0.0
,,"(6, 6)",,,,,,,,
R,U,"[5, 6]",-999.0,0.0,0.503201961517334,2.943826913833618,0.37894796764297317,59.0,521.0,-4.0
Y,R,"[5, 7]",-999.0,0.0,0.3627748489379883,1.9324841499328613,0.5612775848927806,59.0,522.0,-4.0
Y,R,"[5, 8]",-999.0,0.0,0.22977209091186523,1.8353040218353271,0.6131441742597035,59.0,523.0,-4.0
R,U,"[4, 8]",-999.0,0.0,0.3809480667114258,1.8442339897155762,0.45737410012018437,59.0,524.0,-4.0
G,D,"[5, 8]",-999.0,0.0,0.7504560947418213,2.3216121196746826,0.5787640381901893,59.0,525.0,1.0
,,"(6, 6)",,,,,,,,
B,L,"[5, 8]",-999.0,0.0,0.7463548183441162,3.2061049938201904,0.40166140719712456,60.0,526.0,-5.0
B,L,"[5, 8]",-999.0,0.0,0.3181478977203369,1.833570957183838,0.518389670326407,60.0,527.0,-5.0
R,U,"[5, 8]",-999.0,0.0,0.4006948471069336,1.8844311237335205,0.48604744079773776,60.0,528.0,-5.0
R,U,"[5, 8]",-999.0,0.0,0.5273580551147461,2.056636095046997,0.5261000166150449,60.0,529.0,-5.0
Y,R,"[5, 9]",-2.0,0.0,1.2435340881347656,2.901447057723999,0.6938172304469936,60.0,530.0,1.0
,,"(6, 6)",,,,,,,,
R,U,"[5, 6]",1.0,1.0,0.5763609409332275,3.3305180072784424,0.5078652815799185,61.0,531.0,0.0
Y,R,"[5, 7]",1.0,2.0,0.2161271572113037,1.8319470882415771,0.6229723684467017,61.0,532.0,0.0
Y,R,"[5, 8]",1.0,3.0,0.17093515396118164,1.5586919784545898,0.398490879140221,61.0,533.0,0.0
G,D,"[6, 8]",1.0,4.0,0.24089312553405762,1.8534228801727295,0.6016630417132793,61.0,534.0,0.0
Y,R,"[6, 9]",1.0,5.0,0.1828927993774414,1.6240599155426025,0.4424128075632433,61.0,535.0,0.0
Y,R,"[6, 10]",1.0,6.0,0.18833088874816895,1.801609992980957,0.6105663564892228,61.0,536.0,0.0
R,U,"[5, 10]",1.0,7.0,0.4717600345611572,2.2229928970336914,0.7499660956333813,61.0,537.0,0.0
R,U,"[4, 10]",1.0,8.0,0.24390411376953125,1.9352779388427734,0.6853041142151068,61.0,538.0,0.0
B,L,"[4, 9]",1.0,9.0,0.25544285774230957,1.9627370834350586,0.6979189776367503,61.0,539.0,0.0
R,U,"[3, 9]",1.0,10.0,0.16787195205688477,1.5567269325256348,0.3882547362068868,61.0,540.0,0.0
,,"(6, 6)",,,,,,,,
R,U,"[5, 6]",1.0,1.0,0.47786402702331543,3.212805986404419,0.7343610872095814,62.0,541.0,0.0
Y,R,"[5, 7]",1.0,2.0,0.15811681747436523,1.6488418579101562,0.483005566865167,62.0,542.0,0.0
Y,R,"[5, 8]",1.0,3.0,0.2402658462524414,1.5467588901519775,0.29660226514562477,62.0,543.0,0.0
G,D,"[6, 8]",1.0,4.0,0.34418797492980957,1.9568212032318115,0.6034115933611089,62.0,544.0,0.0
Y,R,"[6, 9]",1.0,5.0,0.25823211669921875,1.9156510829925537,0.6519191216936053,62.0,545.0,0.0
Y,R,"[6, 10]",1.0,6.0,0.23444294929504395,1.591357946395874,0.3602445323347766,62.0,546.0,0.0
R,U,"[5, 10]",1.0,7.0,0.2482149600982666,1.5246520042419434,0.28487447493155765,62.0,547.0,0.0
R,U,"[4, 10]",1.0,8.0,0.5718939304351807,2.1695191860198975,0.603909301490372,62.0,548.0,0.0
B,L,"[4, 9]",1.0,9.0,0.20205092430114746,1.761322021484375,0.5653741744075655,62.0,549.0,0.0
R,U,"[3, 9]",1.0,10.0,0.212371826171875,1.5663180351257324,0.34845091326036987,62.0,550.0,0.0
,,"(6, 6)",,,,,,,,
R,U,"[5, 6]",1.0,1.0,0.38267993927001953,3.1350510120391846,0.6997482842193607,63.0,551.0,0.0
Y,R,"[5, 7]",1.0,2.0,0.18964886665344238,1.4816009998321533,0.2816845460582021,63.0,552.0,0.0
Y,R,"[5, 8]",1.0,3.0,0.32401490211486816,2.068944215774536,0.7333813703583278,63.0,553.0,0.0
G,D,"[6, 8]",1.0,4.0,0.21331310272216797,1.850456953048706,0.6340385712683021,63.0,554.0,0.0
Y,R,"[6, 9]",-1.0,4.0,0.035861968994140625,5.378262042999268,0.27911637381324367,63.0,555.0,0.0
Y,R,"[6, 10]",1.0,5.0,0.37201404571533203,1.9500739574432373,0.5620486652078398,63.0,556.0,0.0
R,U,"[5, 10]",-1.0,5.0,0.03942513465881348,5.6518518924713135,0.5472193447823845,63.0,557.0,0.0
R,U,"[4, 10]",1.0,6.0,0.5391199588775635,2.0261008739471436,0.4732741784221987,63.0,558.0,0.0
B,L,"[4, 9]",1.0,7.0,0.8002691268920898,2.1266889572143555,0.33339138421676384,63.0,559.0,0.0
R,U,"[3, 9]",1.0,8.0,0.40683817863464355,1.8326520919799805,0.41578987168590376,63.0,560.0,0.0
,,"(6, 6)",,,,,,,,
R,U,"[5, 6]",-999.0,0.0,0.6256380081176758,5.082025051116943,0.6807898303548567,64.0,561.0,-4.0
Y,R,"[5, 7]",-999.0,0.0,0.35216379165649414,1.8933470249176025,0.5408198619702661,64.0,562.0,-4.0
Y,R,"[5, 8]",-999.0,0.0,0.26187801361083984,1.5699090957641602,0.31099340768089895,64.0,563.0,-4.0
G,D,"[6, 8]",-999.0,0.0,0.40813708305358887,1.9006149768829346,0.511389960281986,64.0,564.0,-4.0
Y,R,"[6, 9]",-999.0,0.0,0.24213504791259766,1.86574387550354,0.6268674392193118,64.0,565.0,-4.0
Y,R,"[6, 10]",-999.0,0.0,0.2147219181060791,1.5991291999816895,0.3928622853464324,64.0,566.0,-4.0
R,U,"[5, 10]",-999.0,0.0,0.22958993911743164,1.6625089645385742,0.43871705528842403,64.0,567.0,-4.0
R,U,"[4, 10]",-999.0,0.0,0.2458178997039795,1.9245920181274414,0.6796460401045383,64.0,568.0,-4.0
R,U,"[3, 10]",-999.0,0.0,0.48750805854797363,1.9382410049438477,0.45139925967057176,64.0,569.0,-4.0
B,L,"[3, 9]",-999.0,0.0,0.4503018856048584,1.8125090599060059,0.36384942127009734,64.0,570.0,1.0
,,"(6, 6)",,,,,,,,
R,U,"[5, 6]",1.0,1.0,0.5149810314178467,2.6889219284057617,0.25291800936924286,65.0,571.0,0.0
Y,R,"[5, 7]",1.0,2.0,0.5260810852050781,1.8887619972229004,0.35815546001912135,65.0,572.0,0.0
Y,R,"[5, 8]",1.0,3.0,0.25671887397766113,1.965034008026123,0.7060747902478621,65.0,573.0,0.0
G,D,"[6, 8]",1.0,4.0,0.14399504661560059,1.559272050857544,0.41558441996281287,65.0,574.0,0.0
Y,R,"[6, 9]",1.0,5.0,0.21935391426086426,1.888443946838379,0.6703664620949539,65.0,575.0,0.0
Y,R,"[6, 10]",1.0,6.0,0.1779937744140625,1.534134864807129,0.35481903809351967,65.0,576.0,0.0
R,U,"[5, 10]",1.0,7.0,0.26830005645751953,1.5948989391326904,0.3329400972893714,65.0,577.0,0.0
R,U,"[4, 10]",1.0,8.0,0.2456521987915039,1.681408166885376,0.4310681628829906,65.0,578.0,0.0
B,L,"[4, 9]",1.0,9.0,0.22829389572143555,1.9153411388397217,0.6792859005089142,65.0,579.0,0.0
R,U,"[3, 9]",1.0,10.0,0.1825730800628662,1.734839916229248,0.5474943122771168,65.0,580.0,0.0
,,"(6, 6)",,,,,,,,
R,U,"[5, 6]",1.0,1.0,0.4351048469543457,2.464486837387085,0.6284940869551741,66.0,581.0,0.0
Y,R,"[5, 7]",1.0,2.0,0.18767905235290527,1.745039939880371,0.540312052461861,66.0,582.0,0.0
Y,R,"[5, 8]",1.0,3.0,0.18125104904174805,1.6953918933868408,0.5190211714316436,66.0,583.0,0.0
G,D,"[6, 8]",1.0,4.0,0.20621705055236816,1.7091639041900635,0.4948490859423477,66.0,584.0,0.0
Y,R,"[6, 9]",1.0,5.0,0.18929505348205566,1.6250770092010498,0.43667239077997505,66.0,585.0,0.0
Y,R,"[6, 10]",1.0,6.0,0.190842866897583,1.5837509632110596,0.38697004940283347,66.0,586.0,0.0
R,U,"[5, 10]",1.0,7.0,0.3517460823059082,1.8479180335998535,0.5013919528605328,66.0,587.0,0.0
R,U,"[4, 10]",1.0,8.0,0.21661996841430664,1.7111711502075195,0.49587722995032973,66.0,588.0,0.0
B,L,"[4, 9]",1.0,9.0,0.2568399906158447,1.9996211528778076,0.7285304333900374,66.0,589.0,0.0
R,U,"[3, 9]",1.0,10.0,0.6358439922332764,2.1813440322875977,0.5432863485156192,66.0,590.0,0.0
,,"(6, 6)",,,,,,,,
B,L,"[3, 9]",-999.0,0.0,0.856281042098999,4.987962007522583,0.3812193729783715,67.0,591.0,-5.0
B,L,"[3, 9]",-999.0,0.0,0.32413220405578613,2.033724069595337,0.7146319936805041,67.0,592.0,-5.0
R,U,"[3, 9]",-999.0,0.0,0.2577519416809082,1.5125441551208496,0.2608542880338016,67.0,593.0,-5.0
R,U,"[3, 9]",-999.0,0.0,0.4097728729248047,1.6618211269378662,0.2726435107375174,67.0,594.0,-5.0
R,U,"[2, 9]",-1.0,0.0,0.009299993515014648,5.757740020751953,0.696482228325192,67.0,595.0,1.0
,,"(6, 6)",,,,,,,,
B,L,"[2, 9]",-999.0,0.0,0.5354659557342529,3.910176992416382,0.5733451090731416,68.0,596.0,-5.0
B,L,"[2, 9]",-999.0,0.0,0.37534499168395996,1.6330809593200684,0.2732772558181241,68.0,597.0,-5.0
R,U,"[2, 9]",-999.0,0.0,0.5480630397796631,2.1500301361083984,0.6063726568229103,68.0,598.0,-5.0
R,U,"[2, 9]",-999.0,0.0,0.4852609634399414,1.8941059112548828,0.4172775945889072,68.0,599.0,-5.0
G,D,"[3, 9]",-999.0,0.0,0.9920210838317871,2.505452871322632,0.5059228471378385,68.0,600.0,1.0
,,"(6, 6)",,,,,,,,
R,U,"[5, 6]",1.0,1.0,0.4987640380859375,2.9512710571289062,0.7235829863492935,69.0,601.0,0.0
Y,R,"[5, 7]",1.0,2.0,0.2499399185180664,1.8323791027069092,0.5896061173353957,69.0,602.0,0.0
Y,R,"[5, 8]",1.0,3.0,0.2976200580596924,1.84798002243042,0.5545474177428664,69.0,603.0,0.0
G,D,"[6, 8]",1.0,4.0,0.2771449089050293,1.9660329818725586,0.6866985418687588,69.0,604.0,0.0
Y,R,"[6, 9]",1.0,5.0,0.21792101860046387,1.8983910083770752,0.685080723013847,69.0,605.0,0.0
Y,R,"[6, 10]",1.0,6.0,0.15888404846191406,1.899096965789795,0.7340676232452048,69.0,606.0,0.0
R,U,"[5, 10]",1.0,7.0,0.16705012321472168,1.7053349018096924,0.5395724827920014,69.0,607.0,0.0
R,U,"[4, 10]",1.0,8.0,0.3189270496368408,1.972123146057129,0.6614812881061682,69.0,608.0,0.0
B,L,"[4, 9]",1.0,9.0,0.244340181350708,1.618562936782837,0.38039492563906857,69.0,609.0,0.0
R,U,"[3, 9]",1.0,10.0,0.5328471660614014,2.0016679763793945,0.4653142558832233,69.0,610.0,0.0
,,"(6, 6)",,,,,,,,
R,U,"[5, 6]",-999.0,0.0,0.40889692306518555,2.775085926055908,0.6401685084409027,70.0,611.0,-4.0
Y,R,"[5, 7]",-999.0,0.0,0.4921391010284424,1.8237500190734863,0.3475322967857563,70.0,612.0,-4.0
Y,R,"[5, 8]",-999.0,0.0,0.43613290786743164,2.1245739459991455,0.6884205533243574,70.0,613.0,-4.0
G,D,"[6, 8]",-999.0,0.0,0.32315611839294434,1.6278071403503418,0.3165847427547996,70.0,614.0,-4.0
Y,R,"[6, 9]",-999.0,0.0,0.45482707023620605,2.083617925643921,0.633196677727782,70.0,615.0,-4.0
Y,R,"[6, 10]",-999.0,0.0,0.2077939510345459,1.9311699867248535,0.7310180794586691,70.0,616.0,-4.0
R,U,"[5, 10]",-999.0,0.0,0.21909499168395996,1.7000529766082764,0.48118525223163844,70.0,617.0,-4.0
R,U,"[4, 10]",-999.0,0.0,0.45409202575683594,1.7810029983520508,0.3290108402120131,70.0,618.0,-4.0
R,U,"[3, 10]",-999.0,0.0,0.6968321800231934,2.1433560848236084,0.4555176275459682,70.0,619.0,-4.0
Y,R,"[3, 11]",-999.0,0.0,0.41152191162109375,1.930217981338501,0.5189719677231728,70.0,620.0,1.0
,,"(6, 6)",,,,,,,,
R,U,"[5, 6]",1.0,1.0,0.4630138874053955,3.2821359634399414,0.5510893094703326,71.0,621.0,0.0
Y,R,"[5, 7]",1.0,2.0,0.19267606735229492,1.5720689296722412,0.37319711592261473,71.0,622.0,0.0
Y,R,"[5, 8]",1.0,3.0,0.2540271282196045,1.5439119338989258,0.30071202042030676,71.0,623.0,0.0
G,D,"[6, 8]",1.0,4.0,0.39806199073791504,1.7110140323638916,0.31148457101551746,71.0,624.0,0.0
Y,R,"[6, 9]",1.0,5.0,0.28516602516174316,1.8969781398773193,0.625311322673341,71.0,625.0,0.0
Y,R,"[6, 10]",1.0,6.0,0.17595982551574707,1.8382079601287842,0.6633259572091934,71.0,626.0,0.0
R,U,"[5, 10]",1.0,7.0,0.15293288230895996,1.6247799396514893,0.4712067582607719,71.0,627.0,0.0
R,U,"[4, 10]",1.0,8.0,0.2102189064025879,1.7092490196228027,0.4972093741752001,71.0,628.0,0.0
B,L,"[4, 9]",1.0,9.0,0.21003198623657227,1.5030620098114014,0.2836773783990476,71.0,629.0,0.0
R,U,"[3, 9]",1.0,10.0,0.21956086158752441,1.506767988204956,0.29042224652979187,71.0,630.0,0.0
,,"(6, 6)",,,,,,,,
R,U,"[5, 6]",1.0,1.0,0.49478912353515625,2.4687280654907227,0.40902103673313134,72.0,631.0,0.0
Y,R,"[5, 7]",1.0,2.0,0.23292803764343262,1.6102650165557861,0.3860761248696728,72.0,632.0,0.0
Y,R,"[5, 8]",1.0,3.0,0.22724485397338867,1.823707103729248,0.5928711469307151,72.0,633.0,0.0
G,D,"[6, 8]",-1.0,3.0,0.013968944549560547,5.662154197692871,0.5882326379660514,72.0,634.0,0.0
Y,R,"[6, 9]",1.0,4.0,0.24786686897277832,1.8122150897979736,0.5671610070489068,72.0,635.0,0.0
Y,R,"[6, 10]",1.0,5.0,0.16317987442016602,1.467052936553955,0.30103593675340556,72.0,636.0,0.0
R,U,"[5, 10]",1.0,6.0,0.4124491214752197,1.9199068546295166,0.5040709903955884,72.0,637.0,0.0
R,U,"[4, 10]",1.0,7.0,0.20102500915527344,1.4771831035614014,0.28149463463287105,72.0,638.0,0.0
B,L,"[4, 9]",1.0,8.0,0.27749085426330566,1.841763973236084,0.556235381907419,72.0,639.0,0.0
R,U,"[3, 9]",1.0,9.0,0.195112943649292,1.5215158462524414,0.3280112423553826,72.0,640.0,0.0
,,"(6, 6)",,,,,,,,
R,U,"[5, 6]",1.0,1.0,0.4947690963745117,2.364081859588623,0.4252424797134756,73.0,641.0,0.0
Y,R,"[5, 7]",1.0,2.0,0.19852590560913086,1.4502449035644531,0.25902820193789405,73.0,642.0,0.0
Y,R,"[5, 8]",1.0,3.0,0.3407309055328369,1.6806550025939941,0.3396581535191791,73.0,643.0,0.0
G,D,"[6, 8]",1.0,4.0,0.26934003829956055,1.91162109375,0.6509075997258198,73.0,644.0,0.0
Y,R,"[6, 9]",1.0,5.0,0.18666315078735352,1.7194488048553467,0.537120498776227,73.0,645.0,0.0
Y,R,"[6, 10]",1.0,6.0,0.18633079528808594,1.4723570346832275,0.2930150435594645,73.0,646.0,0.0
R,U,"[5, 10]",1.0,7.0,0.34539198875427246,2.0252749919891357,0.6848538935171276,73.0,647.0,0.0
R,U,"[4, 10]",1.0,8.0,0.1950819492340088,1.7440948486328125,0.5453695363133908,73.0,648.0,0.0
B,L,"[4, 9]",1.0,9.0,0.22501707077026367,1.7550270557403564,0.5171475500259076,73.0,649.0,0.0
R,U,"[3, 9]",1.0,10.0,0.4340088367462158,2.062608003616333,0.629931146521469,73.0,650.0,0.0
,,"(6, 6)",,,,,,,,
R,U,"[5, 6]",1.0,1.0,0.3405318260192871,3.0005078315734863,0.5301824121500601,74.0,651.0,0.0
Y,R,"[5, 7]",1.0,2.0,0.14131402969360352,1.510591983795166,0.3575311387161291,74.0,652.0,0.0
Y,R,"[5, 8]",1.0,3.0,0.23523998260498047,1.515589952468872,0.2899064378824254,74.0,653.0,0.0
G,D,"[6, 8]",1.0,4.0,0.3266479969024658,1.784369945526123,0.45727491669463033,74.0,654.0,0.0
Y,R,"[6, 9]",1.0,5.0,0.24219989776611328,1.9325530529022217,0.6896651171082127,74.0,655.0,0.0
Y,R,"[6, 10]",1.0,6.0,0.12091708183288574,1.608828067779541,0.49870657654262623,74.0,656.0,0.0
R,U,"[5, 10]",1.0,7.0,0.23247909545898438,1.9053840637207031,0.6705689236674979,74.0,657.0,0.0
R,U,"[4, 10]",1.0,8.0,0.14421916007995605,1.8541738986968994,0.7079531445948545,74.0,658.0,0.0
B,L,"[4, 9]",1.0,9.0,0.2202439308166504,1.4804458618164062,0.27215417676007897,74.0,659.0,0.0
R,U,"[3, 9]",1.0,10.0,0.38182997703552246,2.019057035446167,0.6408737390533326,74.0,660.0,0.0
,,"(6, 6)",,,,,,,,
R,U,"[5, 6]",1.0,1.0,0.5098440647125244,4.080411911010742,0.537979780753914,75.0,661.0,0.0
Y,R,"[5, 7]",1.0,2.0,0.21045303344726562,1.7304511070251465,0.5183118314799742,75.0,662.0,0.0
Y,R,"[5, 8]",1.0,3.0,0.18349504470825195,1.6083769798278809,0.4267091035096143,75.0,663.0,0.0
R,U,"[4, 8]",0.0,3.0,0.30148911476135254,1.7167742252349854,0.42695412957996465,75.0,664.0,0.0
Y,R,"[4, 9]",-2.0,3.0,1.119800090789795,2.695374011993408,0.6220252970816829,75.0,665.0,0.0
Y,R,"[4, 10]",1.0,4.0,0.318770170211792,1.9073200225830078,0.5960240421032528,75.0,666.0,0.0
R,U,"[3, 10]",0.0,4.0,0.2341020107269287,1.6560819149017334,0.41893870646090414,75.0,667.0,0.0
R,U,"[2, 10]",0.0,4.0,0.2840709686279297,1.7568740844726562,0.47573925241972315,75.0,668.0,0.0
B,L,"[2, 9]",0.0,4.0,0.2920999526977539,1.5826818943023682,0.29188076626080306,75.0,669.0,0.0
R,U,"[1, 9]",0.0,4.0,0.2756781578063965,1.5380048751831055,0.26321700355213323,75.0,670.0,0.0
,,"(6, 6)",,,,,,,,
R,U,"[5, 6]",1.0,1.0,0.3869209289550781,3.0699939727783203,0.3498188611693307,76.0,671.0,0.0
Y,R,"[5, 7]",1.0,2.0,0.2480478286743164,1.5845379829406738,0.33433050211537785,76.0,672.0,0.0
Y,R,"[5, 8]",1.0,3.0,0.2777221202850342,1.7302391529083252,0.4477839839284982,76.0,673.0,0.0
G,D,"[6, 8]",1.0,4.0,0.24367117881774902,1.6258859634399414,0.37363978081487575,76.0,674.0,0.0
Y,R,"[6, 9]",1.0,5.0,0.22266101837158203,1.7438910007476807,0.5173598084609081,76.0,675.0,0.0
Y,R,"[6, 10]",1.0,6.0,0.18165898323059082,1.7132701873779297,0.5306891727770005,76.0,676.0,0.0
R,U,"[5, 10]",1.0,7.0,0.2649269104003906,1.562441110610962,0.2933120514408956,76.0,677.0,0.0
R,U,"[4, 10]",1.0,8.0,0.2604789733886719,1.822633981704712,0.5656463648389467,76.0,678.0,0.0
B,L,"[4, 9]",1.0,9.0,0.4745781421661377,2.0080318450927734,0.5237188627270732,76.0,679.0,0.0
R,U,"[3, 9]",1.0,10.0,0.2597482204437256,1.6995809078216553,0.440005927113663,76.0,680.0,0.0
,,"(6, 6)",,,,,,,,
R,U,"[5, 6]",1.0,1.0,0.451030969619751,2.6750080585479736,0.3650278416388642,77.0,681.0,0.0
Y,R,"[5, 7]",1.0,2.0,0.23982000350952148,1.738935947418213,0.503725670588256,77.0,682.0,0.0
Y,R,"[5, 8]",1.0,3.0,0.29805994033813477,1.8501911163330078,0.5538555627203838,77.0,683.0,0.0
G,D,"[6, 8]",1.0,4.0,0.22590112686157227,1.840900182723999,0.6114433939150579,77.0,684.0,0.0
Y,R,"[6, 9]",1.0,5.0,0.22552800178527832,1.741075038909912,0.5191073128943494,77.0,685.0,0.0
Y,R,"[6, 10]",1.0,6.0,0.39751696586608887,2.139400005340576,0.7417306721917798,77.0,686.0,0.0
R,U,"[5, 10]",1.0,7.0,0.24316883087158203,1.686995029449463,0.4456095882835837,77.0,687.0,0.0
R,U,"[4, 10]",1.0,8.0,0.28417205810546875,1.642240047454834,0.35456128753637034,77.0,688.0,0.0
B,L,"[4, 9]",1.0,9.0,0.3056910037994385,1.7766978740692139,0.4644607908849549,77.0,689.0,0.0
R,U,"[3, 9]",1.0,10.0,0.21468806266784668,1.5206530094146729,0.3019549974541209,77.0,690.0,0.0
,,"(6, 6)",,,,,,,,
B,L,"[3, 9]",-999.0,0.0,0.7085371017456055,3.586677074432373,0.4884064938432152,78.0,691.0,-5.0
B,L,"[3, 9]",-999.0,0.0,0.3224167823791504,1.8493859767913818,0.5377167981370048,78.0,692.0,-5.0
R,U,"[3, 9]",-999.0,0.0,0.32013607025146484,1.9662561416625977,0.6542287438414476,78.0,693.0,-5.0
R,U,"[3, 9]",-999.0,0.0,0.2380540370941162,1.509105920791626,0.27981771396277905,78.0,694.0,-5.0
G,D,"[4, 9]",-999.0,0.0,0.7900919914245605,2.505357027053833,0.7181457877008677,78.0,695.0,1.0
,,"(6, 6)",,,,,,,,
B,L,"[4, 9]",-999.0,0.0,0.5317249298095703,2.6081860065460205,0.49317650645059674,79.0,696.0,-5.0
B,L,"[4, 9]",-999.0,0.0,0.2449951171875,1.9504339694976807,0.7104760504704879,79.0,697.0,-5.0
R,U,"[4, 9]",-999.0,0.0,0.28728318214416504,1.682276964187622,0.40927383012042245,79.0,698.0,-5.0
R,U,"[4, 9]",-999.0,0.0,0.23271393775939941,1.8949878215789795,0.670552521083487,79.0,699.0,-5.0
B,L,"[4, 8]",-999.0,0.0,0.3276491165161133,2.0277810096740723,0.6983574583413055,79.0,700.0,1.0
,,"(6, 6)",,,,,,,,
R,U,"[5, 6]",1.0,1.0,0.4705069065093994,2.7085530757904053,0.5238147061431071,80.0,701.0,0.0
Y,R,"[5, 7]",1.0,2.0,0.20633506774902344,1.5596320629119873,0.3501211611855727,80.0,702.0,0.0
Y,R,"[5, 8]",1.0,3.0,0.2125849723815918,1.9324619770050049,0.7156779045502379,80.0,703.0,0.0
G,D,"[6, 8]",1.0,4.0,0.19532513618469238,1.7298989295959473,0.5289637286641227,80.0,704.0,0.0
Y,R,"[6, 9]",1.0,5.0,0.22194290161132812,1.6054279804229736,0.38444751048671516,80.0,705.0,0.0
Y,R,"[6, 10]",1.0,6.0,0.2200171947479248,1.9365417957305908,0.720670750493623,80.0,706.0,0.0
R,U,"[5, 10]",1.0,7.0,0.2284090518951416,1.5073339939117432,0.2783261072838572,80.0,707.0,0.0
R,U,"[4, 10]",1.0,8.0,0.4345839023590088,1.9297099113464355,0.5077742395074789,80.0,708.0,0.0
B,L,"[4, 9]",1.0,9.0,0.3071870803833008,2.0000109672546387,0.6909276499227732,80.0,709.0,0.0
R,U,"[3, 9]",1.0,10.0,0.23427510261535645,1.6244549751281738,0.39904392672216543,80.0,710.0,0.0
,,"(6, 6)",,,,,,,,
R,U,"[5, 6]",1.0,1.0,0.5056982040405273,3.3592309951782227,0.524741456861598,81.0,711.0,0.0
Y,R,"[5, 7]",1.0,2.0,0.18202590942382812,1.6495909690856934,0.4745316325566789,81.0,712.0,0.0
Y,R,"[5, 8]",1.0,3.0,0.2088460922241211,1.8015470504760742,0.5923364838021862,81.0,713.0,0.0
G,D,"[6, 8]",1.0,4.0,0.1908261775970459,1.8275880813598633,0.6366425043182637,81.0,714.0,0.0
Y,R,"[6, 9]",1.0,5.0,0.11451911926269531,1.707909107208252,0.5945464251795123,81.0,715.0,0.0
Y,R,"[6, 10]",1.0,6.0,0.1714479923248291,1.7006869316101074,0.5452676446224294,81.0,716.0,0.0
R,U,"[5, 10]",1.0,7.0,0.1558380126953125,1.4446890354156494,0.27348704401172025,81.0,717.0,0.0
R,U,"[4, 10]",1.0,8.0,0.3735828399658203,1.7560629844665527,0.3793483739449739,81.0,718.0,0.0
B,L,"[4, 9]",1.0,9.0,0.36078596115112305,1.7545149326324463,0.38395022714108235,81.0,719.0,0.0
R,U,"[3, 9]",1.0,10.0,0.21675801277160645,1.617527961730957,0.40130077568384803,81.0,720.0,0.0
,,"(6, 6)",,,,,,,,
G,D,"[3, 9]",-999.0,0.0,0.6050457954406738,2.418606996536255,0.3200543546275925,82.0,721.0,-5.0
G,D,"[3, 9]",-999.0,0.0,0.31366896629333496,1.9385120868682861,0.624808989781807,82.0,722.0,-5.0
G,D,"[3, 9]",-999.0,0.0,0.2241060733795166,1.4951999187469482,0.2871078689412829,82.0,723.0,-5.0
B,L,"[3, 9]",-999.0,0.0,0.36307692527770996,1.7310118675231934,0.3679678247603237,82.0,724.0,-5.0
B,L,"[3, 9]",-999.0,0.0,0.24066400527954102,1.6084001064300537,0.37622582282744826,82.0,725.0,-5.0
R,U,"[3, 9]",-999.0,0.0,0.432711124420166,1.852043867111206,0.4283189422119812,82.0,726.0,-5.0
R,U,"[3, 9]",-999.0,0.0,0.26070404052734375,1.6685290336608887,0.413398084930362,82.0,727.0,-5.0
B,L,"[3, 9]",-999.0,0.0,0.40836095809936523,2.1473350524902344,0.7438004387923254,82.0,728.0,-5.0
B,L,"[3, 9]",-999.0,0.0,0.25099802017211914,1.7021119594573975,0.4628404058882808,82.0,729.0,-5.0
Y,R,"[3, 10]",-999.0,0.0,0.44625115394592285,2.1360280513763428,0.6819322012905098,82.0,730.0,1.0
,,"(6, 6)",,,,,,,,
R,U,"[5, 6]",1.0,1.0,0.8183691501617432,4.192349910736084,0.6409127035647761,83.0,731.0,0.0
Y,R,"[5, 7]",1.0,2.0,0.22871112823486328,1.942795991897583,0.7168843432079028,83.0,732.0,0.0
Y,R,"[5, 8]",1.0,3.0,0.1715700626373291,1.674349069595337,0.5081004967070499,83.0,733.0,0.0
G,D,"[6, 8]",1.0,4.0,0.2119889259338379,1.7450661659240723,0.536384236883281,83.0,734.0,0.0
Y,R,"[6, 9]",1.0,5.0,0.18494486808776855,1.5076971054077148,0.3275814307904109,83.0,735.0,0.0
Y,R,"[6, 10]",1.0,6.0,0.24994993209838867,1.6001660823822021,0.36104664827153815,83.0,736.0,0.0
R,U,"[5, 10]",1.0,7.0,0.2198169231414795,1.9521851539611816,0.7460490058202917,83.0,737.0,0.0
R,U,"[4, 10]",1.0,8.0,0.17815208435058594,1.5582339763641357,0.3713691334512123,83.0,738.0,0.0
B,L,"[4, 9]",1.0,9.0,0.3879110813140869,1.7665200233459473,0.37127110950919706,83.0,739.0,0.0
R,U,"[3, 9]",1.0,10.0,0.3945350646972656,2.0403330326080322,0.6446431052027966,83.0,740.0,0.0
,,"(6, 6)",,,,,,,,
R,U,"[5, 6]",1.0,1.0,0.41788482666015625,2.7255101203918457,0.25388223509927205,84.0,741.0,0.0
Y,R,"[5, 7]",1.0,2.0,0.2700660228729248,1.9815361499786377,0.7181056862761069,84.0,742.0,0.0
Y,R,"[5, 8]",1.0,3.0,0.14467406272888184,1.785573959350586,0.6371862925137826,84.0,743.0,0.0
G,D,"[6, 8]",1.0,4.0,0.16913390159606934,1.4533278942108154,0.290852521178629,84.0,744.0,0.0
Y,R,"[6, 9]",1.0,5.0,0.2541329860687256,1.9433250427246094,0.7003771357097578,84.0,745.0,0.0
Y,R,"[6, 10]",1.0,6.0,0.17835783958435059,1.8005211353302002,0.6175979325034922,84.0,746.0,0.0
R,U,"[5, 10]",1.0,7.0,0.2390890121459961,1.6461551189422607,0.3972532586730311,84.0,747.0,0.0
R,U,"[4, 10]",1.0,8.0,0.2491159439086914,1.9866759777069092,0.733643818912509,84.0,748.0,0.0
B,L,"[4, 9]",1.0,9.0,0.1177527904510498,1.5332977771759033,0.41709177967726907,84.0,749.0,0.0
R,U,"[3, 9]",1.0,10.0,0.2364180088043213,1.732400894165039,0.49947806567119835,84.0,750.0,0.0
,,"(6, 6)",,,,,,,,
R,U,"[5, 6]",-999.0,0.0,0.5287609100341797,3.458185911178589,0.4242249957986308,85.0,751.0,-4.0
Y,R,"[5, 7]",-999.0,0.0,0.3939859867095947,1.7694718837738037,0.37728716505484117,85.0,752.0,-4.0
Y,R,"[5, 8]",-999.0,0.0,0.3796710968017578,2.112407922744751,0.7395391458531508,85.0,753.0,-4.0
R,U,"[4, 8]",-999.0,0.0,0.3676750659942627,1.762502908706665,0.40185024335198033,85.0,754.0,-4.0
B,L,"[4, 7]",-999.0,0.0,0.6830499172210693,2.3752779960632324,0.6934971049910088,85.0,755.0,1.0
,,"(6, 6)",,,,,,,,
R,U,"[5, 6]",1.0,1.0,0.4332551956176758,3.009704113006592,0.6865422676358063,86.0,756.0,0.0
Y,R,"[5, 7]",1.0,2.0,0.2277228832244873,1.531930923461914,0.30209987886931783,86.0,757.0,0.0
Y,R,"[5, 8]",1.0,3.0,0.45435309410095215,1.7616260051727295,0.3137855027013112,86.0,758.0,0.0
G,D,"[6, 8]",1.0,4.0,0.7716720104217529,2.512080192565918,0.7419567833452887,86.0,759.0,0.0
Y,R,"[6, 9]",1.0,5.0,0.1885969638824463,1.7014689445495605,0.5268885670832532,86.0,760.0,0.0
,,"(6, 6)",,,,,,,,
R,U,"[5, 6]",-999.0,0.0,0.47992396354675293,3.6355879306793213,0.5957483654164355,87.0,761.0,-4.0
Y,R,"[5, 7]",-999.0,0.0,0.2596859931945801,1.607097864151001,0.3529995111191288,87.0,762.0,-4.0
Y,R,"[5, 8]",-999.0,0.0,0.2995181083679199,1.9329378604888916,0.6357627588083375,87.0,763.0,-4.0
R,U,"[4, 8]",-999.0,0.0,0.42319488525390625,1.919597864151001,0.5053850158292208,87.0,764.0,-4.0
G,D,"[5, 8]",-999.0,0.0,0.46356916427612305,1.7348458766937256,0.27382364068199483,87.0,765.0,1.0
,,"(6, 6)",,,,,,,,
R,U,"[5, 6]",-999.0,0.0,0.45995402336120605,2.97194504737854,0.6786221717451648,88.0,766.0,-4.0
Y,R,"[5, 7]",-999.0,0.0,0.28680896759033203,1.7599430084228516,0.4720772572064683,88.0,767.0,-4.0
Y,R,"[5, 8]",-999.0,0.0,0.2828669548034668,1.7625160217285156,0.4845388406567168,88.0,768.0,-4.0
G,D,"[6, 8]",-999.0,0.0,0.35212111473083496,1.8511970043182373,0.5024113724124183,88.0,769.0,-4.0
Y,R,"[6, 9]",-999.0,0.0,0.22011303901672363,1.8638300895690918,0.6493002813700977,88.0,770.0,-4.0
,,"(6, 6)",,,,,,,,
G,D,"[6, 9]",-999.0,0.0,0.6214520931243896,3.4317941665649414,0.3479644425874788,89.0,771.0,-5.0
G,D,"[6, 9]",-999.0,0.0,0.41310906410217285,1.7562580108642578,0.33760965351932726,89.0,772.0,-5.0
G,D,"[6, 9]",-999.0,0.0,0.30013012886047363,1.9771718978881836,0.6811182249972825,89.0,773.0,-5.0
B,L,"[6, 9]",-999.0,0.0,0.5951840877532959,1.8748939037322998,0.27305071535168113,89.0,774.0,-5.0
B,L,"[6, 9]",-999.0,0.0,0.33617186546325684,2.0172698497772217,0.6897015253942278,89.0,775.0,-5.0
R,U,"[6, 9]",-999.0,0.0,0.27839207649230957,2.018620014190674,0.7415879119230837,89.0,776.0,-5.0
R,U,"[6, 9]",-999.0,0.0,0.22474122047424316,1.806870937347412,0.598666852246128,89.0,777.0,-5.0
B,L,"[6, 9]",-999.0,0.0,0.3670470714569092,2.091057062149048,0.7229073207588281,89.0,778.0,-5.0
B,L,"[6, 9]",-999.0,0.0,0.3676619529724121,1.9357950687408447,0.5754580170677064,89.0,779.0,-5.0
R,U,"[5, 9]",-999.0,0.0,0.28638505935668945,1.8333311080932617,0.5590189157639278,89.0,780.0,1.0
,,"(6, 6)",,,,,,,,
R,U,"[5, 6]",1.0,1.0,0.47954392433166504,3.32096004486084,0.446482542736885,90.0,781.0,0.0
Y,R,"[5, 7]",1.0,2.0,0.2406299114227295,1.8889460563659668,0.6352108685822583,90.0,782.0,0.0
Y,R,"[5, 8]",1.0,3.0,0.16326308250427246,1.5298340320587158,0.36531133808576133,90.0,783.0,0.0
G,D,"[6, 8]",1.0,4.0,0.2959439754486084,1.885810136795044,0.584003036218272,90.0,784.0,0.0
Y,R,"[6, 9]",1.0,5.0,0.15262484550476074,1.68825101852417,0.5390920204966063,90.0,785.0,0.0
Y,R,"[6, 10]",1.0,6.0,0.18921399116516113,1.5774550437927246,0.3832325228812706,90.0,786.0,0.0
R,U,"[5, 10]",1.0,7.0,0.2339630126953125,1.7236230373382568,0.49017518925544057,90.0,787.0,0.0
R,U,"[4, 10]",1.0,8.0,0.2062230110168457,1.6874110698699951,0.47775216361197176,90.0,788.0,0.0
B,L,"[4, 9]",1.0,9.0,0.16985511779785156,1.6710059642791748,0.5150511226072081,90.0,789.0,0.0
R,U,"[3, 9]",1.0,10.0,0.15252900123596191,1.413970947265625,0.26262234910793714,90.0,790.0,0.0
,,"(6, 6)",,,,,,,,
R,U,"[5, 6]",-999.0,0.0,0.838918924331665,2.8178420066833496,0.46351407176226284,91.0,791.0,-4.0
Y,R,"[5, 7]",-999.0,0.0,0.3152148723602295,1.6853289604187012,0.36565450600658056,91.0,792.0,-4.0
Y,R,"[5, 8]",-999.0,0.0,0.23790287971496582,1.7174110412597656,0.48288589781530933,91.0,793.0,-4.0
G,D,"[6, 8]",-999.0,0.0,0.21920394897460938,1.7625880241394043,0.5454256809197863,91.0,794.0,-4.0
Y,R,"[6, 9]",-999.0,0.0,0.20559406280517578,1.682063102722168,0.4941205723664801,91.0,795.0,-4.0
Y,R,"[6, 10]",-999.0,0.0,0.19774389266967773,1.840566873550415,0.6512097292092202,91.0,796.0,-4.0
R,U,"[5, 10]",-999.0,0.0,0.1967790126800537,1.7378311157226562,0.5391135871115675,91.0,797.0,-4.0
R,U,"[4, 10]",-999.0,0.0,0.22739005088806152,1.7960598468780518,0.568458931183904,91.0,798.0,-4.0
R,U,"[3, 10]",-999.0,0.0,0.4234130382537842,1.995008945465088,0.58004584033637,91.0,799.0,-4.0
B,L,"[3, 9]",-2.0,0.0,1.705482006072998,3.055208206176758,0.3852945401739817,91.0,800.0,1.0
,,"(6, 6)",,,,,,,,
R,U,"[5, 6]",1.0,1.0,0.42197108268737793,3.0892109870910645,0.4911012271519494,92.0,801.0,0.0
Y,R,"[5, 7]",1.0,2.0,0.22127199172973633,1.6930549144744873,0.48413919117229454,92.0,802.0,0.0
Y,R,"[5, 8]",1.0,3.0,0.12434697151184082,1.403169870376587,0.270821967992512,92.0,803.0,0.0
G,D,"[6, 8]",1.0,4.0,0.2502171993255615,1.9296751022338867,0.6833767065222969,92.0,804.0,0.0
Y,R,"[6, 9]",-1.0,4.0,0.07175397872924805,5.49060320854187,0.3574384536563216,92.0,805.0,0.0
Y,R,"[6, 10]",1.0,5.0,0.33027100563049316,1.7962989807128906,0.4703401381323263,92.0,806.0,0.0
R,U,"[5, 10]",1.0,6.0,0.4794771671295166,2.207082986831665,0.7273704652631803,92.0,807.0,0.0
R,U,"[4, 10]",1.0,7.0,0.18429183959960938,1.8573310375213623,0.6843726576512374,92.0,808.0,0.0
B,L,"[4, 9]",1.0,8.0,0.20861387252807617,1.901926040649414,0.6863819464813073,92.0,809.0,0.0
R,U,"[3, 9]",1.0,9.0,0.19754505157470703,1.5148069858551025,0.3181303670717452,92.0,810.0,0.0
,,"(6, 6)",,,,,,,,
R,U,"[5, 6]",1.0,1.0,0.3697819709777832,2.9020421504974365,0.2702513903242924,93.0,811.0,0.0
Y,R,"[5, 7]",1.0,2.0,0.24988603591918945,1.9504320621490479,0.7033787889457503,93.0,812.0,0.0
Y,R,"[5, 8]",1.0,3.0,0.15797996520996094,1.7273378372192383,0.56443086362406,93.0,813.0,0.0
G,D,"[6, 8]",1.0,4.0,0.5665757656097412,1.8189868927001953,0.2501691918883201,93.0,814.0,0.0
Y,R,"[6, 9]",1.0,5.0,0.3789181709289551,1.924065113067627,0.5405014853188497,93.0,815.0,0.0
Y,R,"[6, 10]",1.0,6.0,0.3321669101715088,1.5837810039520264,0.257975309556274,93.0,816.0,0.0
R,U,"[5, 10]",1.0,7.0,0.6938610076904297,2.3277039527893066,0.6352592673853056,93.0,817.0,0.0
R,U,"[4, 10]",1.0,8.0,0.16851305961608887,1.5556919574737549,0.3911054496050104,93.0,818.0,0.0
B,L,"[4, 9]",1.0,9.0,0.26345300674438477,1.7518088817596436,0.49284874563580555,93.0,819.0,0.0
R,U,"[3, 9]",1.0,10.0,0.2295079231262207,1.8738720417022705,0.6498310605508042,93.0,820.0,0.0
,,"(6, 6)",,,,,,,,
R,U,"[5, 6]",1.0,1.0,0.48873186111450195,2.495187997817993,0.744927479102416,94.0,821.0,0.0
Y,R,"[5, 7]",1.0,2.0,0.19608807563781738,1.6175110340118408,0.4292828548313753,94.0,822.0,0.0
Y,R,"[5, 8]",1.0,3.0,0.2294139862060547,1.7036361694335938,0.46609010168483184,94.0,823.0,0.0
G,D,"[6, 8]",1.0,4.0,0.22742986679077148,1.931304931640625,0.6972694604526053,94.0,824.0,0.0
Y,R,"[6, 9]",1.0,5.0,0.169266939163208,1.8078250885009766,0.6384332176254559,94.0,825.0,0.0
Y,R,"[6, 10]",1.0,6.0,0.23802590370178223,1.5924241542816162,0.3644523275469759,94.0,826.0,0.0
R,U,"[5, 10]",1.0,7.0,0.22730588912963867,1.7653050422668457,0.5294167688647569,94.0,827.0,0.0
R,U,"[4, 10]",1.0,8.0,0.22036409378051758,1.4737701416015625,0.2535737385490395,94.0,828.0,0.0
B,L,"[4, 9]",1.0,9.0,0.5799739360809326,2.1398279666900635,0.5597010116364775,94.0,829.0,0.0
R,U,"[3, 9]",1.0,10.0,0.30335211753845215,1.6691210269927979,0.37900503099753136,94.0,830.0,0.0
,,"(6, 6)",,,,,,,,
R,U,"[5, 6]",1.0,1.0,0.5068130493164062,2.35536789894104,0.4508235567937317,95.0,831.0,0.0
Y,R,"[5, 7]",1.0,2.0,0.30397605895996094,1.8892810344696045,0.5899101772232043,95.0,832.0,0.0
Y,R,"[5, 8]",1.0,3.0,0.14784884452819824,1.5913751125335693,0.44815402328066845,95.0,833.0,0.0
G,D,"[6, 8]",1.0,4.0,0.21959209442138672,1.7590141296386719,0.54037233803798,95.0,834.0,0.0
Y,R,"[6, 9]",1.0,5.0,0.2075951099395752,1.571681022644043,0.36213611351125263,95.0,835.0,0.0
Y,R,"[6, 10]",1.0,6.0,0.22725605964660645,1.5767779350280762,0.33893646154729823,95.0,836.0,0.0
R,U,"[5, 10]",1.0,7.0,0.20063281059265137,1.7174961566925049,0.5228051942845819,95.0,837.0,0.0
R,U,"[4, 10]",1.0,8.0,0.1864330768585205,1.91941499710083,0.7420304821998076,95.0,838.0,0.0
B,L,"[4, 9]",1.0,9.0,0.1637420654296875,1.8980939388275146,0.7401271462810124,95.0,839.0,0.0
R,U,"[3, 9]",1.0,10.0,0.16177105903625488,1.696964979171753,0.5372689472893473,95.0,840.0,0.0
,,"(6, 6)",,,,,,,,
R,U,"[5, 6]",-999.0,0.0,0.360806941986084,3.0130319595336914,0.6167326924583526,96.0,841.0,-4.0
Y,R,"[5, 7]",-999.0,0.0,0.21648192405700684,1.559567928314209,0.34333575601802013,96.0,842.0,-4.0
Y,R,"[5, 8]",-999.0,0.0,0.2324669361114502,1.7934999465942383,0.5698180369879602,96.0,843.0,-4.0
G,D,"[6, 8]",-999.0,0.0,0.20844507217407227,1.7283241748809814,0.531506900479477,96.0,844.0,-4.0
Y,R,"[6, 9]",-999.0,0.0,0.22217988967895508,1.6224279403686523,0.40403789696405557,96.0,845.0,-4.0
Y,R,"[6, 10]",-999.0,0.0,0.23573589324951172,1.6665689945220947,0.4372386672945659,96.0,846.0,-4.0
R,U,"[5, 10]",-999.0,0.0,0.3038630485534668,1.761336088180542,0.46508131962737975,96.0,847.0,-4.0
R,U,"[4, 10]",-999.0,0.0,0.20322203636169434,1.8796648979187012,0.6782341629197361,96.0,848.0,-4.0
R,U,"[3, 10]",-999.0,0.0,0.4154820442199707,1.6581838130950928,0.2531452988988252,96.0,849.0,-4.0
B,L,"[3, 9]",-999.0,0.0,0.30676889419555664,2.0109000205993652,0.7135203912159958,96.0,850.0,1.0
,,"(6, 6)",,,,,,,,
G,D,"[3, 9]",-999.0,0.0,0.8570530414581299,3.422576904296875,0.6028512621550984,97.0,851.0,-5.0
G,D,"[3, 9]",-999.0,0.0,0.3413970470428467,1.666666030883789,0.3364200860607387,97.0,852.0,-5.0
G,D,"[3, 9]",-999.0,0.0,0.26075100898742676,1.7837882041931152,0.5198402859045832,97.0,853.0,-5.0
B,L,"[3, 9]",-999.0,0.0,0.7113440036773682,2.460827112197876,0.7471305442861866,97.0,854.0,-5.0
B,L,"[3, 9]",-999.0,0.0,0.2509911060333252,1.542957067489624,0.2905345314699543,97.0,855.0,-5.0
R,U,"[3, 9]",-999.0,0.0,0.4623908996582031,1.7294621467590332,0.2699806756317375,97.0,856.0,-5.0
R,U,"[3, 9]",-999.0,0.0,0.2880120277404785,1.942929983139038,0.6626758736615184,97.0,857.0,-5.0
B,L,"[3, 9]",-999.0,0.0,0.2649648189544678,1.9387550354003906,0.6678846183737662,97.0,858.0,-5.0
B,L,"[3, 9]",-999.0,0.0,0.20165205001831055,1.6208469867706299,0.42223616394250796,97.0,859.0,-5.0
R,U,"[2, 9]",-999.0,0.0,0.6259748935699463,2.214056968688965,0.5864482658640691,97.0,860.0,1.0
,,"(6, 6)",,,,,,,,
G,D,"[2, 9]",-999.0,0.0,0.695688009262085,3.7750771045684814,0.6442579248459299,98.0,861.0,-5.0
G,D,"[2, 9]",-999.0,0.0,0.3215949535369873,1.8879430294036865,0.5823300999330213,98.0,862.0,-5.0
G,D,"[2, 9]",-999.0,0.0,0.30359697341918945,1.7916169166564941,0.49068022350890206,98.0,863.0,-5.0
B,L,"[2, 9]",-999.0,0.0,0.44127798080444336,1.8086857795715332,0.38265762948288123,98.0,864.0,-5.0
B,L,"[2, 9]",-999.0,0.0,0.25082993507385254,1.870574951171875,0.6197328558532662,98.0,865.0,-5.0
R,U,"[2, 9]",-999.0,0.0,0.4690971374511719,1.9600110054016113,0.49644547758668783,98.0,866.0,-5.0
R,U,"[2, 9]",-999.0,0.0,0.2761690616607666,1.7808020114898682,0.5106370858552378,98.0,867.0,-5.0
B,L,"[2, 9]",-999.0,0.0,0.3415400981903076,1.945166826248169,0.6221589189155072,98.0,868.0,-5.0
B,L,"[2, 9]",-999.0,0.0,0.3145179748535156,1.8825020790100098,0.5714117818516848,98.0,869.0,-5.0
R,U,"[1, 9]",-999.0,0.0,0.2578392028808594,1.5405840873718262,0.27891410651834625,98.0,870.0,1.0
,,"(6, 6)",,,,,,,,
G,D,"[1, 9]",-999.0,0.0,0.6516900062561035,3.1140241622924805,0.42594966935793094,99.0,871.0,-5.0
G,D,"[1, 9]",-999.0,0.0,0.20714998245239258,1.924393892288208,0.7334036730157253,99.0,872.0,-5.0
G,D,"[1, 9]",-999.0,0.0,0.2367708683013916,1.8078539371490479,0.5746530898714785,99.0,873.0,-5.0
B,L,"[1, 9]",-999.0,0.0,0.2307910919189453,1.9088389873504639,0.6834568236347096,99.0,874.0,-5.0
B,L,"[1, 9]",-999.0,0.0,0.1585400104522705,1.461054801940918,0.3114313257002681,99.0,875.0,-5.0
R,U,"[1, 9]",-999.0,0.0,0.4620180130004883,1.9779300689697266,0.5228535068817501,99.0,876.0,-5.0
R,U,"[1, 9]",-999.0,0.0,0.29266977310180664,1.5480480194091797,0.27078947042744483,99.0,877.0,-5.0
B,L,"[1, 9]",-999.0,0.0,0.3557009696960449,2.011720895767212,0.6652897166264786,99.0,878.0,-5.0
B,L,"[1, 9]",-999.0,0.0,0.28908300399780273,1.56520414352417,0.2809792093390289,99.0,879.0,-5.0
Y,R,"[1, 10]",-999.0,0.0,0.3943970203399658,1.669560194015503,0.2671875332602543,99.0,880.0,1.0
,,"(6, 6)",,,,,,,,
R,U,"[5, 6]",1.0,1.0,0.4593691825866699,3.38264799118042,0.6659990980037174,100.0,881.0,0.0
Y,R,"[5, 7]",1.0,2.0,0.1943368911743164,1.681514024734497,0.4809233927351167,100.0,882.0,0.0
Y,R,"[5, 8]",1.0,3.0,0.20398783683776855,1.8225231170654297,0.620116230357276,100.0,883.0,0.0
G,D,"[6, 8]",1.0,4.0,0.20629501342773438,1.941878080368042,0.7284151739178268,100.0,884.0,0.0
Y,R,"[6, 9]",1.0,5.0,0.19187593460083008,1.5347681045532227,0.3468319696970269,100.0,885.0,0.0
Y,R,"[6, 10]",1.0,6.0,0.29024696350097656,1.6656999588012695,0.3624544622064321,100.0,886.0,0.0
R,U,"[5, 10]",1.0,7.0,0.3194549083709717,1.845599889755249,0.5245765782088236,100.0,887.0,0.0
B,L,"[5, 9]",0.0,7.0,0.21395301818847656,1.7275149822235107,0.5186556901901769,100.0,888.0,0.0
B,L,"[5, 8]",0.0,7.0,0.2256028652191162,1.6494240760803223,0.4182243841729693,100.0,889.0,0.0
R,U,"[4, 8]",0.0,7.0,0.2367079257965088,1.7807061672210693,0.5486419643594472,100.0,890.0,0.0
,,"(6, 6)",,,,,,,,
R,U,"[5, 6]",1.0,1.0,0.4397921562194824,3.279268980026245,0.47802381505474595,101.0,891.0,0.0
Y,R,"[5, 7]",1.0,2.0,0.23058009147644043,1.5029001235961914,0.28103022110693776,101.0,892.0,0.0
Y,R,"[5, 8]",1.0,3.0,0.27495813369750977,1.9549059867858887,0.6691598578478775,101.0,893.0,0.0
G,D,"[6, 8]",1.0,4.0,0.14292502403259277,1.476733922958374,0.32916879007281247,101.0,894.0,0.0
Y,R,"[6, 9]",1.0,5.0,0.26856207847595215,1.6917738914489746,0.420891230339829,101.0,895.0,0.0
Y,R,"[6, 10]",1.0,6.0,0.30634212493896484,1.6931428909301758,0.38069261864158366,101.0,896.0,0.0
R,U,"[5, 10]",1.0,7.0,0.2831900119781494,2.0294408798217773,0.7430021963009795,101.0,897.0,0.0
R,U,"[4, 10]",1.0,8.0,0.5465550422668457,2.263406991958618,0.7230246310178896,101.0,898.0,0.0
B,L,"[4, 9]",1.0,9.0,0.1717538833618164,1.5645380020141602,0.4046873055284187,101.0,899.0,0.0
R,U,"[3, 9]",1.0,10.0,0.20092511177062988,1.4502789974212646,0.25503996992031674,101.0,900.0,0.0
,,"(6, 6)",,,,,,,,
R,U,"[5, 6]",1.0,1.0,0.48197388648986816,2.449553966522217,0.25438059002230756,102.0,901.0,0.0
Y,R,"[5, 7]",1.0,2.0,0.260120153427124,1.5365049839019775,0.27422153948570993,102.0,902.0,0.0
Y,R,"[5, 8]",1.0,3.0,0.25475502014160156,1.8259179592132568,0.5665357331306591,102.0,903.0,0.0
G,D,"[6, 8]",1.0,4.0,0.11969494819641113,1.5210819244384766,0.4044028767743191,102.0,904.0,0.0
Y,R,"[6, 9]",1.0,5.0,0.2427959442138672,1.6064200401306152,0.36082457193242884,102.0,905.0,0.0
Y,R,"[6, 10]",1.0,6.0,0.20972704887390137,1.5042150020599365,0.29842314703406936,102.0,906.0,0.0
R,U,"[5, 10]",1.0,7.0,0.2060708999633789,1.7138359546661377,0.49539944469243646,102.0,907.0,0.0
R,U,"[4, 10]",1.0,8.0,0.17990398406982422,1.828197956085205,0.6400154719569511,102.0,908.0,0.0
B,L,"[4, 9]",1.0,9.0,0.1656661033630371,1.6948280334472656,0.5349550576859137,102.0,909.0,0.0
R,U,"[3, 9]",1.0,10.0,0.17129206657409668,1.9022939205169678,0.7369233318785007,102.0,910.0,0.0
,,"(6, 6)",,,,,,,,
R,U,"[5, 6]",1.0,1.0,0.45976996421813965,3.0226809978485107,0.27663007141184776,103.0,911.0,0.0
Y,R,"[5, 7]",1.0,2.0,0.2312028408050537,1.6065690517425537,0.38313499568440007,103.0,912.0,0.0
Y,R,"[5, 8]",1.0,3.0,0.21232295036315918,1.7849881649017334,0.5679054791305425,103.0,913.0,0.0
G,D,"[6, 8]",1.0,4.0,0.16194796562194824,1.6791470050811768,0.513745252231913,103.0,914.0,0.0
Y,R,"[6, 9]",1.0,5.0,0.18060684204101562,1.7306749820709229,0.5443125459331445,103.0,915.0,0.0
Y,R,"[6, 10]",1.0,6.0,0.15101909637451172,1.8570270538330078,0.7182795618814426,103.0,916.0,0.0
R,U,"[5, 10]",-1.0,6.0,0.0007729530334472656,5.700942039489746,0.6353940133558891,103.0,917.0,0.0
R,U,"[4, 10]",1.0,7.0,0.22078490257263184,1.6413569450378418,0.42685698497120883,103.0,918.0,0.0
B,L,"[4, 9]",1.0,8.0,0.2868630886077881,1.6205930709838867,0.3475607413562072,103.0,919.0,0.0
R,U,"[3, 9]",1.0,9.0,0.23955202102661133,1.5076007843017578,0.25514284762239203,103.0,920.0,0.0
,,"(6, 6)",,,,,,,,
R,U,"[5, 6]",1.0,1.0,0.448606014251709,3.2904350757598877,0.42864011464313506,104.0,921.0,0.0
Y,R,"[5, 7]",1.0,2.0,0.2656538486480713,1.797248125076294,0.5423899992536112,104.0,922.0,0.0
Y,R,"[5, 8]",1.0,3.0,0.2511880397796631,1.6394400596618652,0.3987098426118799,104.0,923.0,0.0
G,D,"[6, 8]",1.0,4.0,0.47813892364501953,1.89341402053833,0.4085932458065646,104.0,924.0,0.0
Y,R,"[6, 9]",1.0,5.0,0.24509406089782715,1.890099048614502,0.6485634104541071,104.0,925.0,0.0
Y,R,"[6, 10]",1.0,6.0,0.2237548828125,1.9080619812011719,0.6732261157565416,104.0,926.0,0.0
R,U,"[5, 10]",1.0,7.0,0.1278209686279297,1.7215168476104736,0.5947669022841464,104.0,927.0,0.0
R,U,"[4, 10]",1.0,8.0,0.2080979347229004,1.9460959434509277,0.7405900570880899,104.0,928.0,0.0
B,L,"[4, 9]",1.0,9.0,0.17929697036743164,1.8091700077056885,0.6332261087637674,104.0,929.0,0.0
R,U,"[3, 9]",1.0,10.0,0.18471193313598633,1.9233529567718506,0.739816726829072,104.0,930.0,0.0
,,"(6, 6)",,,,,,,,
R,U,"[5, 6]",1.0,1.0,0.35662293434143066,2.241886854171753,0.415179643032799,105.0,931.0,0.0
Y,R,"[5, 7]",1.0,2.0,0.23776006698608398,1.938188076019287,0.703081753750583,105.0,932.0,0.0
Y,R,"[5, 8]",1.0,3.0,0.18175506591796875,1.5252010822296143,0.3452572757913358,105.0,933.0,0.0
G,D,"[6, 8]",1.0,4.0,0.44426989555358887,2.004611015319824,0.5663357007489476,105.0,934.0,0.0
Y,R,"[6, 9]",1.0,5.0,0.26197290420532227,2.00835919380188,0.74114745802345,105.0,935.0,0.0
Y,R,"[6, 10]",1.0,6.0,0.22701215744018555,1.6223840713500977,0.39714905844932563,105.0,936.0,0.0
R,U,"[5, 10]",1.0,7.0,0.27695393562316895,1.859429121017456,0.5729979110745721,105.0,937.0,0.0
R,U,"[4, 10]",1.0,8.0,0.26361989974975586,1.662240982055664,0.40197485408172984,105.0,938.0,0.0
B,L,"[4, 9]",1.0,9.0,0.28498196601867676,1.9572339057922363,0.6756445913956732,105.0,939.0,0.0
R,U,"[3, 9]",1.0,10.0,0.17707300186157227,1.6418828964233398,0.4675881831503786,105.0,940.0,0.0
,,"(6, 6)",,,,,,,,
R,U,"[5, 6]",1.0,1.0,0.49522995948791504,2.2888400554656982,0.48979817175782525,106.0,941.0,0.0
Y,R,"[5, 7]",1.0,2.0,0.27454304695129395,2.0083389282226562,0.7312493642870922,106.0,942.0,0.0
Y,R,"[5, 8]",1.0,3.0,0.20292282104492188,1.8276011943817139,0.6255072272164641,106.0,943.0,0.0
G,D,"[6, 8]",1.0,4.0,0.180189847946167,1.560373067855835,0.38602993817644937,106.0,944.0,0.0
Y,R,"[6, 9]",1.0,5.0,0.25486207008361816,1.791593074798584,0.5440680777347617,106.0,945.0,0.0
Y,R,"[6, 10]",1.0,6.0,0.19123411178588867,1.4946210384368896,0.30567704589717204,106.0,946.0,0.0
R,U,"[5, 10]",1.0,7.0,0.18015813827514648,1.7264790534973145,0.5485032291277574,106.0,947.0,0.0
R,U,"[4, 10]",1.0,8.0,0.19787096977233887,1.4921891689300537,0.2909654439791172,106.0,948.0,0.0
B,L,"[4, 9]",1.0,9.0,0.3967320919036865,2.0855600833892822,0.6927296107742882,106.0,949.0,0.0
R,U,"[3, 9]",1.0,10.0,0.18818211555480957,1.899704933166504,0.7257151392502559,106.0,950.0,0.0
,,"(6, 6)",,,,,,,,
R,U,"[5, 6]",1.0,1.0,0.42311787605285645,2.4972729682922363,0.6562713910143778,107.0,951.0,0.0
Y,R,"[5, 7]",1.0,2.0,0.18213391304016113,1.5328569412231445,0.356052068896425,107.0,952.0,0.0
Y,R,"[5, 8]",1.0,3.0,0.26885199546813965,1.7685530185699463,0.5077644116154193,107.0,953.0,0.0
G,D,"[6, 8]",1.0,4.0,0.29514408111572266,2.006960868835449,0.714494350122614,107.0,954.0,0.0
Y,R,"[6, 9]",1.0,5.0,0.649439811706543,2.075096845626831,0.4230250177269535,107.0,955.0,0.0
Y,R,"[6, 10]",1.0,6.0,0.2568180561065674,1.538719892501831,0.27851022948386206,107.0,956.0,0.0
R,U,"[5, 10]",1.0,7.0,0.352114200592041,1.8314661979675293,0.4931079001188773,107.0,957.0,0.0
R,U,"[4, 10]",1.0,8.0,0.2780580520629883,1.8167929649353027,0.5432217055959132,107.0,958.0,0.0
B,L,"[4, 9]",1.0,9.0,0.14646315574645996,1.5776598453521729,0.4376538748235936,107.0,959.0,0.0
R,U,"[3, 9]",1.0,10.0,0.2160050868988037,1.8954579830169678,0.6827017365981696,107.0,960.0,0.0
,,"(6, 6)",,,,,,,,
R,U,"[5, 6]",1.0,1.0,0.6931650638580322,2.180713176727295,0.2639256732525276,108.0,961.0,0.0
Y,R,"[5, 7]",1.0,2.0,0.3207428455352783,2.051417112350464,0.7314305717770473,108.0,962.0,0.0
Y,R,"[5, 8]",1.0,3.0,0.17076587677001953,1.7998440265655518,0.6312300594176347,108.0,963.0,0.0
G,D,"[6, 8]",1.0,4.0,0.14163804054260254,1.8241560459136963,0.6722387316275176,108.0,964.0,0.0
Y,R,"[6, 9]",1.0,5.0,0.19196391105651855,1.6905908584594727,0.4961231031111569,108.0,965.0,0.0
Y,R,"[6, 10]",1.0,6.0,0.21493911743164062,1.6734120845794678,0.45279925696474493,108.0,966.0,0.0
R,U,"[5, 10]",1.0,7.0,0.24629688262939453,1.774496078491211,0.5271679627219918,108.0,967.0,0.0
R,U,"[4, 10]",1.0,8.0,0.21753501892089844,1.6876840591430664,0.48164451631575017,108.0,968.0,0.0
B,L,"[4, 9]",1.0,9.0,0.2406330108642578,1.9938161373138428,0.741755143506349,108.0,969.0,0.0
R,U,"[3, 9]",1.0,10.0,0.17938804626464844,1.564168930053711,0.3896034589500025,108.0,970.0,0.0
,,"(6, 6)",,,,,,,,
R,U,"[5, 6]",1.0,1.0,0.6160681247711182,3.2626259326934814,0.6687838576335952,109.0,971.0,0.0
Y,R,"[5, 7]",1.0,2.0,0.19090008735656738,1.564971923828125,0.3670370221556235,109.0,972.0,0.0
Y,R,"[5, 8]",1.0,3.0,0.40422511100769043,1.925426959991455,0.5256946605258159,109.0,973.0,0.0
G,D,"[6, 8]",1.0,4.0,0.23751211166381836,1.7718541622161865,0.5476696497498994,109.0,974.0,0.0
Y,R,"[6, 9]",1.0,5.0,0.2662949562072754,1.7320570945739746,0.4629241422258383,109.0,975.0,0.0
Y,R,"[6, 10]",1.0,6.0,0.28982996940612793,1.7280120849609375,0.42426306746821385,109.0,976.0,0.0
R,U,"[5, 10]",1.0,7.0,0.26135993003845215,1.8049612045288086,0.5457221302696826,109.0,977.0,0.0
R,U,"[4, 10]",1.0,8.0,0.3196899890899658,1.678534984588623,0.3577075332146702,109.0,978.0,0.0
B,L,"[4, 9]",1.0,9.0,0.30876803398132324,1.7456068992614746,0.43658641384536306,109.0,979.0,0.0
R,U,"[3, 9]",1.0,10.0,0.3607790470123291,1.6187751293182373,0.2554634957343899,109.0,980.0,0.0
,,"(6, 6)",,,,,,,,
R,U,"[5, 6]",1.0,1.0,0.7895040512084961,2.9189791679382324,0.3576018283785302,110.0,981.0,0.0
Y,R,"[5, 7]",1.0,2.0,0.31740903854370117,2.0469131469726562,0.7373393200536991,110.0,982.0,0.0
Y,R,"[5, 8]",1.0,3.0,0.1777040958404541,1.6053829193115234,0.4263993014447265,110.0,983.0,0.0
G,D,"[6, 8]",1.0,4.0,0.20547890663146973,1.4850969314575195,0.294879305417178,110.0,984.0,0.0
Y,R,"[6, 9]",1.0,5.0,0.30424022674560547,1.9228320121765137,0.6340559138336652,110.0,985.0,0.0
Y,R,"[6, 10]",1.0,6.0,0.16672086715698242,1.5330491065979004,0.3674048810998176,110.0,986.0,0.0
R,U,"[5, 10]",1.0,7.0,0.24359393119812012,1.6972899436950684,0.44794351030155993,110.0,987.0,0.0
R,U,"[4, 10]",1.0,8.0,0.22529220581054688,1.8207759857177734,0.5850351208191731,110.0,988.0,0.0
B,L,"[4, 9]",1.0,9.0,0.26972317695617676,1.8692491054534912,0.6042947501183791,110.0,989.0,0.0
R,U,"[3, 9]",1.0,10.0,0.10984301567077637,1.7204899787902832,0.6080784745341252,110.0,990.0,0.0
,,"(6, 6)",,,,,,,,
R,U,"[5, 6]",1.0,1.0,0.4784989356994629,2.6594278812408447,0.6174057080314168,111.0,991.0,0.0
Y,R,"[5, 7]",1.0,2.0,0.1966850757598877,1.8765368461608887,0.6771707564476099,111.0,992.0,0.0
Y,R,"[5, 8]",1.0,3.0,0.14394497871398926,1.4621708393096924,0.32295598157879535,111.0,993.0,0.0
G,D,"[6, 8]",1.0,4.0,0.29929304122924805,1.9986069202423096,0.704482702364625,111.0,994.0,0.0
Y,R,"[6, 9]",1.0,5.0,0.2249000072479248,1.7872979640960693,0.558593420015241,111.0,995.0,0.0
Y,R,"[6, 10]",1.0,6.0,0.19295883178710938,1.7676692008972168,0.5762200967587535,111.0,996.0,0.0
R,U,"[5, 10]",1.0,7.0,0.212554931640625,1.839643955230713,0.632432173532017,111.0,997.0,0.0
R,U,"[4, 10]",1.0,8.0,0.1792449951171875,1.4852919578552246,0.30133281714074295,111.0,998.0,0.0
B,L,"[4, 9]",1.0,9.0,0.4009840488433838,2.1374449729919434,0.7382842175608365,111.0,999.0,0.0
R,U,"[3, 9]",1.0,10.0,0.17151594161987305,1.456218957901001,0.29483749037314216,111.0,1000.0,0.0
