button_choice,action_choice,coordinate_choice,reward,cumulative_reward,rt,total_trial_time,iti,block_n,trial_n,trial_type
R,U,"[5, 6]",1.0,1.0,0.3915419578552246,2.224984884262085,0.7254825740074405,0.0,1.0,0.0
Y,R,"[5, 7]",1.0,2.0,0.30797696113586426,1.8752758502960205,0.4674877960898529,0.0,2.0,0.0
Y,R,"[5, 8]",1.0,3.0,0.2820158004760742,1.9993019104003906,0.6167485320009813,0.0,3.0,0.0
G,D,"[6, 8]",1.0,4.0,0.33413195610046387,1.781609058380127,0.3487483877597633,0.0,4.0,0.0
Y,R,"[6, 9]",1.0,5.0,0.2708320617675781,1.9652650356292725,0.5969385262591117,0.0,5.0,0.0
Y,R,"[6, 10]",1.0,6.0,0.252208948135376,1.9509999752044678,0.5979855774045891,0.0,6.0,0.0
R,U,"[5, 10]",1.0,7.0,0.26030397415161133,1.7699289321899414,0.4013028554440881,0.0,7.0,0.0
R,U,"[4, 10]",1.0,8.0,0.291733980178833,2.035583019256592,0.6365573116124874,0.0,8.0,0.0
B,L,"[4, 9]",1.0,9.0,0.2633528709411621,1.6331150531768799,0.27009735502898596,0.0,9.0,0.0
R,U,"[3, 9]",1.0,10.0,0.3061189651489258,2.0362701416015625,0.6226386098415577,0.0,10.0,0.0
,,"(6, 6)",,,,,,,,
R,U,"[5, 6]",1.0,1.0,0.22579097747802734,3.1824941635131836,0.5219066047765114,1.0,11.0,0.0
Y,R,"[5, 7]",1.0,2.0,0.22056818008422852,2.0676870346069336,0.7394208078685316,1.0,12.0,0.0
Y,R,"[5, 8]",1.0,3.0,0.2510550022125244,1.6430649757385254,0.2994417990159645,1.0,13.0,0.0
G,D,"[6, 8]",1.0,4.0,0.39609289169311523,1.899838924407959,0.39922564298862234,1.0,14.0,0.0
Y,R,"[6, 9]",1.0,5.0,0.26516294479370117,1.8056309223175049,0.43808711291896224,1.0,15.0,0.0
Y,R,"[6, 10]",1.0,6.0,0.2640340328216553,1.648712158203125,0.2870509050570163,1.0,16.0,0.0
R,U,"[5, 10]",1.0,7.0,0.29327917098999023,1.954456090927124,0.5578139689957256,1.0,17.0,0.0
R,U,"[4, 10]",1.0,8.0,0.20060014724731445,1.58915114402771,0.2971907262074708,1.0,18.0,0.0
B,L,"[4, 9]",1.0,9.0,0.2815701961517334,1.700300931930542,0.3141099702144446,1.0,19.0,0.0
R,U,"[3, 9]",1.0,10.0,0.35039186477661133,1.8676810264587402,0.4150062544446767,1.0,20.0,0.0
,,"(6, 6)",,,,,,,,
R,U,"[5, 6]",1.0,1.0,0.2348041534423828,2.3101511001586914,0.35874030916350197,2.0,21.0,0.0
Y,R,"[5, 7]",1.0,2.0,0.26596593856811523,1.9321439266204834,0.5737570782316807,2.0,22.0,0.0
Y,R,"[5, 8]",1.0,3.0,0.2516748905181885,2.0751140117645264,0.7324607591197354,2.0,23.0,0.0
G,D,"[6, 8]",1.0,4.0,0.2493150234222412,1.984117031097412,0.632853695605659,2.0,24.0,0.0
Y,R,"[6, 9]",1.0,5.0,0.23506593704223633,2.075697898864746,0.7418671917256063,2.0,25.0,0.0
Y,R,"[6, 10]",1.0,6.0,0.2906641960144043,1.90413498878479,0.5127822700688489,2.0,26.0,0.0
R,U,"[5, 10]",1.0,7.0,0.32589101791381836,1.8182969093322754,0.3811732439204736,2.0,27.0,0.0
R,U,"[4, 10]",1.0,8.0,0.3266289234161377,1.8613131046295166,0.42577721706624294,2.0,28.0,0.0
B,L,"[4, 9]",1.0,9.0,0.34841394424438477,1.7197399139404297,0.27884951216401244,2.0,29.0,0.0
R,U,"[3, 9]",1.0,10.0,0.3617839813232422,2.0080559253692627,0.5533483946058315,2.0,30.0,0.0
,,"(6, 6)",,,,,,,,
R,U,"[5, 6]",1.0,1.0,0.27701711654663086,2.9806458950042725,0.6672686627290884,3.0,31.0,0.0
Y,R,"[5, 7]",1.0,2.0,0.28880786895751953,1.8447809219360352,0.4288612837779218,3.0,32.0,0.0
Y,R,"[5, 8]",1.0,3.0,0.27978014945983887,1.7576360702514648,0.38662613192052114,3.0,33.0,0.0
G,D,"[6, 8]",1.0,4.0,0.25718188285827637,1.66029691696167,0.3136152332248972,3.0,34.0,0.0
Y,R,"[6, 9]",1.0,5.0,0.26836299896240234,1.7595529556274414,0.38964848967502885,3.0,35.0,0.0
Y,R,"[6, 10]",1.0,6.0,0.3015258312225342,1.9761481285095215,0.582306348597679,3.0,36.0,0.0
R,U,"[5, 10]",1.0,7.0,0.2651669979095459,1.782879114151001,0.41541092317994127,3.0,37.0,0.0
R,U,"[4, 10]",1.0,8.0,0.2724192142486572,1.9792652130126953,0.5943905619320728,3.0,38.0,0.0
B,L,"[4, 9]",1.0,9.0,0.2693779468536377,1.9239699840545654,0.5684521393022159,3.0,39.0,0.0
R,U,"[3, 9]",1.0,10.0,0.2951521873474121,1.899690866470337,0.5015289348365076,3.0,40.0,0.0
,,"(6, 6)",,,,,,,,
R,U,"[5, 6]",1.0,1.0,0.25226902961730957,2.5026450157165527,0.2875515172777547,4.0,41.0,0.0
Y,R,"[5, 7]",1.0,2.0,0.28247785568237305,1.6539759635925293,0.2747848955245431,4.0,42.0,0.0
Y,R,"[5, 8]",1.0,3.0,0.28140807151794434,2.101219892501831,0.7257453664326419,4.0,43.0,0.0
G,D,"[6, 8]",1.0,4.0,0.2833878993988037,1.9405949115753174,0.5663209011918463,4.0,44.0,0.0
Y,R,"[6, 9]",1.0,5.0,0.2293868064880371,1.6106629371643066,0.27724816479364456,4.0,45.0,0.0
Y,R,"[6, 10]",1.0,6.0,0.30042219161987305,1.8600108623504639,0.4705078027732496,4.0,46.0,0.0
R,U,"[5, 10]",1.0,7.0,0.27251410484313965,1.7716119289398193,0.39223198877941623,4.0,47.0,0.0
R,U,"[4, 10]",1.0,8.0,0.2931361198425293,1.94728422164917,0.555903679811537,4.0,48.0,0.0
B,L,"[4, 9]",1.0,9.0,0.30027079582214355,2.002673864364624,0.6086159778460929,4.0,49.0,0.0
R,U,"[3, 9]",1.0,10.0,0.3302490711212158,1.8992750644683838,0.47429898406629306,4.0,50.0,0.0
,,"(6, 6)",,,,,,,,
R,U,"[5, 6]",1.0,1.0,0.29534196853637695,2.7487411499023438,0.723197514968018,5.0,51.0,0.0
Y,R,"[5, 7]",1.0,2.0,0.238569974899292,2.0782740116119385,0.7345813225670738,5.0,52.0,0.0
Y,R,"[5, 8]",1.0,3.0,0.26935291290283203,2.02709698677063,0.6617710510081595,5.0,53.0,0.0
G,D,"[6, 8]",1.0,4.0,0.26065897941589355,2.0209319591522217,0.6660483729041133,5.0,54.0,0.0
Y,R,"[6, 9]",1.0,5.0,0.2695488929748535,1.7821378707885742,0.4153754223826499,5.0,55.0,0.0
Y,R,"[6, 10]",1.0,6.0,0.24505114555358887,1.8226079940795898,0.4711103985966104,5.0,56.0,0.0
R,U,"[5, 10]",1.0,7.0,0.2420058250427246,1.6154820919036865,0.2700450086435425,5.0,57.0,0.0
R,U,"[4, 10]",1.0,8.0,0.2858121395111084,1.9265060424804688,0.5462366941063277,5.0,58.0,0.0
B,L,"[4, 9]",1.0,9.0,0.2535078525543213,2.0705199241638184,0.716472676092653,5.0,59.0,0.0
R,U,"[3, 9]",1.0,10.0,0.3179759979248047,1.894892930984497,0.4781878245435719,5.0,60.0,0.0
,,"(6, 6)",,,,,,,,
R,U,"[5, 6]",1.0,1.0,0.2510519027709961,2.255514144897461,0.267408265147365,6.0,61.0,0.0
Y,R,"[5, 7]",1.0,2.0,0.2381269931793213,1.775726079940796,0.4262544884074396,6.0,62.0,0.0
Y,R,"[5, 8]",1.0,3.0,0.26144886016845703,1.6076641082763672,0.25063290276971883,6.0,63.0,0.0
G,D,"[6, 8]",1.0,4.0,0.3038628101348877,1.7775189876556396,0.37806928694587955,6.0,64.0,0.0
Y,R,"[6, 9]",1.0,5.0,0.24944686889648438,1.891798973083496,0.5531596129456695,6.0,65.0,0.0
Y,R,"[6, 10]",1.0,6.0,0.2393500804901123,1.6597058773040771,0.329685637682804,6.0,66.0,0.0
R,U,"[5, 10]",1.0,7.0,0.30263686180114746,1.6552000045776367,0.2514995606986374,6.0,67.0,0.0
R,U,"[4, 10]",1.0,8.0,0.27739596366882324,1.9308621883392334,0.5488047567835981,6.0,68.0,0.0
B,L,"[4, 9]",1.0,9.0,0.22766780853271484,1.6849291324615479,0.35068773164631223,6.0,69.0,0.0
R,U,"[3, 9]",1.0,10.0,0.3461802005767822,2.144864082336426,0.695271071745099,6.0,70.0,0.0
,,"(6, 6)",,,,,,,,
R,U,"[5, 6]",1.0,1.0,0.3466329574584961,2.5930681228637695,0.45524440956629125,7.0,71.0,0.0
Y,R,"[5, 7]",1.0,2.0,0.2409369945526123,1.8023619651794434,0.4575655481274513,7.0,72.0,0.0
Y,R,"[5, 8]",1.0,3.0,0.2761971950531006,1.7710039615631104,0.3950535424115585,7.0,73.0,0.0
G,D,"[6, 8]",1.0,4.0,0.2174060344696045,1.576848030090332,0.2721084763459701,7.0,74.0,0.0
Y,R,"[6, 9]",1.0,5.0,0.2623720169067383,2.0026230812072754,0.6410975546235591,7.0,75.0,0.0
Y,R,"[6, 10]",1.0,6.0,0.20941781997680664,1.5635221004486084,0.2548797908493313,7.0,76.0,0.0
R,U,"[5, 10]",1.0,7.0,0.3311421871185303,1.715407133102417,0.28712665800445086,7.0,77.0,0.0
R,U,"[4, 10]",1.0,8.0,0.30697202682495117,2.1371002197265625,0.7237390181069527,7.0,78.0,0.0
B,L,"[4, 9]",1.0,9.0,0.25773000717163086,2.0293800830841064,0.669852324490586,7.0,79.0,0.0
R,U,"[3, 9]",1.0,10.0,0.3064918518066406,2.1397531032562256,0.7428922865680505,7.0,80.0,0.0
,,"(6, 6)",,,,,,,,
R,U,"[5, 6]",1.0,1.0,0.2859461307525635,2.520717144012451,0.28052966433560883,8.0,81.0,0.0
Y,R,"[5, 7]",1.0,2.0,0.310122013092041,1.8518640995025635,0.43235957842354955,8.0,82.0,0.0
Y,R,"[5, 8]",1.0,3.0,0.2685091495513916,1.7448558807373047,0.37726555798377825,8.0,83.0,0.0
G,D,"[6, 8]",1.0,4.0,0.27288079261779785,1.7400729656219482,0.3672881874180984,8.0,84.0,0.0
Y,R,"[6, 9]",1.0,5.0,0.23616385459899902,1.67901611328125,0.3463019209729303,8.0,85.0,0.0
Y,R,"[6, 10]",1.0,6.0,0.26151585578918457,1.7706639766693115,0.40024531448777995,8.0,86.0,0.0
R,U,"[5, 10]",1.0,7.0,0.33890199661254883,1.977797031402588,0.5279685028484237,8.0,87.0,0.0
R,U,"[4, 10]",1.0,8.0,0.24030208587646484,1.5991251468658447,0.2607033528112902,8.0,88.0,0.0
B,L,"[4, 9]",1.0,9.0,0.35033082962036133,2.166668176651001,0.726895335650635,8.0,89.0,0.0
R,U,"[3, 9]",1.0,10.0,0.3227729797363281,1.770759105682373,0.34802877385307085,8.0,90.0,0.0
,,"(6, 6)",,,,,,,,
R,U,"[5, 6]",1.0,1.0,0.38612818717956543,2.31213116645813,0.2764789275170751,9.0,91.0,0.0
Y,R,"[5, 7]",1.0,2.0,0.30247998237609863,1.9984848499298096,0.6083228229799804,9.0,92.0,0.0
Y,R,"[5, 8]",1.0,3.0,0.29662394523620605,1.7734098434448242,0.3820769848741583,9.0,93.0,0.0
G,D,"[6, 8]",1.0,4.0,0.3033638000488281,2.134242057800293,0.7158477853205405,9.0,94.0,0.0
Y,R,"[6, 9]",1.0,5.0,0.28214597702026367,1.928123950958252,0.5442261085405593,9.0,95.0,0.0
Y,R,"[6, 10]",1.0,6.0,0.31366896629333496,1.9492058753967285,0.5432289480558257,9.0,96.0,0.0
R,U,"[5, 10]",1.0,7.0,0.31397199630737305,1.739703893661499,0.33334093073066734,9.0,97.0,0.0
R,U,"[4, 10]",1.0,8.0,0.4096229076385498,2.2201759815216064,0.7031315002694449,9.0,98.0,0.0
B,L,"[4, 9]",1.0,9.0,0.2978498935699463,1.6977460384368896,0.30137610330859965,9.0,99.0,0.0
R,U,"[3, 9]",1.0,10.0,0.46309900283813477,2.0238888263702393,0.4583630723260072,9.0,100.0,0.0
,,"(6, 6)",,,,,,,,
R,U,"[5, 6]",1.0,1.0,0.27266502380371094,3.2584919929504395,0.5497546448061652,10.0,101.0,0.0
Y,R,"[5, 7]",1.0,2.0,0.30689311027526855,1.773319959640503,0.35692796862045834,10.0,102.0,0.0
Y,R,"[5, 8]",1.0,3.0,0.32955288887023926,1.7183189392089844,0.2919027783949905,10.0,103.0,0.0
G,D,"[6, 8]",1.0,4.0,0.29073596000671387,1.984292984008789,0.5926458187666057,10.0,104.0,0.0
Y,R,"[6, 9]",1.0,5.0,0.2774069309234619,1.7696418762207031,0.3957588302686667,10.0,105.0,0.0
Y,R,"[6, 10]",1.0,6.0,0.27582502365112305,1.99723482131958,0.6263372675099816,10.0,106.0,0.0
R,U,"[5, 10]",1.0,7.0,0.26305294036865234,2.0174930095672607,0.6602376830387291,10.0,107.0,0.0
R,U,"[4, 10]",1.0,8.0,0.3062429428100586,2.0609891414642334,0.6546130239694097,10.0,108.0,0.0
B,L,"[4, 9]",1.0,9.0,0.26179003715515137,1.7577590942382812,0.3959443493586438,10.0,109.0,0.0
R,U,"[3, 9]",1.0,10.0,0.3160820007324219,1.7588069438934326,0.33819079627491583,10.0,110.0,0.0
,,"(6, 6)",,,,,,,,
R,U,"[5, 6]",1.0,1.0,0.32926106452941895,2.299147129058838,0.4372725854702638,11.0,111.0,0.0
Y,R,"[5, 7]",1.0,2.0,0.251453161239624,1.6068620681762695,0.260925678642643,11.0,112.0,0.0
Y,R,"[5, 8]",1.0,3.0,0.3264439105987549,1.7812950611114502,0.3587693773734304,11.0,113.0,0.0
G,D,"[6, 8]",1.0,4.0,0.29794812202453613,1.8778347969055176,0.486452742917025,11.0,114.0,0.0
Y,R,"[6, 9]",1.0,5.0,0.24582600593566895,1.8770248889923096,0.5301450258895497,11.0,115.0,0.0
Y,R,"[6, 10]",1.0,6.0,0.30442094802856445,1.7556960582733154,0.3360377520457661,11.0,116.0,0.0
R,U,"[5, 10]",1.0,7.0,0.30565500259399414,2.0281310081481934,0.6141848164612163,11.0,117.0,0.0
R,U,"[4, 10]",1.0,8.0,0.2752199172973633,2.0977940559387207,0.7113095776430808,11.0,118.0,0.0
B,L,"[4, 9]",1.0,9.0,0.26808714866638184,1.8121380805969238,0.45733407769260825,11.0,119.0,0.0
R,U,"[3, 9]",1.0,10.0,0.2963099479675293,1.7824149131774902,0.3898374165094594,11.0,120.0,0.0
,,"(6, 6)",,,,,,,,
R,U,"[5, 6]",1.0,1.0,0.22072410583496094,2.120944023132324,0.31093171154215127,12.0,121.0,0.0
Y,R,"[5, 7]",1.0,2.0,0.2994811534881592,2.0550239086151123,0.665452036763357,12.0,122.0,0.0
Y,R,"[5, 8]",1.0,3.0,0.2368640899658203,1.963280200958252,0.6289085154072516,12.0,123.0,0.0
G,D,"[6, 8]",1.0,4.0,0.3119168281555176,1.9449889659881592,0.5406312437156962,12.0,124.0,0.0
Y,R,"[6, 9]",1.0,5.0,0.30097198486328125,2.040945053100586,0.6481022108329875,12.0,125.0,0.0
Y,R,"[6, 10]",1.0,6.0,0.26793503761291504,2.000020980834961,0.6315361815693854,12.0,126.0,0.0
R,U,"[5, 10]",1.0,7.0,0.2811310291290283,1.9810550212860107,0.5958789899768682,12.0,127.0,0.0
R,U,"[4, 10]",1.0,8.0,0.2891499996185303,1.7644929885864258,0.3606796167966227,12.0,128.0,0.0
B,L,"[4, 9]",1.0,9.0,0.3610830307006836,1.9099018573760986,0.4537988047856239,12.0,129.0,0.0
R,U,"[3, 9]",1.0,10.0,0.42404890060424805,1.7796909809112549,0.25033077828060485,12.0,130.0,0.0
,,"(6, 6)",,,,,,,,
R,U,"[5, 6]",1.0,1.0,0.23254895210266113,2.751612901687622,0.6848393139842044,13.0,131.0,0.0
Y,R,"[5, 7]",1.0,2.0,0.3131589889526367,2.09199595451355,0.6768212930041815,13.0,132.0,0.0
Y,R,"[5, 8]",1.0,3.0,0.48876309394836426,1.9266431331634521,0.33717961945912317,13.0,133.0,0.0
G,D,"[6, 8]",1.0,4.0,0.3543429374694824,1.832746982574463,0.3699541900889332,13.0,134.0,0.0
Y,R,"[6, 9]",1.0,5.0,0.26933789253234863,1.6248209476470947,0.2613719846872329,13.0,135.0,0.0
Y,R,"[6, 10]",1.0,6.0,0.2957460880279541,1.7414779663085938,0.3528922857764204,13.0,136.0,0.0
R,U,"[5, 10]",1.0,7.0,0.23079800605773926,1.9520900249481201,0.6213289282511818,13.0,137.0,0.0
R,U,"[4, 10]",1.0,8.0,0.22311806678771973,1.762902021408081,0.4508398935887041,13.0,138.0,0.0
B,L,"[4, 9]",1.0,9.0,0.3360271453857422,1.9888460636138916,0.556620517333301,13.0,139.0,0.0
R,U,"[3, 9]",1.0,10.0,0.3562049865722656,2.045501947402954,0.5853140097791577,13.0,140.0,0.0
,,"(6, 6)",,,,,,,,
R,U,"[5, 6]",1.0,1.0,0.45371508598327637,2.590881109237671,0.6429057142607204,14.0,141.0,0.0
Y,R,"[5, 7]",1.0,2.0,0.25072288513183594,1.7303900718688965,0.39021822700718484,14.0,142.0,0.0
Y,R,"[5, 8]",1.0,3.0,0.4004700183868408,2.150653839111328,0.6573303708284772,14.0,143.0,0.0
G,D,"[6, 8]",1.0,4.0,0.35845208168029785,2.1304290294647217,0.6709991588078696,14.0,144.0,0.0
Y,R,"[6, 9]",1.0,5.0,0.2845299243927002,1.840879201889038,0.46217445960080167,14.0,145.0,0.0
Y,R,"[6, 10]",1.0,6.0,0.3629891872406006,2.1629769802093506,0.7081625935159701,14.0,146.0,0.0
R,U,"[5, 10]",1.0,7.0,0.2473909854888916,1.6288599967956543,0.28732595075214673,14.0,147.0,0.0
R,U,"[4, 10]",1.0,8.0,0.2807791233062744,2.0112130641937256,0.631715734632351,14.0,148.0,0.0
B,L,"[4, 9]",1.0,9.0,0.30163002014160156,2.114237070083618,0.7125237397919677,14.0,149.0,0.0
R,U,"[3, 9]",1.0,10.0,0.30013084411621094,1.8906099796295166,0.48678254223044976,14.0,150.0,0.0
,,"(6, 6)",,,,,,,,
R,U,"[5, 6]",1.0,1.0,0.29654407501220703,2.276789903640747,0.2970413005943365,15.0,151.0,0.0
Y,R,"[5, 7]",1.0,2.0,0.28630590438842773,2.122982978820801,0.7356308245151161,15.0,152.0,0.0
Y,R,"[5, 8]",1.0,3.0,0.28185081481933594,1.649012804031372,0.26903807823824283,15.0,153.0,0.0
G,D,"[6, 8]",1.0,4.0,0.32169389724731445,2.0151190757751465,0.5839082826931086,15.0,154.0,0.0
Y,R,"[6, 9]",1.0,5.0,0.268186092376709,2.030198097229004,0.6640873551694526,15.0,155.0,0.0
Y,R,"[6, 10]",1.0,6.0,0.24597907066345215,1.7447431087493896,0.3921704715341208,15.0,156.0,0.0
R,U,"[5, 10]",1.0,7.0,0.3046689033508301,1.7785899639129639,0.3875963642447525,15.0,157.0,0.0
R,U,"[4, 10]",1.0,8.0,0.33612895011901855,1.8320469856262207,0.40281411584555854,15.0,158.0,0.0
B,L,"[4, 9]",1.0,9.0,0.4882488250732422,2.0599849224090576,0.47964210666500223,15.0,159.0,0.0
R,U,"[3, 9]",1.0,10.0,0.3804771900177002,1.773378849029541,0.2865552573555691,15.0,160.0,0.0
,,"(6, 6)",,,,,,,,
R,U,"[5, 6]",1.0,1.0,0.25083494186401367,2.202572822570801,0.4223188545332132,16.0,161.0,0.0
Y,R,"[5, 7]",1.0,2.0,0.23906397819519043,1.79225492477417,0.4478444908176249,16.0,162.0,0.0
Y,R,"[5, 8]",1.0,3.0,0.2471320629119873,1.6819069385528564,0.3299144988284518,16.0,163.0,0.0
G,D,"[6, 8]",1.0,4.0,0.30077290534973145,1.994462013244629,0.5907036153551022,16.0,164.0,0.0
Y,R,"[6, 9]",1.0,5.0,0.26049113273620605,1.8880150318145752,0.5290324467068573,16.0,165.0,0.0
Y,R,"[6, 10]",1.0,6.0,0.2762601375579834,2.0385749340057373,0.6671264402875337,16.0,166.0,0.0
R,U,"[5, 10]",1.0,7.0,0.3202550411224365,1.9806299209594727,0.564821942400139,16.0,167.0,0.0
R,U,"[4, 10]",1.0,8.0,0.28780508041381836,1.9241480827331543,0.5387533541893958,16.0,168.0,0.0
B,L,"[4, 9]",1.0,9.0,0.3214449882507324,1.9841220378875732,0.5730686472328306,16.0,169.0,0.0
R,U,"[3, 9]",1.0,10.0,0.36030006408691406,1.9111478328704834,0.4510450717764394,16.0,170.0,0.0
,,"(6, 6)",,,,,,,,
R,U,"[5, 6]",1.0,1.0,0.26258206367492676,2.7498860359191895,0.2677590055816466,17.0,171.0,0.0
Y,R,"[5, 7]",1.0,2.0,0.3037090301513672,1.713287115097046,0.3143522150989592,17.0,172.0,0.0
Y,R,"[5, 8]",1.0,3.0,0.2720329761505127,2.1022000312805176,0.7161570736226996,17.0,173.0,0.0
G,D,"[6, 8]",1.0,4.0,0.21250414848327637,1.6842339038848877,0.3672991424060306,17.0,174.0,0.0
Y,R,"[6, 9]",1.0,5.0,0.2678711414337158,2.091754913330078,0.7253795749017447,17.0,175.0,0.0
Y,R,"[6, 10]",1.0,6.0,0.24975895881652832,1.8614559173583984,0.5204799247697911,17.0,176.0,0.0
R,U,"[5, 10]",1.0,7.0,0.25168299674987793,2.0362131595611572,0.6897046473779769,17.0,177.0,0.0
R,U,"[4, 10]",1.0,8.0,0.2926981449127197,1.659668207168579,0.26673018883180316,17.0,178.0,0.0
B,L,"[4, 9]",1.0,9.0,0.3041069507598877,1.671515941619873,0.2547699014537303,17.0,179.0,0.0
R,U,"[3, 9]",1.0,10.0,0.33202695846557617,1.8843379020690918,0.4555791050932401,17.0,180.0,0.0
,,"(6, 6)",,,,,,,,
R,U,"[5, 6]",1.0,1.0,0.261260986328125,2.2781779766082764,0.567131748725892,18.0,181.0,0.0
Y,R,"[5, 7]",1.0,2.0,0.273967981338501,1.9408080577850342,0.5579301926474589,18.0,182.0,0.0
Y,R,"[5, 8]",1.0,3.0,0.2767210006713867,1.9546749591827393,0.5790940842010639,18.0,183.0,0.0
G,D,"[6, 8]",1.0,4.0,0.2440650463104248,1.6806139945983887,0.3266930456996489,18.0,184.0,0.0
Y,R,"[6, 9]",1.0,5.0,0.2608909606933594,1.657278060913086,0.3008703318195927,18.0,185.0,0.0
Y,R,"[6, 10]",1.0,6.0,0.24380803108215332,1.9547111988067627,0.6051594790961841,18.0,186.0,0.0
R,U,"[5, 10]",1.0,7.0,0.24498200416564941,1.6997971534729004,0.3550396808732954,18.0,187.0,0.0
R,U,"[4, 10]",1.0,8.0,0.2629508972167969,1.681041955947876,0.31974392771789134,18.0,188.0,0.0
B,L,"[4, 9]",1.0,9.0,0.3067131042480469,2.115853786468506,0.7017606276084201,18.0,189.0,0.0
R,U,"[3, 9]",1.0,10.0,0.41411304473876953,1.8147318363189697,0.3002788050488336,18.0,190.0,0.0
,,"(6, 6)",,,,,,,,
R,U,"[5, 6]",1.0,1.0,0.28688907623291016,2.620352029800415,0.7038265037132792,19.0,191.0,0.0
Y,R,"[5, 7]",1.0,2.0,0.24955391883850098,1.9448268413543701,0.5986320820335822,19.0,192.0,0.0
Y,R,"[5, 8]",1.0,3.0,0.2754828929901123,2.0770859718322754,0.6922470004596312,19.0,193.0,0.0
G,D,"[6, 8]",1.0,4.0,0.29439306259155273,1.9304111003875732,0.5395466515831052,19.0,194.0,0.0
Y,R,"[6, 9]",1.0,5.0,0.28647899627685547,1.9678370952606201,0.590603523335655,19.0,195.0,0.0
Y,R,"[6, 10]",1.0,6.0,0.28249597549438477,1.6956989765167236,0.3200241236949743,19.0,196.0,0.0
R,U,"[5, 10]",1.0,7.0,0.3446071147918701,1.7526710033416748,0.3059787269586602,19.0,197.0,0.0
R,U,"[4, 10]",1.0,8.0,0.30785298347473145,1.6628060340881348,0.2523178984429927,19.0,198.0,0.0
B,L,"[4, 9]",1.0,9.0,0.37418293952941895,2.1338019371032715,0.6521785398774185,19.0,199.0,0.0
R,U,"[3, 9]",1.0,10.0,0.27979111671447754,1.8911499977111816,0.5103383381766791,19.0,200.0,0.0
,,"(6, 6)",,,,,,,,
R,U,"[5, 6]",1.0,1.0,0.28964710235595703,2.5790460109710693,0.7222972970511178,20.0,201.0,0.0
Y,R,"[5, 7]",1.0,2.0,0.21221613883972168,1.6192049980163574,0.3086453664071599,20.0,202.0,0.0
Y,R,"[5, 8]",1.0,3.0,0.34659814834594727,1.9475159645080566,0.5061489214098245,20.0,203.0,0.0
G,D,"[6, 8]",1.0,4.0,0.3016488552093506,1.7849149703979492,0.3911474909827369,20.0,204.0,0.0
Y,R,"[6, 9]",1.0,5.0,0.2853891849517822,1.8786509037017822,0.5032174910954912,20.0,205.0,0.0
Y,R,"[6, 10]",1.0,6.0,0.27034807205200195,1.7694578170776367,0.405961117090158,20.0,206.0,0.0
R,U,"[5, 10]",1.0,7.0,0.34933996200561523,1.882706880569458,0.43869694981450386,20.0,207.0,0.0
R,U,"[4, 10]",1.0,8.0,0.23844003677368164,1.7860538959503174,0.45812128979731515,20.0,208.0,0.0
B,L,"[4, 9]",1.0,9.0,0.2919788360595703,1.8270189762115479,0.43511310657426083,20.0,209.0,0.0
R,U,"[3, 9]",1.0,10.0,0.3817470073699951,2.113920211791992,0.6322210500385115,20.0,210.0,0.0
,,"(6, 6)",,,,,,,,
R,U,"[5, 6]",1.0,1.0,0.2859358787536621,2.4607110023498535,0.7423933189148794,21.0,211.0,0.0
Y,R,"[5, 7]",1.0,2.0,0.23116016387939453,1.9523961544036865,0.6287234432545628,21.0,212.0,0.0
Y,R,"[5, 8]",1.0,3.0,0.27036094665527344,1.674133062362671,0.3198160853759024,21.0,213.0,0.0
G,D,"[6, 8]",1.0,4.0,0.41701388359069824,2.041353940963745,0.5275207934195936,21.0,214.0,0.0
Y,R,"[6, 9]",1.0,5.0,0.316741943359375,2.0456302165985107,0.6401058598405509,21.0,215.0,0.0
Y,R,"[6, 10]",1.0,6.0,0.23572897911071777,1.7588729858398438,0.4322925282413068,21.0,216.0,0.0
R,U,"[5, 10]",1.0,7.0,0.29815006256103516,1.8308629989624023,0.4297101845875247,21.0,217.0,0.0
R,U,"[4, 10]",1.0,8.0,0.22390317916870117,1.7624101638793945,0.4254692687346327,21.0,218.0,0.0
B,L,"[4, 9]",1.0,9.0,0.2769339084625244,1.7654759883880615,0.3912858349799508,21.0,219.0,0.0
R,U,"[3, 9]",1.0,10.0,0.46533894538879395,1.9707980155944824,0.41186996287930283,21.0,220.0,0.0
,,"(6, 6)",,,,,,,,
R,U,"[5, 6]",1.0,1.0,0.3087449073791504,2.259045124053955,0.3043452391096063,22.0,221.0,0.0
Y,R,"[5, 7]",1.0,2.0,0.26868104934692383,1.8366849422454834,0.47429591328685344,22.0,222.0,0.0
Y,R,"[5, 8]",1.0,3.0,0.34088683128356934,1.7714099884033203,0.3292806590125433,22.0,223.0,0.0
G,D,"[6, 8]",1.0,4.0,0.3291919231414795,2.0569639205932617,0.6359097062033939,22.0,224.0,0.0
Y,R,"[6, 9]",1.0,5.0,0.23174500465393066,1.9880011081695557,0.6572254594116025,22.0,225.0,0.0
Y,R,"[6, 10]",1.0,6.0,0.24628901481628418,1.6848750114440918,0.3423248902603203,22.0,226.0,0.0
R,U,"[5, 10]",1.0,7.0,0.29407405853271484,1.935586929321289,0.544526192774656,22.0,227.0,0.0
R,U,"[4, 10]",1.0,8.0,0.25677990913391113,1.915090799331665,0.5762764348242952,22.0,228.0,0.0
B,L,"[4, 9]",1.0,9.0,0.38916802406311035,2.218961000442505,0.728389221521938,22.0,229.0,0.0
R,U,"[3, 9]",1.0,10.0,0.27768802642822266,1.7380671501159668,0.3665647109059472,22.0,230.0,0.0
,,"(6, 6)",,,,,,,,
R,U,"[5, 6]",1.0,1.0,0.1870441436767578,2.287468194961548,0.42105098232286664,23.0,231.0,0.0
Y,R,"[5, 7]",1.0,2.0,0.303009033203125,1.7052221298217773,0.30968867508399495,23.0,232.0,0.0
Y,R,"[5, 8]",1.0,3.0,0.3014998435974121,1.9591710567474365,0.5683602389797863,23.0,233.0,0.0
G,D,"[6, 8]",1.0,4.0,0.2567868232727051,2.036673069000244,0.6714444714602674,23.0,234.0,0.0
Y,R,"[6, 9]",1.0,5.0,0.24459290504455566,1.877152919769287,0.5321621344405318,23.0,235.0,0.0
Y,R,"[6, 10]",1.0,6.0,0.2785530090332031,2.069024085998535,0.6844141822109244,23.0,236.0,0.0
R,U,"[5, 10]",1.0,7.0,0.3286740779876709,1.7493929862976074,0.31763100547312356,23.0,237.0,0.0
R,U,"[4, 10]",1.0,8.0,0.3207888603210449,1.8578569889068604,0.42536897553097414,23.0,238.0,0.0
B,L,"[4, 9]",1.0,9.0,0.23695015907287598,1.6713488101959229,0.3469780498500447,23.0,239.0,0.0
R,U,"[3, 9]",1.0,10.0,0.33492588996887207,2.0146729946136475,0.5782780895101771,23.0,240.0,0.0
,,"(6, 6)",,,,,,,,
R,U,"[5, 6]",1.0,1.0,0.21970105171203613,2.4705522060394287,0.731946721636644,24.0,241.0,0.0
Y,R,"[5, 7]",1.0,2.0,0.2513699531555176,1.9699158668518066,0.6186934609493598,24.0,242.0,0.0
Y,R,"[5, 8]",1.0,3.0,0.258012056350708,1.983361005783081,0.6186915828691923,24.0,243.0,0.0
G,D,"[6, 8]",1.0,4.0,0.2536888122558594,1.8325250148773193,0.4847709743194311,24.0,244.0,0.0
Y,R,"[6, 9]",1.0,5.0,0.39722394943237305,1.9996240139007568,0.5010655779242534,24.0,245.0,0.0
Y,R,"[6, 10]",1.0,6.0,0.28717803955078125,1.8784549236297607,0.49620641709796914,24.0,246.0,0.0
R,U,"[5, 10]",1.0,7.0,0.23100709915161133,1.7300000190734863,0.39298405324268065,24.0,247.0,0.0
R,U,"[4, 10]",1.0,8.0,0.2793421745300293,1.9141180515289307,0.5402594435217604,24.0,248.0,0.0
B,L,"[4, 9]",1.0,9.0,0.2847480773925781,1.6910200119018555,0.3147433928030484,24.0,249.0,0.0
R,U,"[3, 9]",1.0,10.0,0.3570070266723633,2.099519968032837,0.6306474153900467,24.0,250.0,0.0
,,"(6, 6)",,,,,,,,
R,U,"[5, 6]",1.0,1.0,0.27089905738830566,2.191071033477783,0.4554476862469256,25.0,251.0,0.0
Y,R,"[5, 7]",1.0,2.0,0.20373988151550293,1.8154010772705078,0.5208336104704339,25.0,252.0,0.0
Y,R,"[5, 8]",1.0,3.0,0.2689027786254883,1.7527010440826416,0.3903700175544235,25.0,253.0,0.0
G,D,"[6, 8]",1.0,4.0,0.28238487243652344,1.6497352123260498,0.27345574137728274,25.0,254.0,0.0
Y,R,"[6, 9]",1.0,5.0,0.24518704414367676,2.00229811668396,0.6580257377558744,25.0,255.0,0.0
Y,R,"[6, 10]",1.0,6.0,0.26058006286621094,2.0104010105133057,0.6525725505271149,25.0,256.0,0.0
R,U,"[5, 10]",1.0,7.0,0.26871204376220703,1.9136199951171875,0.5497107278460646,25.0,257.0,0.0
R,U,"[4, 10]",1.0,8.0,0.2552468776702881,1.6699891090393066,0.3032469778798174,25.0,258.0,0.0
B,L,"[4, 9]",1.0,9.0,0.3009300231933594,1.7444889545440674,0.3477146757606628,25.0,259.0,0.0
R,U,"[3, 9]",1.0,10.0,0.3245069980621338,2.145524024963379,0.7095468248858725,25.0,260.0,0.0
,,"(6, 6)",,,,,,,,
R,U,"[5, 6]",1.0,1.0,0.27730298042297363,2.1148459911346436,0.2750849913338504,26.0,261.0,0.0
Y,R,"[5, 7]",1.0,2.0,0.31075501441955566,1.8433260917663574,0.43471434050621105,26.0,262.0,0.0
Y,R,"[5, 8]",1.0,3.0,0.2755429744720459,1.6699209213256836,0.2881056267577271,26.0,263.0,0.0
G,D,"[6, 8]",1.0,4.0,0.332460880279541,1.8269190788269043,0.398255821750799,26.0,264.0,0.0
Y,R,"[6, 9]",1.0,5.0,0.24687886238098145,1.6790111064910889,0.3273641499505813,26.0,265.0,0.0
Y,R,"[6, 10]",1.0,6.0,0.2591848373413086,1.7209110260009766,0.3649526866858352,26.0,266.0,0.0
R,U,"[5, 10]",1.0,7.0,0.26012611389160156,1.98903489112854,0.6204475740778925,26.0,267.0,0.0
R,U,"[4, 10]",1.0,8.0,0.2252359390258789,1.9438610076904297,0.6142671205685779,26.0,268.0,0.0
B,L,"[4, 9]",1.0,9.0,0.24467086791992188,1.8161261081695557,0.4639850136434722,26.0,269.0,0.0
R,U,"[3, 9]",1.0,10.0,0.30818700790405273,1.7984509468078613,0.37928348267221845,26.0,270.0,0.0
,,"(6, 6)",,,,,,,,
R,U,"[5, 6]",1.0,1.0,0.19417095184326172,2.8525891304016113,0.6150080817562524,27.0,271.0,0.0
Y,R,"[5, 7]",1.0,2.0,0.23526406288146973,1.9525010585784912,0.6174643342579176,27.0,272.0,0.0
Y,R,"[5, 8]",1.0,3.0,0.3043079376220703,1.7111189365386963,0.31222825670843835,27.0,273.0,0.0
G,D,"[6, 8]",1.0,4.0,0.3816850185394287,1.8967280387878418,0.424996963176654,27.0,274.0,0.0
Y,R,"[6, 9]",1.0,5.0,0.38043999671936035,1.8466880321502686,0.37231338514442863,27.0,275.0,0.0
Y,R,"[6, 10]",1.0,6.0,0.37060999870300293,2.187290906906128,0.7259702001030433,27.0,276.0,0.0
R,U,"[5, 10]",1.0,7.0,0.2535879611968994,1.6631879806518555,0.32291861211055883,27.0,277.0,0.0
R,U,"[4, 10]",1.0,8.0,0.2975189685821533,2.1030709743499756,0.708980774424081,27.0,278.0,0.0
B,L,"[4, 9]",1.0,9.0,0.3306121826171875,2.030458927154541,0.6062007451370846,27.0,279.0,0.0
R,U,"[3, 9]",1.0,10.0,0.3443949222564697,2.1390419006347656,0.6952465112772053,27.0,280.0,0.0
,,"(6, 6)",,,,,,,,
R,U,"[5, 6]",1.0,1.0,0.3453960418701172,2.773352861404419,0.6187416050434265,28.0,281.0,0.0
Y,R,"[5, 7]",1.0,2.0,0.24102091789245605,1.7114908695220947,0.36362285875693157,28.0,282.0,0.0
Y,R,"[5, 8]",1.0,3.0,0.30829906463623047,1.7270760536193848,0.30743002227042576,28.0,283.0,0.0
G,D,"[6, 8]",1.0,4.0,0.30883002281188965,2.0086262226104736,0.5992684481381059,28.0,284.0,0.0
Y,R,"[6, 9]",1.0,5.0,0.17915821075439453,1.5418250560760498,0.2581189419250492,28.0,285.0,0.0
Y,R,"[6, 10]",1.0,6.0,0.2616579532623291,1.8631091117858887,0.5043957670229169,28.0,286.0,0.0
R,U,"[5, 10]",1.0,7.0,0.2307438850402832,2.007172107696533,0.6777043565762333,28.0,287.0,0.0
R,U,"[4, 10]",1.0,8.0,0.23935198783874512,1.7735002040863037,0.43486699266615025,28.0,288.0,0.0
B,L,"[4, 9]",1.0,9.0,0.30791807174682617,1.801887035369873,0.3872124004800514,28.0,289.0,0.0
R,U,"[3, 9]",1.0,10.0,0.32301807403564453,2.1396899223327637,0.7103706413708288,28.0,290.0,0.0
,,"(6, 6)",,,,,,,,
R,U,"[5, 6]",1.0,1.0,0.22409605979919434,2.450550079345703,0.6270588384480305,29.0,291.0,0.0
Y,R,"[5, 7]",1.0,2.0,0.25789499282836914,2.0818610191345215,0.7254405530803579,29.0,292.0,0.0
Y,R,"[5, 8]",1.0,3.0,0.2076098918914795,1.950556993484497,0.6423525470554681,29.0,293.0,0.0
G,D,"[6, 8]",1.0,4.0,0.22206592559814453,1.6569621562957764,0.3336380055505994,29.0,294.0,0.0
Y,R,"[6, 9]",1.0,5.0,0.4290180206298828,2.2781949043273926,0.7447378687757638,29.0,295.0,0.0
Y,R,"[6, 10]",1.0,6.0,0.23447203636169434,2.036972999572754,0.7151954827924456,29.0,296.0,0.0
R,U,"[5, 10]",1.0,7.0,0.22353100776672363,1.9744398593902588,0.6397256561294159,29.0,297.0,0.0
R,U,"[4, 10]",1.0,8.0,0.2612009048461914,2.096798896789551,0.7362420458964583,29.0,298.0,0.0
B,L,"[4, 9]",1.0,9.0,0.28077197074890137,1.7430140972137451,0.3631977305773503,29.0,299.0,0.0
R,U,"[3, 9]",1.0,10.0,0.3089570999145508,1.8781189918518066,0.4578470339490818,29.0,300.0,0.0
,,"(6, 6)",,,,,,,,
R,U,"[5, 6]",-999.0,0.0,0.1836838722229004,2.576030969619751,0.6671275847720097,30.0,301.0,-4.0
Y,R,"[5, 7]",-999.0,0.0,0.17024707794189453,1.7653679847717285,0.4994262625152379,30.0,302.0,-4.0
Y,R,"[5, 8]",-999.0,0.0,0.20067977905273438,1.6977739334106445,0.3973204009831628,30.0,303.0,-4.0
G,D,"[6, 8]",-1.0,0.0,0.08777499198913574,5.899712085723877,0.6634672199154934,30.0,304.0,-4.0
Y,R,"[6, 9]",-2.0,0.0,3.8589890003204346,5.423285961151123,0.5202451194618788,30.0,305.0,-4.0
Y,R,"[6, 10]",-999.0,0.0,0.9877209663391113,2.4901318550109863,0.4101604523654591,30.0,306.0,-4.0
R,U,"[5, 10]",-999.0,0.0,0.9621241092681885,2.7864389419555664,0.7301052488173154,30.0,307.0,-4.0
R,U,"[4, 10]",-999.0,0.0,0.3791630268096924,2.1587820053100586,0.6721889545275074,30.0,308.0,-4.0
R,U,"[3, 10]",-999.0,0.0,0.30124711990356445,2.0660929679870605,0.6717277573684166,30.0,309.0,-4.0
R,U,"[2, 10]",-999.0,0.0,0.9819180965423584,2.7373850345611572,0.6591321663870819,30.0,310.0,1.0
,,"(6, 6)",,,,,,,,
R,U,"[5, 6]",-999.0,0.0,0.7085380554199219,5.844726800918579,0.5540481491592689,31.0,311.0,-4.0
Y,R,"[5, 7]",-999.0,0.0,0.35804080963134766,1.8910439014434814,0.4286508126497784,31.0,312.0,-4.0
Y,R,"[5, 8]",-2.0,0.0,1.3941400051116943,2.674170970916748,0.25309824454959073,31.0,313.0,-4.0
R,U,"[4, 8]",-999.0,0.0,0.5331230163574219,1.910017967224121,0.2796859393075608,31.0,314.0,-4.0
B,L,"[4, 7]",-2.0,0.0,1.0104379653930664,2.701246976852417,0.6473815400127416,31.0,315.0,1.0
,,"(6, 6)",,,,,,,,
B,L,"[4, 7]",-2.0,0.0,1.0567939281463623,26.014530897140503,0.2793915816692624,32.0,316.0,-5.0
B,L,"[4, 7]",-2.0,0.0,1.1267518997192383,2.9022958278656006,0.7310266642195555,32.0,317.0,-5.0
R,U,"[4, 7]",-999.0,0.0,0.7020788192749023,2.1894798278808594,0.38776265723114023,32.0,318.0,-5.0
R,U,"[4, 7]",-2.0,0.0,1.4573428630828857,3.0273680686950684,0.5483534590064636,32.0,319.0,-5.0
R,U,"[3, 7]",-2.0,0.0,2.018444061279297,3.330467939376831,0.27900701100244446,32.0,320.0,1.0
,,"(6, 6)",,,,,,,,
R,U,"[5, 6]",-2.0,0.0,1.1975090503692627,45.44136691093445,0.2545731238989636,33.0,321.0,0.0
B,L,"[5, 5]",-2.0,0.0,2.0174520015716553,3.5663089752197266,0.5208942128848548,33.0,322.0,0.0
B,L,"[5, 4]",0.0,0.0,0.24439096450805664,1.9230070114135742,0.5770774021042147,33.0,323.0,0.0
Y,R,"[5, 5]",0.0,0.0,0.17705297470092773,1.6544570922851562,0.38179635203599444,33.0,324.0,0.0
R,U,"[4, 5]",0.0,0.0,0.19478988647460938,1.8158471584320068,0.514135656076546,33.0,325.0,0.0
G,D,"[5, 5]",0.0,0.0,0.20531105995178223,1.8636319637298584,0.5444331722200486,33.0,326.0,0.0
R,U,"[4, 5]",0.0,0.0,0.2018570899963379,1.5853309631347656,0.2967048871731084,33.0,327.0,0.0
R,U,"[3, 5]",0.0,0.0,0.33104586601257324,1.8387410640716553,0.4021769105456601,33.0,328.0,0.0
R,U,"[2, 5]",0.0,0.0,0.24074482917785645,1.8952579498291016,0.5471430879270411,33.0,329.0,0.0
R,U,"[1, 5]",0.0,0.0,0.37983012199401855,2.2312440872192383,0.745036486296845,33.0,330.0,0.0
,,"(6, 6)",,,,,,,,
R,U,"[5, 6]",1.0,1.0,0.6580379009246826,3.941467046737671,0.3535941482888874,34.0,331.0,0.0
Y,R,"[5, 7]",1.0,2.0,0.23598289489746094,2.057868003845215,0.7277834803880427,34.0,332.0,0.0
Y,R,"[5, 8]",1.0,3.0,0.19739699363708496,1.5883190631866455,0.29988785295328285,34.0,333.0,0.0
G,D,"[6, 8]",1.0,4.0,0.3204200267791748,2.1606431007385254,0.7434487118279176,34.0,334.0,0.0
Y,R,"[6, 9]",1.0,5.0,0.24245500564575195,1.7036669254302979,0.3640876387116759,34.0,335.0,0.0
Y,R,"[6, 10]",1.0,6.0,0.2958037853240967,2.102550983428955,0.6995274673114198,34.0,336.0,0.0
R,U,"[5, 10]",1.0,7.0,0.2339649200439453,1.936279058456421,0.6029213699775766,34.0,337.0,0.0
R,U,"[4, 10]",1.0,8.0,0.24573206901550293,1.6773920059204102,0.3307446164170005,34.0,338.0,0.0
B,L,"[4, 9]",1.0,9.0,0.3045079708099365,2.0992279052734375,0.679489897840865,34.0,339.0,0.0
R,U,"[3, 9]",1.0,10.0,0.19546294212341309,1.9780161380767822,0.6739021130558202,34.0,340.0,0.0
,,"(6, 6)",,,,,,,,
R,U,"[5, 6]",-2.0,0.0,8.2411789894104,10.639937162399292,0.4480754823500796,35.0,341.0,-4.0
Y,R,"[5, 7]",-2.0,0.0,4.9443199634552,6.593626022338867,0.6082907065036942,35.0,342.0,-4.0
Y,R,"[5, 8]",-2.0,0.0,1.0982811450958252,2.406553030014038,0.28160442832844645,35.0,343.0,-4.0
R,U,"[4, 8]",-999.0,0.0,0.6765639781951904,2.361016035079956,0.5759261010806196,35.0,344.0,-4.0
R,U,"[3, 8]",-999.0,0.0,0.6056499481201172,1.9963109493255615,0.3055607624817772,35.0,345.0,1.0
,,"(6, 6)",,,,,,,,
R,U,"[5, 6]",1.0,1.0,0.35659003257751465,9.445497989654541,0.6845559756479171,36.0,346.0,0.0
Y,R,"[5, 7]",1.0,2.0,0.25217199325561523,2.0710020065307617,0.7222402152200131,36.0,347.0,0.0
Y,R,"[5, 8]",1.0,3.0,0.2595980167388916,1.7032630443572998,0.3426040750742995,36.0,348.0,0.0
G,D,"[6, 8]",1.0,4.0,0.2654750347137451,1.7566261291503906,0.3992126545325126,36.0,349.0,0.0
Y,R,"[6, 9]",1.0,5.0,0.22017598152160645,1.5979840755462646,0.2806256050372126,36.0,350.0,0.0
,,"(6, 6)",,,,,,,,
G,D,"[6, 9]",-2.0,0.0,6.525502920150757,14.06887412071228,0.43298669730607947,37.0,351.0,-5.0
G,D,"[6, 9]",-999.0,0.0,0.37068796157836914,2.141381025314331,0.6740329107746335,37.0,352.0,-5.0
G,D,"[6, 9]",-999.0,0.0,0.3034238815307617,1.6446051597595215,0.2524697438484861,37.0,353.0,-5.0
B,L,"[6, 9]",-999.0,0.0,0.4244809150695801,2.0496301651000977,0.5352440129959597,37.0,354.0,-5.0
B,L,"[6, 9]",-999.0,0.0,0.3455491065979004,2.057252883911133,0.6090792336733488,37.0,355.0,-5.0
R,U,"[6, 9]",-999.0,0.0,0.35463905334472656,2.0291390419006348,0.5881650300986438,37.0,356.0,-5.0
R,U,"[6, 9]",-999.0,0.0,0.2434699535369873,2.065430164337158,0.7203350689717398,37.0,357.0,-5.0
B,L,"[6, 9]",-999.0,0.0,0.4104001522064209,2.155751943588257,0.6428622885027615,37.0,358.0,-5.0
B,L,"[6, 9]",-999.0,0.0,0.31075119972229004,1.9245929718017578,0.5175562585472469,37.0,359.0,-5.0
R,U,"[5, 9]",-999.0,0.0,0.5075700283050537,2.0318541526794434,0.41622025631529935,37.0,360.0,1.0
,,"(6, 6)",,,,,,,,
R,U,"[5, 6]",1.0,1.0,0.3435859680175781,6.783840894699097,0.7333431370575312,38.0,361.0,0.0
Y,R,"[5, 7]",1.0,2.0,0.24414896965026855,1.849545955657959,0.49983449267137114,38.0,362.0,0.0
Y,R,"[5, 8]",1.0,3.0,0.23917508125305176,1.6345229148864746,0.30123127962946655,38.0,363.0,0.0
G,D,"[6, 8]",1.0,4.0,0.23497915267944336,1.7460269927978516,0.4138811372275779,38.0,364.0,0.0
Y,R,"[6, 9]",1.0,5.0,0.2500591278076172,1.7957758903503418,0.44296000454119083,38.0,365.0,0.0
Y,R,"[6, 10]",1.0,6.0,0.2567777633666992,2.042712926864624,0.6857180306293537,38.0,366.0,0.0
R,U,"[5, 10]",1.0,7.0,0.2327721118927002,1.949458122253418,0.6184024144454117,38.0,367.0,0.0
R,U,"[4, 10]",1.0,8.0,0.23585104942321777,2.0079469680786133,0.6762999413704105,38.0,368.0,0.0
B,L,"[4, 9]",1.0,9.0,0.25482892990112305,2.071418046951294,0.7309110401434558,38.0,369.0,0.0
R,U,"[3, 9]",1.0,10.0,0.25562119483947754,1.7172119617462158,0.3486039155971885,38.0,370.0,0.0
,,"(6, 6)",,,,,,,,
R,U,"[5, 6]",1.0,1.0,0.37490081787109375,4.103621006011963,0.6354098113350901,39.0,371.0,0.0
Y,R,"[5, 7]",1.0,2.0,0.2843799591064453,1.9164519309997559,0.5352607951185587,39.0,372.0,0.0
Y,R,"[5, 8]",1.0,3.0,0.24473810195922852,1.984673023223877,0.6366884446467214,39.0,373.0,0.0
G,D,"[6, 8]",1.0,4.0,0.23610186576843262,1.7686069011688232,0.4384777412881413,39.0,374.0,0.0
Y,R,"[6, 9]",1.0,5.0,0.2947700023651123,1.9778070449829102,0.583142028755785,39.0,375.0,0.0
Y,R,"[6, 10]",1.0,6.0,0.26854491233825684,1.6870369911193848,0.3205632449779822,39.0,376.0,0.0
R,U,"[5, 10]",1.0,7.0,0.26792001724243164,1.8560779094696045,0.4929894906556797,39.0,377.0,0.0
R,U,"[4, 10]",1.0,8.0,0.23822808265686035,2.0529818534851074,0.7126598187856545,39.0,378.0,0.0
B,L,"[4, 9]",1.0,9.0,0.24761700630187988,1.6517539024353027,0.29819321893506673,39.0,379.0,0.0
R,U,"[3, 9]",1.0,10.0,0.2996988296508789,1.7627158164978027,0.36084515747855556,39.0,380.0,0.0
,,"(6, 6)",,,,,,,,
R,U,"[5, 6]",1.0,1.0,0.3237340450286865,4.1850950717926025,0.5125671325159957,40.0,381.0,0.0
Y,R,"[5, 7]",1.0,2.0,0.25078392028808594,1.7502000331878662,0.39628696742636654,40.0,382.0,0.0
Y,R,"[5, 8]",1.0,3.0,0.2538270950317383,1.8678069114685059,0.49729210435779925,40.0,383.0,0.0
G,D,"[6, 8]",1.0,4.0,0.26621103286743164,1.6559340953826904,0.2866871129031157,40.0,384.0,0.0
Y,R,"[6, 9]",1.0,5.0,0.23527908325195312,1.5906710624694824,0.26091240045691594,40.0,385.0,0.0
Y,R,"[6, 10]",1.0,6.0,0.2941310405731201,1.8596928119659424,0.47043562924589716,40.0,386.0,0.0
R,U,"[5, 10]",1.0,7.0,0.2221059799194336,1.7996809482574463,0.46999109270501416,40.0,387.0,0.0
R,U,"[4, 10]",1.0,8.0,0.22238397598266602,1.7458689212799072,0.41615136625174204,40.0,388.0,0.0
B,L,"[4, 9]",1.0,9.0,0.33455920219421387,1.8446500301361084,0.41074016604409613,40.0,389.0,0.0
R,U,"[3, 9]",1.0,10.0,0.2832779884338379,1.9662261009216309,0.5935050921421792,40.0,390.0,0.0
,,"(6, 6)",,,,,,,,
R,U,"[5, 6]",1.0,1.0,0.33251500129699707,3.450968027114868,0.4280793196798967,41.0,391.0,0.0
Y,R,"[5, 7]",1.0,2.0,0.24585986137390137,2.0085880756378174,0.6698664491984312,41.0,392.0,0.0
Y,R,"[5, 8]",1.0,3.0,0.2552361488342285,1.8120269775390625,0.44886404175275874,41.0,393.0,0.0
G,D,"[6, 8]",1.0,4.0,0.24086213111877441,1.8311281204223633,0.47990044015765837,41.0,394.0,0.0
Y,R,"[6, 9]",1.0,5.0,0.25237202644348145,1.7744760513305664,0.42101539805759824,41.0,395.0,0.0
Y,R,"[6, 10]",1.0,6.0,0.24538612365722656,1.9236969947814941,0.5780454797897305,41.0,396.0,0.0
R,U,"[5, 10]",1.0,7.0,0.2291851043701172,1.68864107131958,0.36687313954909895,41.0,397.0,0.0
R,U,"[4, 10]",1.0,8.0,0.2381458282470703,1.805678129196167,0.4559816078874986,41.0,398.0,0.0
B,L,"[4, 9]",1.0,9.0,0.25621891021728516,1.9447669982910156,0.5839660559566309,41.0,399.0,0.0
R,U,"[3, 9]",1.0,10.0,0.24127197265625,1.7578840255737305,0.4087806110120105,41.0,400.0,0.0
,,"(6, 6)",,,,,,,,
R,U,"[5, 6]",1.0,1.0,0.3158130645751953,5.124078035354614,0.7326365699237701,42.0,401.0,0.0
Y,R,"[5, 7]",1.0,2.0,0.22837400436401367,1.8797838687896729,0.5460457045794632,42.0,402.0,0.0
Y,R,"[5, 8]",1.0,3.0,0.28194308280944824,1.8875648975372314,0.5002279689653115,42.0,403.0,0.0
G,D,"[6, 8]",1.0,4.0,0.26596903800964355,2.06852388381958,0.7019938053654174,42.0,404.0,0.0
Y,R,"[6, 9]",1.0,5.0,0.27115607261657715,1.9593040943145752,0.5947559298264753,42.0,405.0,0.0
Y,R,"[6, 10]",1.0,6.0,0.2761690616607666,1.9493560791015625,0.5775188965318451,42.0,406.0,0.0
R,U,"[5, 10]",1.0,7.0,0.2501981258392334,1.6279749870300293,0.28914744211704674,42.0,407.0,0.0
R,U,"[4, 10]",1.0,8.0,0.3199000358581543,1.7657341957092285,0.35485724441514715,42.0,408.0,0.0
B,L,"[4, 9]",1.0,9.0,0.28375697135925293,2.0318949222564697,0.6531646316516653,42.0,409.0,0.0
R,U,"[3, 9]",1.0,10.0,0.22204995155334473,1.7906298637390137,0.46072535993939556,42.0,410.0,0.0
,,"(6, 6)",,,,,,,,
R,U,"[5, 6]",-999.0,0.0,0.4647791385650635,3.23275089263916,0.2934013463792607,43.0,411.0,-4.0
Y,R,"[5, 7]",-999.0,0.0,0.30351686477661133,1.7849721908569336,0.3951310426438892,43.0,412.0,-4.0
Y,R,"[5, 8]",-999.0,0.0,0.27925896644592285,1.7727701663970947,0.4013342429551429,43.0,413.0,-4.0
R,U,"[4, 8]",-999.0,0.0,0.3879990577697754,1.994596004486084,0.5126233325615034,43.0,414.0,-4.0
G,D,"[5, 8]",-2.0,0.0,1.482083797454834,3.2501251697540283,0.7292674598008133,43.0,415.0,1.0
,,"(6, 6)",,,,,,,,
R,U,"[5, 6]",1.0,1.0,0.36415696144104004,4.174884080886841,0.5710801351091264,44.0,416.0,0.0
Y,R,"[5, 7]",1.0,2.0,0.2531311511993408,1.8237299919128418,0.4782506255463726,44.0,417.0,0.0
Y,R,"[5, 8]",1.0,3.0,0.22201013565063477,1.7600908279418945,0.454934266400025,44.0,418.0,0.0
G,D,"[6, 8]",1.0,4.0,0.24365997314453125,1.9799768924713135,0.6349477660829383,44.0,419.0,0.0
Y,R,"[6, 9]",1.0,5.0,0.27115583419799805,1.9675300121307373,0.6025344618578441,44.0,420.0,0.0
,,"(6, 6)",,,,,,,,
G,D,"[6, 9]",-999.0,0.0,0.6677961349487305,7.35728120803833,0.5932370510072382,45.0,421.0,-5.0
G,D,"[6, 9]",-999.0,0.0,0.27677202224731445,1.7413458824157715,0.36830073586160106,45.0,422.0,-5.0
G,D,"[6, 9]",-999.0,0.0,0.2638280391693115,1.9177870750427246,0.5525975716666156,45.0,423.0,-5.0
B,L,"[6, 9]",-999.0,0.0,0.3232870101928711,2.034203052520752,0.6200062285368605,45.0,424.0,-5.0
B,L,"[6, 9]",-999.0,0.0,0.2798738479614258,2.1232080459594727,0.7432135672531468,45.0,425.0,-5.0
R,U,"[6, 9]",-999.0,0.0,0.32537007331848145,2.0775699615478516,0.6708803308542128,45.0,426.0,-5.0
R,U,"[6, 9]",-999.0,0.0,0.3176720142364502,1.8578100204467773,0.4456362527526798,45.0,427.0,-5.0
B,L,"[6, 9]",-999.0,0.0,0.43149399757385254,1.994701862335205,0.4570002049768653,45.0,428.0,-5.0
B,L,"[6, 9]",-999.0,0.0,0.3982679843902588,1.9122920036315918,0.4193388181820787,45.0,429.0,-5.0
R,U,"[5, 9]",-999.0,0.0,0.343660831451416,1.8370020389556885,0.3898881999959017,45.0,430.0,1.0
,,"(6, 6)",,,,,,,,
R,U,"[5, 6]",-999.0,0.0,0.44655609130859375,3.9862730503082275,0.6091155673906469,46.0,431.0,-4.0
Y,R,"[5, 7]",-999.0,0.0,0.316270112991333,1.9989469051361084,0.5917283579078287,46.0,432.0,-4.0
Y,R,"[5, 8]",-999.0,0.0,0.2941901683807373,1.8088181018829346,0.4173913220549125,46.0,433.0,-4.0
R,U,"[4, 8]",-999.0,0.0,0.3365340232849121,1.761657953262329,0.32908845816561866,46.0,434.0,-4.0
G,D,"[5, 8]",-999.0,0.0,0.5859379768371582,1.970789909362793,0.2834001796688371,46.0,435.0,1.0
,,"(6, 6)",,,,,,,,
G,D,"[5, 8]",-999.0,0.0,0.4797790050506592,3.576880931854248,0.6600616342959773,47.0,436.0,-5.0
G,D,"[5, 8]",-999.0,0.0,0.26082897186279297,1.6910381317138672,0.3348062287423738,47.0,437.0,-5.0
G,D,"[5, 8]",-999.0,0.0,0.269913911819458,1.968554973602295,0.6030837167489252,47.0,438.0,-5.0
B,L,"[5, 8]",-999.0,0.0,0.3936591148376465,2.070672035217285,0.5738798515442209,47.0,439.0,-5.0
B,L,"[5, 8]",-999.0,0.0,0.25667405128479004,2.05594801902771,0.7128584338878976,47.0,440.0,-5.0
,,"(6, 6)",,,,,,,,
R,U,"[5, 6]",-999.0,0.0,0.3928349018096924,3.7068588733673096,0.5867451195837152,48.0,441.0,-4.0
Y,R,"[5, 7]",-999.0,0.0,0.421475887298584,2.0751700401306152,0.5620332653277154,48.0,442.0,-4.0
Y,R,"[5, 8]",-999.0,0.0,0.2779529094696045,1.858201026916504,0.47031115032225623,48.0,443.0,-4.0
G,D,"[6, 8]",-999.0,0.0,0.3777010440826416,2.080444097518921,0.6006591357695136,48.0,444.0,-4.0
Y,R,"[6, 9]",-999.0,0.0,0.291823148727417,1.7457261085510254,0.34663134986958755,48.0,445.0,-4.0
Y,R,"[6, 10]",-999.0,0.0,0.2937788963317871,2.01301908493042,0.6094733376712056,48.0,446.0,-4.0
R,U,"[5, 10]",-999.0,0.0,0.46684694290161133,2.0640249252319336,0.5067858298160673,48.0,447.0,-4.0
R,U,"[4, 10]",-999.0,0.0,0.26232409477233887,1.9300777912139893,0.5704424274248351,48.0,448.0,-4.0
R,U,"[3, 10]",-999.0,0.0,0.4437520503997803,2.1635990142822266,0.6173300444248848,48.0,449.0,-4.0
R,U,"[2, 10]",-999.0,0.0,0.7044310569763184,2.269566774368286,0.47045464900813977,48.0,450.0,1.0
,,"(6, 6)",,,,,,,,
B,L,"[2, 10]",-2.0,0.0,3.1649580001831055,5.327229022979736,0.28127486308118915,49.0,451.0,-5.0
B,L,"[2, 10]",-999.0,0.0,0.33774900436401367,2.0365231037139893,0.6007907534847511,49.0,452.0,-5.0
R,U,"[2, 10]",-999.0,0.0,0.3983139991760254,2.075279951095581,0.5762981511473604,49.0,453.0,-5.0
R,U,"[2, 10]",-999.0,0.0,0.3048279285430908,2.0436010360717773,0.6531855738520238,49.0,454.0,-5.0
R,U,"[1, 10]",-999.0,0.0,0.5839061737060547,2.1956048011779785,0.5156355786383255,49.0,455.0,1.0
,,"(6, 6)",,,,,,,,
R,U,"[5, 6]",1.0,1.0,0.2657167911529541,3.0910749435424805,0.6565787024865275,50.0,456.0,0.0
Y,R,"[5, 7]",1.0,2.0,0.2207050323486328,1.9944548606872559,0.6677187339236258,50.0,457.0,0.0
Y,R,"[5, 8]",1.0,3.0,0.2607879638671875,1.993649959564209,0.6279671200284219,50.0,458.0,0.0
G,D,"[6, 8]",1.0,4.0,0.2614729404449463,1.8660049438476562,0.5109568922491592,50.0,459.0,0.0
Y,R,"[6, 9]",1.0,5.0,0.2650020122528076,1.9125869274139404,0.5569213005948395,50.0,460.0,0.0
,,"(6, 6)",,,,,,,,
R,U,"[5, 6]",-999.0,0.0,0.3735318183898926,3.681122064590454,0.6547176077102974,51.0,461.0,-4.0
Y,R,"[5, 7]",-999.0,0.0,0.3370931148529053,2.0896217823028564,0.6607881222961691,51.0,462.0,-4.0
Y,R,"[5, 8]",-999.0,0.0,0.21680617332458496,2.0025599002838135,0.6969391798210569,51.0,463.0,-4.0
G,D,"[6, 8]",-999.0,0.0,0.2591550350189209,1.661712884902954,0.27579156315631903,51.0,464.0,-4.0
Y,R,"[6, 9]",-999.0,0.0,0.30536389350891113,1.9771342277526855,0.5860067312264576,51.0,465.0,-4.0
Y,R,"[6, 10]",-999.0,0.0,0.24907302856445312,1.9839720726013184,0.6368255124809521,51.0,466.0,-4.0
R,U,"[5, 10]",-999.0,0.0,0.28190088272094727,1.7203850746154785,0.3407589912399333,51.0,467.0,-4.0
R,U,"[4, 10]",-999.0,0.0,0.24311208724975586,1.9923269748687744,0.6492824817424139,51.0,468.0,-4.0
R,U,"[3, 10]",-999.0,0.0,0.3135712146759033,1.933488130569458,0.516501854819206,51.0,469.0,-4.0
R,U,"[2, 10]",-2.0,0.0,1.0259251594543457,2.3694300651550293,0.3028886053212713,51.0,470.0,1.0
,,"(6, 6)",,,,,,,,
R,U,"[5, 6]",1.0,1.0,0.32547497749328613,2.8701159954071045,0.2896646563275219,52.0,471.0,0.0
Y,R,"[5, 7]",1.0,2.0,0.2811000347137451,1.6852588653564453,0.3083024677357164,52.0,472.0,0.0
Y,R,"[5, 8]",1.0,3.0,0.26445794105529785,1.6321969032287598,0.273926017874417,52.0,473.0,0.0
G,D,"[6, 8]",1.0,4.0,0.22718191146850586,2.008836030960083,0.6824146713635306,52.0,474.0,0.0
Y,R,"[6, 9]",1.0,5.0,0.2116689682006836,1.7221159934997559,0.4048372433731124,52.0,475.0,0.0
Y,R,"[6, 10]",1.0,6.0,0.2603769302368164,1.809262990951538,0.4474447628594878,52.0,476.0,0.0
R,U,"[5, 10]",1.0,7.0,0.16147994995117188,1.6827521324157715,0.4135904022403691,52.0,477.0,0.0
R,U,"[4, 10]",1.0,8.0,0.20905113220214844,1.584853172302246,0.2653292009391021,52.0,478.0,0.0
B,L,"[4, 9]",1.0,9.0,0.3178589344024658,1.8110570907592773,0.3929725255497929,52.0,479.0,0.0
R,U,"[3, 9]",1.0,10.0,0.2570071220397949,1.7663829326629639,0.4093733982316435,52.0,480.0,0.0
,,"(6, 6)",,,,,,,,
R,U,"[5, 6]",-999.0,0.0,0.384321928024292,3.478087902069092,0.35402036568925616,53.0,481.0,-4.0
Y,R,"[5, 7]",-999.0,0.0,0.3225898742675781,2.0406570434570312,0.627861918348532,53.0,482.0,-4.0
Y,R,"[5, 8]",-999.0,0.0,0.19990801811218262,1.8827900886535645,0.5941948019786041,53.0,483.0,-4.0
R,U,"[4, 8]",-999.0,0.0,0.4025089740753174,1.9641461372375488,0.4750239653742294,53.0,484.0,-4.0
Y,R,"[4, 9]",-2.0,0.0,1.1118710041046143,2.502185106277466,0.36087811703240485,53.0,485.0,1.0
,,"(6, 6)",,,,,,,,
R,U,"[5, 6]",1.0,1.0,0.28560805320739746,3.5601401329040527,0.5375923079589644,54.0,486.0,0.0
Y,R,"[5, 7]",1.0,2.0,0.2025139331817627,1.8891050815582275,0.5933097135246659,54.0,487.0,0.0
Y,R,"[5, 8]",1.0,3.0,0.21320605278015137,1.5713069438934326,0.26507729269057007,54.0,488.0,0.0
G,D,"[6, 8]",1.0,4.0,0.23178601264953613,1.7970809936523438,0.4620020736096462,54.0,489.0,0.0
Y,R,"[6, 9]",1.0,5.0,0.21068692207336426,1.8267219066619873,0.5219613634570688,54.0,490.0,0.0
,,"(6, 6)",,,,,,,,
B,L,"[6, 9]",-999.0,0.0,0.6542038917541504,3.8486268520355225,0.5873631864736442,55.0,491.0,-5.0
B,L,"[6, 9]",-999.0,0.0,0.2950930595397949,2.0369699001312256,0.6410101511178303,55.0,492.0,-5.0
R,U,"[6, 9]",-999.0,0.0,0.2921590805053711,2.1410419940948486,0.7484560916700734,55.0,493.0,-5.0
R,U,"[6, 9]",-999.0,0.0,0.2312760353088379,1.7032039165496826,0.36894416596009405,55.0,494.0,-5.0
R,U,"[5, 9]",-999.0,0.0,0.6345920562744141,2.3124918937683105,0.5812335365737229,55.0,495.0,1.0
,,"(6, 6)",,,,,,,,
R,U,"[5, 6]",1.0,1.0,0.3162050247192383,3.498548984527588,0.7131418397262597,56.0,496.0,0.0
Y,R,"[5, 7]",1.0,2.0,0.24393296241760254,1.6412270069122314,0.2879609659264799,56.0,497.0,0.0
Y,R,"[5, 8]",1.0,3.0,0.26204395294189453,1.7261199951171875,0.36421785434027587,56.0,498.0,0.0
G,D,"[6, 8]",1.0,4.0,0.2204880714416504,1.8929669857025146,0.5740297431961005,56.0,499.0,0.0
Y,R,"[6, 9]",1.0,5.0,0.22598791122436523,1.8441948890686035,0.5180420177267165,56.0,500.0,0.0
,,"(6, 6)",,,,,,,,
R,U,"[5, 6]",1.0,1.0,0.3808109760284424,3.7861108779907227,0.25443951145483573,57.0,501.0,0.0
Y,R,"[5, 7]",1.0,2.0,0.2625300884246826,1.9548799991607666,0.5923556469928395,57.0,502.0,0.0
Y,R,"[5, 8]",1.0,3.0,0.2310500144958496,1.727909803390503,0.4037628907497412,57.0,503.0,0.0
G,D,"[6, 8]",1.0,4.0,0.24579787254333496,2.0450439453125,0.6984795538787647,57.0,504.0,0.0
Y,R,"[6, 9]",1.0,5.0,0.2187812328338623,1.9958581924438477,0.67785867029256,57.0,505.0,0.0
Y,R,"[6, 10]",1.0,6.0,0.21154999732971191,1.6985540390014648,0.3933509937422576,57.0,506.0,0.0
R,U,"[5, 10]",1.0,7.0,0.23941612243652344,1.9356107711791992,0.595611833338969,57.0,507.0,0.0
R,U,"[4, 10]",1.0,8.0,0.2592439651489258,1.6875920295715332,0.33350896736036045,57.0,508.0,0.0
B,L,"[4, 9]",1.0,9.0,0.333233118057251,1.7832138538360596,0.3501191324486939,57.0,509.0,0.0
R,U,"[3, 9]",1.0,10.0,0.48423004150390625,2.0786750316619873,0.4953704595528018,57.0,510.0,0.0
,,"(6, 6)",,,,,,,,
R,U,"[5, 6]",1.0,1.0,0.34583497047424316,2.4017081260681152,0.2806565771829938,58.0,511.0,0.0
Y,R,"[5, 7]",1.0,2.0,0.24077796936035156,1.6935760974884033,0.34088981465585544,58.0,512.0,0.0
Y,R,"[5, 8]",1.0,3.0,0.2715449333190918,2.0609211921691895,0.6847737693309375,58.0,513.0,0.0
G,D,"[6, 8]",1.0,4.0,0.26789093017578125,2.0773510932922363,0.7122310233675941,58.0,514.0,0.0
Y,R,"[6, 9]",1.0,5.0,0.26049089431762695,2.080698013305664,0.7262325398481728,58.0,515.0,0.0
Y,R,"[6, 10]",1.0,6.0,0.2381880283355713,1.8940701484680176,0.5539361757065135,58.0,516.0,0.0
R,U,"[5, 10]",1.0,7.0,0.2148280143737793,1.9666759967803955,0.6537319886022002,58.0,517.0,0.0
R,U,"[4, 10]",1.0,8.0,0.24019598960876465,1.6831269264221191,0.3373451892992648,58.0,518.0,0.0
B,L,"[4, 9]",1.0,9.0,0.2719388008117676,2.0019209384918213,0.6223829243216104,58.0,519.0,0.0
R,U,"[3, 9]",1.0,10.0,0.2333087921142578,1.8545451164245605,0.5269610427544278,58.0,520.0,0.0
,,"(6, 6)",,,,,,,,
R,U,"[5, 6]",-999.0,0.0,0.4027550220489502,3.0662100315093994,0.5433995289909506,59.0,521.0,-4.0
Y,R,"[5, 7]",-999.0,0.0,0.2824220657348633,1.904176950454712,0.5309480251980612,59.0,522.0,-4.0
Y,R,"[5, 8]",-999.0,0.0,0.27219200134277344,1.806931972503662,0.4378485871073294,59.0,523.0,-4.0
R,U,"[4, 8]",-999.0,0.0,0.31963491439819336,1.931994915008545,0.520023286811611,59.0,524.0,-4.0
R,U,"[3, 8]",-999.0,0.0,0.546004056930542,1.9889371395111084,0.3424339188755025,59.0,525.0,1.0
,,"(6, 6)",,,,,,,,
B,L,"[3, 8]",-999.0,0.0,0.606097936630249,3.240391969680786,0.399196482599916,60.0,526.0,-5.0
B,L,"[3, 8]",-999.0,0.0,0.3388500213623047,1.75189208984375,0.31827378063932066,60.0,527.0,-5.0
R,U,"[3, 8]",-999.0,0.0,0.3366279602050781,2.016037940979004,0.5840394701882468,60.0,528.0,-5.0
R,U,"[3, 8]",-999.0,0.0,0.2753159999847412,1.6547558307647705,0.27244509249301846,60.0,529.0,-5.0
R,U,"[2, 8]",-999.0,0.0,0.6708219051361084,2.3797900676727295,0.6185284414164186,60.0,530.0,1.0
,,"(6, 6)",,,,,,,,
R,U,"[5, 6]",1.0,1.0,0.3431739807128906,2.812702178955078,0.631403642466105,61.0,531.0,0.0
Y,R,"[5, 7]",1.0,2.0,0.2275829315185547,1.850188970565796,0.5150218717380537,61.0,532.0,0.0
Y,R,"[5, 8]",1.0,3.0,0.33554506301879883,1.760741949081421,0.32601255429798487,61.0,533.0,0.0
G,D,"[6, 8]",1.0,4.0,0.29657602310180664,2.0177879333496094,0.6270205454229095,61.0,534.0,0.0
Y,R,"[6, 9]",1.0,5.0,0.2781529426574707,1.8283288478851318,0.4555586678370352,61.0,535.0,0.0
Y,R,"[6, 10]",1.0,6.0,0.2778019905090332,1.9796059131622314,0.6016304711197973,61.0,536.0,0.0
R,U,"[5, 10]",1.0,7.0,0.22452998161315918,1.6409368515014648,0.30945156847440036,61.0,537.0,0.0
R,U,"[4, 10]",1.0,8.0,0.28618311882019043,1.82704496383667,0.4530812732530976,61.0,538.0,0.0
B,L,"[4, 9]",1.0,9.0,0.25167083740234375,1.8645069599151611,0.5176325681368431,61.0,539.0,0.0
R,U,"[3, 9]",1.0,10.0,0.2292180061340332,1.928394079208374,0.5958903909661029,61.0,540.0,0.0
,,"(6, 6)",,,,,,,,
R,U,"[5, 6]",1.0,1.0,0.3108839988708496,2.7677600383758545,0.5805694793226592,62.0,541.0,0.0
Y,R,"[5, 7]",1.0,2.0,0.212554931640625,1.6415119171142578,0.3224826210661653,62.0,542.0,0.0
Y,R,"[5, 8]",1.0,3.0,0.27420902252197266,2.073560953140259,0.6956727273127694,62.0,543.0,0.0
G,D,"[6, 8]",1.0,4.0,0.28495216369628906,1.8495221138000488,0.46208321058055307,62.0,544.0,0.0
Y,R,"[6, 9]",1.0,5.0,0.36369800567626953,1.9389150142669678,0.48433666174873063,62.0,545.0,0.0
Y,R,"[6, 10]",1.0,6.0,0.2629830837249756,2.03541898727417,0.6696395333875522,62.0,546.0,0.0
R,U,"[5, 10]",1.0,7.0,0.2494950294494629,2.0625159740448,0.7155432768016475,62.0,547.0,0.0
R,U,"[4, 10]",1.0,8.0,0.22522521018981934,1.5886199474334717,0.25470020122127146,62.0,548.0,0.0
B,L,"[4, 9]",1.0,9.0,0.29918599128723145,1.8517301082611084,0.4562254325858547,62.0,549.0,0.0
R,U,"[3, 9]",1.0,10.0,0.2745931148529053,1.996194839477539,0.6189558686047181,62.0,550.0,0.0
,,"(6, 6)",,,,,,,,
R,U,"[5, 6]",1.0,1.0,0.3546891212463379,2.8663928508758545,0.485628684807494,63.0,551.0,0.0
Y,R,"[5, 7]",1.0,2.0,0.2631700038909912,2.0854640007019043,0.7212258504208062,63.0,552.0,0.0
Y,R,"[5, 8]",1.0,3.0,0.2420339584350586,1.7020721435546875,0.35675518631124287,63.0,553.0,0.0
G,D,"[6, 8]",1.0,4.0,0.31994104385375977,1.854046106338501,0.4441087699325866,63.0,554.0,0.0
Y,R,"[6, 9]",1.0,5.0,0.29517102241516113,1.698782205581665,0.30961770775087066,63.0,555.0,0.0
Y,R,"[6, 10]",1.0,6.0,0.2740180492401123,1.8542201519012451,0.48011474526525044,63.0,556.0,0.0
R,U,"[5, 10]",1.0,7.0,0.24258112907409668,1.758540153503418,0.40570242294442066,63.0,557.0,0.0
R,U,"[4, 10]",1.0,8.0,0.26899290084838867,1.7243130207061768,0.3629687745019944,63.0,558.0,0.0
B,L,"[4, 9]",1.0,9.0,0.2954380512237549,1.757944107055664,0.3548775339275587,63.0,559.0,0.0
R,U,"[3, 9]",1.0,10.0,0.3017120361328125,1.64668607711792,0.2516903313008802,63.0,560.0,0.0
,,"(6, 6)",,,,,,,,
R,U,"[5, 6]",-999.0,0.0,0.4707820415496826,3.8830161094665527,0.6676312200360957,64.0,561.0,-4.0
Y,R,"[5, 7]",-999.0,0.0,0.26917004585266113,1.685093879699707,0.31986712356316405,64.0,562.0,-4.0
Y,R,"[5, 8]",-999.0,0.0,0.21886587142944336,1.579096794128418,0.2655933540430855,64.0,563.0,-4.0
G,D,"[6, 8]",-999.0,0.0,0.37689995765686035,1.9025070667266846,0.41812253784459275,64.0,564.0,-4.0
Y,R,"[6, 9]",-999.0,0.0,0.3456289768218994,2.1485979557037354,0.6998286938180422,64.0,565.0,-4.0
Y,R,"[6, 10]",-999.0,0.0,0.20781898498535156,1.9976019859313965,0.6974755752840617,64.0,566.0,-4.0
R,U,"[5, 10]",-999.0,0.0,0.3269009590148926,2.069317102432251,0.6334644141263905,64.0,567.0,-4.0
R,U,"[4, 10]",-999.0,0.0,0.23516297340393066,1.9291551113128662,0.5961956334231198,64.0,568.0,-4.0
R,U,"[3, 10]",-999.0,0.0,0.2729020118713379,1.747056007385254,0.376630075715329,64.0,569.0,-4.0
R,U,"[2, 10]",-999.0,0.0,0.9666450023651123,2.3903260231018066,0.33387678528497217,64.0,570.0,1.0
,,"(6, 6)",,,,,,,,
R,U,"[5, 6]",1.0,1.0,0.4501068592071533,4.859400987625122,0.6598088334844086,65.0,571.0,0.0
Y,R,"[5, 7]",1.0,2.0,0.2500488758087158,1.9001140594482422,0.560118544013241,65.0,572.0,0.0
Y,R,"[5, 8]",1.0,3.0,0.2771580219268799,1.8259949684143066,0.4528606244322882,65.0,573.0,0.0
G,D,"[6, 8]",1.0,4.0,0.3295869827270508,2.020108938217163,0.5896265346907839,65.0,574.0,0.0
Y,R,"[6, 9]",1.0,5.0,0.23010492324829102,1.6362340450286865,0.30945066106037683,65.0,575.0,0.0
Y,R,"[6, 10]",1.0,6.0,0.41973090171813965,2.1776089668273926,0.6700031520296951,65.0,576.0,0.0
R,U,"[5, 10]",1.0,7.0,0.24940204620361328,1.6260278224945068,0.27999153852164843,65.0,577.0,0.0
R,U,"[4, 10]",1.0,8.0,0.2772791385650635,1.7981500625610352,0.41126470349471045,65.0,578.0,0.0
B,L,"[4, 9]",1.0,9.0,0.3249180316925049,2.056791067123413,0.6346348040410899,65.0,579.0,0.0
R,U,"[3, 9]",1.0,10.0,0.25036191940307617,1.7735087871551514,0.4250438647516533,65.0,580.0,0.0
,,"(6, 6)",,,,,,,,
R,U,"[5, 6]",1.0,1.0,0.32915186882019043,2.3961658477783203,0.3376885601888834,66.0,581.0,0.0
Y,R,"[5, 7]",1.0,2.0,0.24682903289794922,1.8292899131774902,0.48392269418132655,66.0,582.0,0.0
Y,R,"[5, 8]",1.0,3.0,0.24462103843688965,1.6660051345825195,0.31664342769095194,66.0,583.0,0.0
G,D,"[6, 8]",1.0,4.0,0.2589719295501709,1.809347152709961,0.442661880270132,66.0,584.0,0.0
Y,R,"[6, 9]",1.0,5.0,0.22994518280029297,1.7972099781036377,0.4732689176555484,66.0,585.0,0.0
Y,R,"[6, 10]",1.0,6.0,0.22411084175109863,1.9039111137390137,0.5769038823140423,66.0,586.0,0.0
R,U,"[5, 10]",1.0,7.0,0.26305389404296875,1.9103379249572754,0.5540745628374522,66.0,587.0,0.0
R,U,"[4, 10]",1.0,8.0,0.2513880729675293,1.6925251483917236,0.3469767544760169,66.0,588.0,0.0
B,L,"[4, 9]",1.0,9.0,0.28954315185546875,1.9321181774139404,0.5289531500077963,66.0,589.0,0.0
R,U,"[3, 9]",1.0,10.0,0.2820749282836914,1.903357982635498,0.5321652788163066,66.0,590.0,0.0
,,"(6, 6)",,,,,,,,
B,L,"[3, 9]",-999.0,0.0,0.7659680843353271,3.0815539360046387,0.4142150556971809,67.0,591.0,-5.0
B,L,"[3, 9]",-999.0,0.0,0.3250601291656494,1.9346890449523926,0.5154570526535555,67.0,592.0,-5.0
R,U,"[3, 9]",-999.0,0.0,0.33788299560546875,1.7491731643676758,0.31489650909180583,67.0,593.0,-5.0
R,U,"[3, 9]",-999.0,0.0,0.31790590286254883,1.818202018737793,0.3995820922582828,67.0,594.0,-5.0
B,L,"[3, 8]",-999.0,0.0,0.8519349098205566,2.4321000576019287,0.4817795913498101,67.0,595.0,1.0
,,"(6, 6)",,,,,,,,
B,L,"[3, 8]",-999.0,0.0,0.5771908760070801,3.809911012649536,0.5584524643303879,68.0,596.0,-5.0
B,L,"[3, 8]",-999.0,0.0,0.29732704162597656,2.1327550411224365,0.7405480401537334,68.0,597.0,-5.0
R,U,"[3, 8]",-999.0,0.0,0.2769038677215576,2.051060199737549,0.6754765033602876,68.0,598.0,-5.0
R,U,"[3, 8]",-999.0,0.0,0.2449808120727539,1.6692290306091309,0.3284601818352035,68.0,599.0,-5.0
R,U,"[2, 8]",-999.0,0.0,0.4927239418029785,2.282439947128296,0.6772590162466152,68.0,600.0,1.0
,,"(6, 6)",,,,,,,,
R,U,"[5, 6]",1.0,1.0,0.3630669116973877,2.8704440593719482,0.6478727366805233,69.0,601.0,0.0
Y,R,"[5, 7]",1.0,2.0,0.21787714958190918,1.830672025680542,0.5118914908510346,69.0,602.0,0.0
Y,R,"[5, 8]",1.0,3.0,0.2502908706665039,2.0483219623565674,0.710216960371254,69.0,603.0,0.0
G,D,"[6, 8]",1.0,4.0,0.305311918258667,1.9577269554138184,0.5681835875399293,69.0,604.0,0.0
Y,R,"[6, 9]",1.0,5.0,0.31084704399108887,1.7829079627990723,0.3679638042868692,69.0,605.0,0.0
Y,R,"[6, 10]",1.0,6.0,0.28842806816101074,1.7685320377349854,0.3698474908537776,69.0,606.0,0.0
R,U,"[5, 10]",1.0,7.0,0.27388620376586914,1.9942491054534912,0.613878357010677,69.0,607.0,0.0
R,U,"[4, 10]",1.0,8.0,0.223876953125,1.6460261344909668,0.3103022152376786,69.0,608.0,0.0
B,L,"[4, 9]",1.0,9.0,0.2757110595703125,1.8812510967254639,0.507999091563197,69.0,609.0,0.0
R,U,"[3, 9]",1.0,10.0,0.26654481887817383,1.6407780647277832,0.2824455885481431,69.0,610.0,0.0
,,"(6, 6)",,,,,,,,
R,U,"[5, 6]",-999.0,0.0,0.4105668067932129,3.031141996383667,0.6299957584490108,70.0,611.0,-4.0
Y,R,"[5, 7]",-999.0,0.0,0.23922395706176758,1.6423230171203613,0.3059993181208282,70.0,612.0,-4.0
Y,R,"[5, 8]",-999.0,0.0,0.2519071102142334,1.9545361995697021,0.6101737887231671,70.0,613.0,-4.0
G,D,"[6, 8]",-999.0,0.0,0.3008852005004883,1.779698133468628,0.3902256558889235,70.0,614.0,-4.0
Y,R,"[6, 9]",-999.0,0.0,0.34766507148742676,1.8167979717254639,0.37376784150181536,70.0,615.0,-4.0
Y,R,"[6, 10]",-999.0,0.0,0.31848907470703125,2.069566011428833,0.659838434029356,70.0,616.0,-4.0
R,U,"[5, 10]",-999.0,0.0,0.28578996658325195,1.8639531135559082,0.49065206848582305,70.0,617.0,-4.0
R,U,"[4, 10]",-999.0,0.0,0.26291704177856445,1.6275291442871094,0.2684257314849644,70.0,618.0,-4.0
R,U,"[3, 10]",-999.0,0.0,0.3029940128326416,2.015415906906128,0.6169454960598845,70.0,619.0,-4.0
R,U,"[2, 10]",-999.0,0.0,0.561953067779541,1.9685020446777344,0.3025296558239064,70.0,620.0,1.0
,,"(6, 6)",,,,,,,,
R,U,"[5, 6]",1.0,1.0,0.3404960632324219,2.9376060962677,0.3732497359571749,71.0,621.0,0.0
Y,R,"[5, 7]",1.0,2.0,0.2941591739654541,1.94834303855896,0.554905360489828,71.0,622.0,0.0
Y,R,"[5, 8]",1.0,3.0,0.22637701034545898,1.6025707721710205,0.2743768190318362,71.0,623.0,0.0
G,D,"[6, 8]",1.0,4.0,0.3432891368865967,1.9919841289520264,0.5496001467045217,71.0,624.0,0.0
Y,R,"[6, 9]",1.0,5.0,0.2942819595336914,2.0218348503112793,0.6213984008167606,71.0,625.0,0.0
Y,R,"[6, 10]",1.0,6.0,0.24479985237121582,1.6432838439941406,0.29838665857233315,71.0,626.0,0.0
R,U,"[5, 10]",1.0,7.0,0.35278892517089844,2.143347978591919,0.6913723490821658,71.0,627.0,0.0
R,U,"[4, 10]",1.0,8.0,0.2394728660583496,1.783944845199585,0.45891928153383704,71.0,628.0,0.0
B,L,"[4, 9]",1.0,9.0,0.33237504959106445,2.0677409172058105,0.6432292095797598,71.0,629.0,0.0
R,U,"[3, 9]",1.0,10.0,0.26667308807373047,2.0077438354492188,0.6511884524699006,71.0,630.0,0.0
,,"(6, 6)",,,,,,,,
R,U,"[5, 6]",1.0,1.0,0.3413522243499756,2.705298900604248,0.7396763998590699,72.0,631.0,0.0
Y,R,"[5, 7]",1.0,2.0,0.2341141700744629,1.7147648334503174,0.3882308091973822,72.0,632.0,0.0
Y,R,"[5, 8]",1.0,3.0,0.27580714225769043,1.9933440685272217,0.614710106639856,72.0,633.0,0.0
G,D,"[6, 8]",1.0,4.0,0.23978400230407715,1.7914950847625732,0.43974092363434375,72.0,634.0,0.0
Y,R,"[6, 9]",1.0,5.0,0.2944350242614746,1.7780029773712158,0.3844995126837314,72.0,635.0,0.0
Y,R,"[6, 10]",1.0,6.0,0.27721095085144043,1.6673948764801025,0.28528372844186,72.0,636.0,0.0
R,U,"[5, 10]",1.0,7.0,0.30460309982299805,1.9294779300689697,0.5146013475769715,72.0,637.0,0.0
R,U,"[4, 10]",1.0,8.0,0.22211098670959473,1.9862289428710938,0.6508209723371909,72.0,638.0,0.0
B,L,"[4, 9]",1.0,9.0,0.25189995765686035,1.9263942241668701,0.5773372039100515,72.0,639.0,0.0
R,U,"[3, 9]",1.0,10.0,0.3121669292449951,2.1226649284362793,0.7162433132441423,72.0,640.0,0.0
,,"(6, 6)",,,,,,,,
R,U,"[5, 6]",1.0,1.0,0.3603999614715576,2.3334338665008545,0.43361603008083,73.0,641.0,0.0
Y,R,"[5, 7]",1.0,2.0,0.2688028812408447,1.6802129745483398,0.314105332654692,73.0,642.0,0.0
Y,R,"[5, 8]",1.0,3.0,0.3274960517883301,2.0329549312591553,0.5968009261005254,73.0,643.0,0.0
G,D,"[6, 8]",1.0,4.0,0.3062901496887207,1.7638421058654785,0.34428973325857315,73.0,644.0,0.0
Y,R,"[6, 9]",1.0,5.0,0.24851608276367188,1.6595711708068848,0.3206060049521616,73.0,645.0,0.0
Y,R,"[6, 10]",1.0,6.0,0.3182871341705322,2.1379120349884033,0.7248675210533235,73.0,646.0,0.0
R,U,"[5, 10]",1.0,7.0,0.23262906074523926,1.9803688526153564,0.6553278585974209,73.0,647.0,0.0
R,U,"[4, 10]",1.0,8.0,0.2904689311981201,2.0869040489196777,0.6922646300975792,73.0,648.0,0.0
B,L,"[4, 9]",1.0,9.0,0.29683780670166016,1.8646900653839111,0.473910507287765,73.0,649.0,0.0
R,U,"[3, 9]",1.0,10.0,0.35428595542907715,2.0138471126556396,0.5542871915242888,73.0,650.0,0.0
,,"(6, 6)",,,,,,,,
R,U,"[5, 6]",1.0,1.0,0.3275928497314453,2.658358097076416,0.2629916344771784,74.0,651.0,0.0
Y,R,"[5, 7]",1.0,2.0,0.28518199920654297,1.9120900630950928,0.524972688388207,74.0,652.0,0.0
Y,R,"[5, 8]",1.0,3.0,0.2611219882965088,1.9980311393737793,0.6395505659234346,74.0,653.0,0.0
G,D,"[6, 8]",1.0,4.0,0.316087007522583,2.050352096557617,0.6399331245105222,74.0,654.0,0.0
Y,R,"[6, 9]",1.0,5.0,0.22341513633728027,1.7791781425476074,0.45274954313170834,74.0,655.0,0.0
Y,R,"[6, 10]",1.0,6.0,0.2749900817871094,1.9478340148925781,0.5671180179843849,74.0,656.0,0.0
R,U,"[5, 10]",1.0,7.0,0.28507304191589355,1.7207307815551758,0.3382598806002545,74.0,657.0,0.0
R,U,"[4, 10]",1.0,8.0,0.2457728385925293,1.9342279434204102,0.588901129567114,74.0,658.0,0.0
B,L,"[4, 9]",1.0,9.0,0.30016589164733887,2.1428279876708984,0.747908015214255,74.0,659.0,0.0
R,U,"[3, 9]",1.0,10.0,0.2512650489807129,2.010815143585205,0.6591345434961524,74.0,660.0,0.0
,,"(6, 6)",,,,,,,,
R,U,"[5, 6]",1.0,1.0,0.30446887016296387,3.311483144760132,0.6208995624643525,75.0,661.0,0.0
Y,R,"[5, 7]",1.0,2.0,0.2512691020965576,2.038538932800293,0.6926319418580663,75.0,662.0,0.0
Y,R,"[5, 8]",1.0,3.0,0.22148990631103516,1.7015068531036377,0.3775858177522661,75.0,663.0,0.0
G,D,"[6, 8]",1.0,4.0,0.30851292610168457,1.8801229000091553,0.47460571321580874,75.0,664.0,0.0
Y,R,"[6, 9]",1.0,5.0,0.23726916313171387,1.6156649589538574,0.2905900004322808,75.0,665.0,0.0
Y,R,"[6, 10]",1.0,6.0,0.28169894218444824,1.8358149528503418,0.4596200493917868,75.0,666.0,0.0
R,U,"[5, 10]",1.0,7.0,0.24545693397521973,1.6197800636291504,0.2796524754222812,75.0,667.0,0.0
R,U,"[4, 10]",1.0,8.0,0.2552011013031006,1.762610912322998,0.3921318004301455,75.0,668.0,0.0
B,L,"[4, 9]",1.0,9.0,0.26812291145324707,1.9089148044586182,0.5509440852977788,75.0,669.0,0.0
R,U,"[3, 9]",1.0,10.0,0.2765529155731201,1.655277967453003,0.2731360190748336,75.0,670.0,0.0
,,"(6, 6)",,,,,,,,
R,U,"[5, 6]",1.0,1.0,0.35123682022094727,2.5151829719543457,0.4217009773402757,76.0,671.0,0.0
Y,R,"[5, 7]",1.0,2.0,0.24527502059936523,1.8060479164123535,0.46112071702472696,76.0,672.0,0.0
Y,R,"[5, 8]",1.0,3.0,0.2650630474090576,1.7154929637908936,0.36005867715438417,76.0,673.0,0.0
G,D,"[6, 8]",1.0,4.0,0.24368906021118164,1.688547134399414,0.3486934755786537,76.0,674.0,0.0
Y,R,"[6, 9]",1.0,5.0,0.25054502487182617,1.8163418769836426,0.46474177480340007,76.0,675.0,0.0
Y,R,"[6, 10]",1.0,6.0,0.26088404655456543,2.019120931625366,0.6505229717597825,76.0,676.0,0.0
R,U,"[5, 10]",1.0,7.0,0.2503528594970703,1.6488161087036133,0.2996590768959841,76.0,677.0,0.0
R,U,"[4, 10]",1.0,8.0,0.26146984100341797,2.1087729930877686,0.7416512048536525,76.0,678.0,0.0
B,L,"[4, 9]",1.0,9.0,0.24756097793579102,1.7988319396972656,0.45725745363786646,76.0,679.0,0.0
R,U,"[3, 9]",1.0,10.0,0.32151198387145996,1.8081448078155518,0.39898086250774273,76.0,680.0,0.0
,,"(6, 6)",,,,,,,,
R,U,"[5, 6]",1.0,1.0,0.3050551414489746,2.55328106880188,0.4522817615960334,77.0,681.0,0.0
Y,R,"[5, 7]",1.0,2.0,0.22695398330688477,1.8168420791625977,0.48578773581769724,77.0,682.0,0.0
Y,R,"[5, 8]",1.0,3.0,0.22537612915039062,1.8591129779815674,0.5281437744863917,77.0,683.0,0.0
G,D,"[6, 8]",1.0,4.0,0.2994511127471924,2.0155558586120605,0.6269121053003137,77.0,684.0,0.0
Y,R,"[6, 9]",1.0,5.0,0.24382495880126953,1.8138480186462402,0.4744765696194475,77.0,685.0,0.0
Y,R,"[6, 10]",1.0,6.0,0.24820399284362793,2.068869113922119,0.7265080571216251,77.0,686.0,0.0
R,U,"[5, 10]",1.0,7.0,0.5205271244049072,2.291337013244629,0.6845726110205541,77.0,687.0,0.0
R,U,"[4, 10]",1.0,8.0,0.2307751178741455,1.958531141281128,0.6265074726152671,77.0,688.0,0.0
B,L,"[4, 9]",1.0,9.0,0.27373385429382324,1.7684130668640137,0.3952434250175306,77.0,689.0,0.0
R,U,"[3, 9]",1.0,10.0,0.29616403579711914,1.828935146331787,0.4409176738142514,77.0,690.0,0.0
,,"(6, 6)",,,,,,,,
B,L,"[3, 9]",-999.0,0.0,0.8565969467163086,6.776659965515137,0.3677990591291342,78.0,691.0,-5.0
B,L,"[3, 9]",-999.0,0.0,0.2948949337005615,1.701219081878662,0.30239599483001417,78.0,692.0,-5.0
R,U,"[3, 9]",-999.0,0.0,0.5028820037841797,2.150524139404297,0.5528227111619606,78.0,693.0,-5.0
R,U,"[3, 9]",-999.0,0.0,0.2899489402770996,2.0656819343566895,0.6850673783392028,78.0,694.0,-5.0
R,U,"[2, 9]",-999.0,0.0,0.6795198917388916,2.494133949279785,0.7125797837247431,78.0,695.0,1.0
,,"(6, 6)",,,,,,,,
B,L,"[2, 9]",-999.0,0.0,0.5852198600769043,3.806675910949707,0.6031450277345014,79.0,696.0,-5.0
B,L,"[2, 9]",-999.0,0.0,0.24643588066101074,2.0369598865509033,0.6897770999308901,79.0,697.0,-5.0
R,U,"[2, 9]",-999.0,0.0,0.3281900882720947,1.7608540058135986,0.3343640574479962,79.0,698.0,-5.0
R,U,"[2, 9]",-999.0,0.0,0.2997748851776123,1.7186739444732666,0.31967527178288047,79.0,699.0,-5.0
R,U,"[1, 9]",-999.0,0.0,0.5312509536743164,2.074653148651123,0.4442985846200612,79.0,700.0,1.0
,,"(6, 6)",,,,,,,,
R,U,"[5, 6]",1.0,1.0,0.3157620429992676,2.818056106567383,0.27918225679722103,80.0,701.0,0.0
Y,R,"[5, 7]",1.0,2.0,0.28780293464660645,1.979416847229004,0.6083552446607197,80.0,702.0,0.0
Y,R,"[5, 8]",1.0,3.0,0.2785499095916748,2.1000449657440186,0.724928821041093,80.0,703.0,0.0
G,D,"[6, 8]",1.0,4.0,0.31464195251464844,2.129115104675293,0.7207951614909058,80.0,704.0,0.0
Y,R,"[6, 9]",1.0,5.0,0.2629280090332031,2.0199830532073975,0.6576676956338088,80.0,705.0,0.0
Y,R,"[6, 10]",1.0,6.0,0.2327589988708496,1.6778907775878906,0.35264650808550707,80.0,706.0,0.0
R,U,"[5, 10]",1.0,7.0,0.2718541622161865,2.1241490840911865,0.7428746980042324,80.0,707.0,0.0
R,U,"[4, 10]",1.0,8.0,0.2358100414276123,1.741084098815918,0.4178692271512373,80.0,708.0,0.0
B,L,"[4, 9]",1.0,9.0,0.2639479637145996,1.7600209712982178,0.3945378360254943,80.0,709.0,0.0
R,U,"[3, 9]",1.0,10.0,0.2739858627319336,1.873331069946289,0.5011764484157434,80.0,710.0,0.0
,,"(6, 6)",,,,,,,,
R,U,"[5, 6]",1.0,1.0,0.2713778018951416,2.132385015487671,0.3338067513039787,81.0,711.0,0.0
Y,R,"[5, 7]",1.0,2.0,0.2385110855102539,1.9857699871063232,0.6360513527795341,81.0,712.0,0.0
Y,R,"[5, 8]",-1.0,2.0,0.055502891540527344,5.701329946517944,0.5044033671280286,81.0,713.0,0.0
Y,R,"[5, 9]",0.0,2.0,0.28812599182128906,1.8762569427490234,0.4806278057732508,81.0,714.0,0.0
G,D,"[6, 9]",1.0,3.0,0.20809388160705566,1.8412539958953857,0.5218989716587681,81.0,715.0,0.0
Y,R,"[6, 10]",1.0,4.0,0.25824689865112305,1.6753439903259277,0.3309113373338032,81.0,716.0,0.0
Y,R,"[6, 11]",0.0,4.0,0.2926499843597412,2.0057129859924316,0.6027277621554981,81.0,717.0,0.0
R,U,"[5, 11]",0.0,4.0,0.2947540283203125,1.7356748580932617,0.33901802875601056,81.0,718.0,0.0
R,U,"[4, 11]",0.0,4.0,0.17623090744018555,1.5397448539733887,0.262060448327159,81.0,719.0,0.0
R,U,"[3, 11]",0.0,4.0,0.2052021026611328,1.564600944519043,0.26016752620461914,81.0,720.0,0.0
,,"(6, 6)",,,,,,,,
G,D,"[3, 11]",-999.0,0.0,0.5537109375,3.0543441772460938,0.5808080469276715,82.0,721.0,-5.0
G,D,"[3, 11]",-999.0,0.0,0.2820260524749756,1.8898789882659912,0.5041684052616933,82.0,722.0,-5.0
G,D,"[3, 11]",-999.0,0.0,0.2743411064147949,1.7834789752960205,0.4212396302256284,82.0,723.0,-5.0
B,L,"[3, 11]",-999.0,0.0,0.3637878894805908,1.98911714553833,0.5267953919492575,82.0,724.0,-5.0
B,L,"[3, 11]",-999.0,0.0,0.24309301376342773,1.8766460418701172,0.5372464156918705,82.0,725.0,-5.0
R,U,"[3, 11]",-999.0,0.0,0.2919349670410156,1.6595730781555176,0.263462113673187,82.0,726.0,-5.0
R,U,"[3, 11]",-999.0,0.0,0.2692070007324219,1.6608190536499023,0.2909869193081723,82.0,727.0,-5.0
B,L,"[3, 11]",-999.0,0.0,0.250262975692749,1.8010947704315186,0.45894688964365726,82.0,728.0,-5.0
B,L,"[3, 11]",-999.0,0.0,0.22239089012145996,1.748871088027954,0.44086666261507773,82.0,729.0,-5.0
R,U,"[2, 11]",-999.0,0.0,0.879431962966919,2.71028208732605,0.7345258123781107,82.0,730.0,1.0
,,"(6, 6)",,,,,,,,
R,U,"[5, 6]",1.0,1.0,0.32891106605529785,2.770089864730835,0.604691002531564,83.0,731.0,0.0
Y,R,"[5, 7]",1.0,2.0,0.29532909393310547,1.9252140522003174,0.5299953873616015,83.0,732.0,0.0
Y,R,"[5, 8]",1.0,3.0,0.2629659175872803,2.019200086593628,0.6491428967962021,83.0,733.0,0.0
G,D,"[6, 8]",1.0,4.0,0.2734699249267578,1.9849729537963867,0.6007766911455339,83.0,734.0,0.0
Y,R,"[6, 9]",1.0,5.0,0.302584171295166,1.6498188972473145,0.25113404150502483,83.0,735.0,0.0
Y,R,"[6, 10]",1.0,6.0,0.317202091217041,1.7451660633087158,0.3295932621931632,83.0,736.0,0.0
R,U,"[5, 10]",1.0,7.0,0.24618101119995117,1.7582190036773682,0.40443019544576847,83.0,737.0,0.0
R,U,"[4, 10]",1.0,8.0,0.2546348571777344,1.8012609481811523,0.45571999767236254,83.0,738.0,0.0
B,L,"[4, 9]",1.0,9.0,0.23530888557434082,1.6851699352264404,0.35700320226714655,83.0,739.0,0.0
R,U,"[3, 9]",1.0,10.0,0.2548971176147461,2.0830600261688232,0.7405369411062857,83.0,740.0,0.0
,,"(6, 6)",,,,,,,,
R,U,"[5, 6]",1.0,1.0,0.3375129699707031,2.6229758262634277,0.6302066028412607,84.0,741.0,0.0
Y,R,"[5, 7]",1.0,2.0,0.24650788307189941,2.0937840938568115,0.7406684488246462,84.0,742.0,0.0
Y,R,"[5, 8]",1.0,3.0,0.25124406814575195,1.9055778980255127,0.5631096226145195,84.0,743.0,0.0
G,D,"[6, 8]",1.0,4.0,0.31561803817749023,2.1059138774871826,0.68550654041788,84.0,744.0,0.0
Y,R,"[6, 9]",1.0,5.0,0.23374485969543457,1.6152398586273193,0.2845403528363107,84.0,745.0,0.0
Y,R,"[6, 10]",1.0,6.0,0.28311896324157715,1.8873000144958496,0.5051169811087315,84.0,746.0,0.0
R,U,"[5, 10]",1.0,7.0,0.2848389148712158,1.7836410999298096,0.4055470936867119,84.0,747.0,0.0
R,U,"[4, 10]",1.0,8.0,0.23359298706054688,1.9807589054107666,0.652873741260812,84.0,748.0,0.0
B,L,"[4, 9]",1.0,9.0,0.2593100070953369,2.0802841186523438,0.7164544114349826,84.0,749.0,0.0
R,U,"[3, 9]",1.0,10.0,0.22797393798828125,2.0220038890838623,0.688126248048968,84.0,750.0,0.0
,,"(6, 6)",,,,,,,,
R,U,"[5, 6]",-999.0,0.0,0.4833250045776367,3.031913995742798,0.6372891969166811,85.0,751.0,-4.0
Y,R,"[5, 7]",-999.0,0.0,0.31092000007629395,1.7587881088256836,0.346071205007799,85.0,752.0,-4.0
Y,R,"[5, 8]",-999.0,0.0,0.3076210021972656,1.8474559783935547,0.4438033186377582,85.0,753.0,-4.0
R,U,"[4, 8]",-999.0,0.0,0.32953786849975586,1.9174728393554688,0.49465028295848873,85.0,754.0,-4.0
R,U,"[3, 8]",-999.0,0.0,0.4097719192504883,2.084411859512329,0.5622956988454624,85.0,755.0,1.0
,,"(6, 6)",,,,,,,,
R,U,"[5, 6]",1.0,1.0,0.3349571228027344,2.2972819805145264,0.3265647970883453,86.0,756.0,0.0
Y,R,"[5, 7]",1.0,2.0,0.3534879684448242,1.9858741760253906,0.5456846936039372,86.0,757.0,0.0
Y,R,"[5, 8]",1.0,3.0,0.24124693870544434,1.978187084197998,0.6404073961426111,86.0,758.0,0.0
G,D,"[6, 8]",1.0,4.0,0.27791786193847656,1.8483960628509521,0.4724391046342647,86.0,759.0,0.0
Y,R,"[6, 9]",1.0,5.0,0.26529502868652344,1.9077939987182617,0.5468620199143934,86.0,760.0,0.0
,,"(6, 6)",,,,,,,,
R,U,"[5, 6]",-999.0,0.0,0.393779993057251,3.6646008491516113,0.5781860406490165,87.0,761.0,-4.0
Y,R,"[5, 7]",-999.0,0.0,0.2956559658050537,2.043632984161377,0.6551579557809699,87.0,762.0,-4.0
Y,R,"[5, 8]",-999.0,0.0,0.27871108055114746,2.049715995788574,0.6718516617738794,87.0,763.0,-4.0
R,U,"[4, 8]",-999.0,0.0,0.29779911041259766,2.0888478755950928,0.6934428159134138,87.0,764.0,-4.0
R,U,"[3, 8]",-999.0,0.0,0.4881858825683594,2.280014991760254,0.7071462172788339,87.0,765.0,1.0
,,"(6, 6)",,,,,,,,
R,U,"[5, 6]",-999.0,0.0,0.3263571262359619,2.1682000160217285,0.35902720767673885,88.0,766.0,-4.0
Y,R,"[5, 7]",-999.0,0.0,0.48087406158447266,2.1650428771972656,0.5905762102079695,88.0,767.0,-4.0
Y,R,"[5, 8]",-999.0,0.0,0.2700989246368408,1.6243650913238525,0.2654743505303256,88.0,768.0,-4.0
G,D,"[6, 8]",-999.0,0.0,0.34443211555480957,2.029539108276367,0.5779972313462248,88.0,769.0,-4.0
Y,R,"[6, 9]",-999.0,0.0,0.2910959720611572,1.9360201358795166,0.5640462489784073,88.0,770.0,-4.0
,,"(6, 6)",,,,,,,,
G,D,"[6, 9]",-999.0,0.0,0.46413683891296387,3.4289770126342773,0.643013441263911,89.0,771.0,-5.0
G,D,"[6, 9]",-999.0,0.0,0.2546119689941406,1.7182879447937012,0.378213962726893,89.0,772.0,-5.0
G,D,"[6, 9]",-999.0,0.0,0.25397491455078125,1.8344171047210693,0.4960078937528745,89.0,773.0,-5.0
B,L,"[6, 9]",-999.0,0.0,0.30308985710144043,1.7672429084777832,0.3635191431030339,89.0,774.0,-5.0
B,L,"[6, 9]",-999.0,0.0,0.25084614753723145,2.053632974624634,0.7001308533693743,89.0,775.0,-5.0
R,U,"[6, 9]",-999.0,0.0,0.3915538787841797,2.190743923187256,0.6909946468117744,89.0,776.0,-5.0
R,U,"[6, 9]",-999.0,0.0,0.37526488304138184,2.066387891769409,0.6074950451874814,89.0,777.0,-5.0
B,L,"[6, 9]",-999.0,0.0,0.6956520080566406,2.2174270153045654,0.42509481979751296,89.0,778.0,-5.0
B,L,"[6, 9]",-999.0,0.0,0.2633330821990967,1.792159080505371,0.4340520845235716,89.0,779.0,-5.0
R,U,"[5, 9]",-999.0,0.0,0.28309202194213867,2.034886121749878,0.6520321331648874,89.0,780.0,1.0
,,"(6, 6)",,,,,,,,
R,U,"[5, 6]",1.0,1.0,0.3365321159362793,2.4961700439453125,0.33199740027532426,90.0,781.0,0.0
Y,R,"[5, 7]",1.0,2.0,0.2831079959869385,2.042202949523926,0.657092336096025,90.0,782.0,0.0
Y,R,"[5, 8]",1.0,3.0,0.24465107917785645,1.8294131755828857,0.48682475899237904,90.0,783.0,0.0
G,D,"[6, 8]",1.0,4.0,0.25411105155944824,1.9568860530853271,0.5937565587367566,90.0,784.0,0.0
Y,R,"[6, 9]",1.0,5.0,0.26749086380004883,2.071294069290161,0.7148953629043668,90.0,785.0,0.0
Y,R,"[6, 10]",1.0,6.0,0.251284122467041,1.941236972808838,0.5900411553498055,90.0,786.0,0.0
R,U,"[5, 10]",1.0,7.0,0.4649488925933838,1.828359842300415,0.2684854188332107,90.0,787.0,0.0
R,U,"[4, 10]",1.0,8.0,0.3267800807952881,1.681879997253418,0.2503677566085604,90.0,788.0,0.0
B,L,"[4, 9]",1.0,9.0,0.3384559154510498,1.8633661270141602,0.41368601747595607,90.0,789.0,0.0
R,U,"[3, 9]",1.0,10.0,0.3207721710205078,2.051269054412842,0.6314516588752067,90.0,790.0,0.0
,,"(6, 6)",,,,,,,,
R,U,"[5, 6]",-999.0,0.0,0.4988861083984375,2.683880090713501,0.5988641577211874,91.0,791.0,-4.0
Y,R,"[5, 7]",-999.0,0.0,0.30660104751586914,2.078083038330078,0.676770336717653,91.0,792.0,-4.0
Y,R,"[5, 8]",-999.0,0.0,0.48534607887268066,1.9286069869995117,0.3557139197755692,91.0,793.0,-4.0
G,D,"[6, 8]",-999.0,0.0,0.4587099552154541,2.0354738235473633,0.49130177221883414,91.0,794.0,-4.0
Y,R,"[6, 9]",-999.0,0.0,0.293410062789917,1.7910220623016357,0.399010138037657,91.0,795.0,-4.0
Y,R,"[6, 10]",-999.0,0.0,0.29852294921875,1.9852089881896973,0.5841907652906893,91.0,796.0,-4.0
R,U,"[5, 10]",-999.0,0.0,0.2783010005950928,1.6427528858184814,0.25999654697682006,91.0,797.0,-4.0
R,U,"[4, 10]",-999.0,0.0,0.30649280548095703,1.6499488353729248,0.2605815023332078,91.0,798.0,-4.0
R,U,"[3, 10]",-999.0,0.0,0.3079698085784912,1.8281059265136719,0.4386191304062733,91.0,799.0,-4.0
R,U,"[2, 10]",-999.0,0.0,0.2607259750366211,1.9513580799102783,0.5897830764867684,91.0,800.0,1.0
,,"(6, 6)",,,,,,,,
R,U,"[5, 6]",1.0,1.0,0.29256415367126465,2.367393970489502,0.5906784150952007,92.0,801.0,0.0
Y,R,"[5, 7]",1.0,2.0,0.229417085647583,1.8091421127319336,0.4832730548725834,92.0,802.0,0.0
Y,R,"[5, 8]",1.0,3.0,0.27364492416381836,2.092543125152588,0.7087789544861165,92.0,803.0,0.0
G,D,"[6, 8]",1.0,4.0,0.2518761157989502,1.64103102684021,0.3003942794358746,92.0,804.0,0.0
Y,R,"[6, 9]",1.0,5.0,0.25876688957214355,1.629729986190796,0.2636700457895958,92.0,805.0,0.0
Y,R,"[6, 10]",1.0,6.0,0.25629401206970215,1.839491844177246,0.46961776990829085,92.0,806.0,0.0
R,U,"[5, 10]",1.0,7.0,0.23493504524230957,1.712157964706421,0.38173299752700157,92.0,807.0,0.0
R,U,"[4, 10]",1.0,8.0,0.2602829933166504,1.69386887550354,0.32586441737337885,92.0,808.0,0.0
B,L,"[4, 9]",1.0,9.0,0.2859799861907959,2.0056447982788086,0.6313255899678845,92.0,809.0,0.0
R,U,"[3, 9]",1.0,10.0,0.2395780086517334,1.7928929328918457,0.44100171220479784,92.0,810.0,0.0
,,"(6, 6)",,,,,,,,
R,U,"[5, 6]",1.0,1.0,0.2995939254760742,2.671900987625122,0.5796126193728223,93.0,811.0,0.0
Y,R,"[5, 7]",1.0,2.0,0.19579386711120605,2.0195071697235107,0.7157796941401007,93.0,812.0,0.0
Y,R,"[5, 8]",1.0,3.0,0.22832202911376953,2.0729899406433105,0.7386393498692598,93.0,813.0,0.0
G,D,"[6, 8]",1.0,4.0,0.2515270709991455,2.012526035308838,0.6679957893689841,93.0,814.0,0.0
Y,R,"[6, 9]",1.0,5.0,0.26705098152160645,2.049488067626953,0.6841448854767335,93.0,815.0,0.0
Y,R,"[6, 10]",1.0,6.0,0.2603030204772949,1.9947309494018555,0.6289018785741839,93.0,816.0,0.0
R,U,"[5, 10]",1.0,7.0,0.2590479850769043,1.6744098663330078,0.2872620652583893,93.0,817.0,0.0
R,U,"[4, 10]",1.0,8.0,0.29525184631347656,1.8817129135131836,0.4854742827365688,93.0,818.0,0.0
B,L,"[4, 9]",1.0,9.0,0.260296106338501,1.9885671138763428,0.6238930269039573,93.0,819.0,0.0
R,U,"[3, 9]",1.0,10.0,0.26502394676208496,2.0340301990509033,0.6744040170234821,93.0,820.0,0.0
,,"(6, 6)",,,,,,,,
R,U,"[5, 6]",1.0,1.0,0.3213009834289551,2.480802059173584,0.3724528811282453,94.0,821.0,0.0
Y,R,"[5, 7]",1.0,2.0,0.3055408000946045,1.9567749500274658,0.5457088761850941,94.0,822.0,0.0
Y,R,"[5, 8]",1.0,3.0,0.2488269805908203,2.0069079399108887,0.6527018392841961,94.0,823.0,0.0
G,D,"[6, 8]",1.0,4.0,0.27239203453063965,1.7203187942504883,0.33998173068355997,94.0,824.0,0.0
Y,R,"[6, 9]",1.0,5.0,0.3292970657348633,1.7729039192199707,0.34631023167232067,94.0,825.0,0.0
Y,R,"[6, 10]",1.0,6.0,0.27422118186950684,1.7438559532165527,0.35683280003947765,94.0,826.0,0.0
R,U,"[5, 10]",1.0,7.0,0.2687699794769287,1.8674302101135254,0.5074706686566128,94.0,827.0,0.0
R,U,"[4, 10]",1.0,8.0,0.23728203773498535,1.735548973083496,0.376475672126202,94.0,828.0,0.0
B,L,"[4, 9]",1.0,9.0,0.29590487480163574,1.887765884399414,0.4976259614596087,94.0,829.0,0.0
R,U,"[3, 9]",1.0,10.0,0.23495697975158691,1.8852250576019287,0.5492912660810088,94.0,830.0,0.0
,,"(6, 6)",,,,,,,,
R,U,"[5, 6]",1.0,1.0,0.3705620765686035,2.7276430130004883,0.2941352519973593,95.0,831.0,0.0
Y,R,"[5, 7]",1.0,2.0,0.22627902030944824,1.8947718143463135,0.5720073395193208,95.0,832.0,0.0
Y,R,"[5, 8]",1.0,3.0,0.21625304222106934,1.5785369873046875,0.26746892589514654,95.0,833.0,0.0
G,D,"[6, 8]",1.0,4.0,0.190385103225708,1.6693358421325684,0.3700315728798661,95.0,834.0,0.0
Y,R,"[6, 9]",1.0,5.0,0.2671780586242676,1.9014909267425537,0.5381381681686699,95.0,835.0,0.0
Y,R,"[6, 10]",1.0,6.0,0.19237494468688965,1.5835239887237549,0.2886308086783602,95.0,836.0,0.0
R,U,"[5, 10]",1.0,7.0,0.260051965713501,1.8079121112823486,0.44644876050849824,95.0,837.0,0.0
R,U,"[4, 10]",1.0,8.0,0.20140385627746582,1.668990135192871,0.36569853562246696,95.0,838.0,0.0
B,L,"[4, 9]",1.0,9.0,0.2688279151916504,1.6454780101776123,0.2778406743584055,95.0,839.0,0.0
R,U,"[3, 9]",1.0,10.0,0.2764589786529541,1.9957959651947021,0.6233465828389749,95.0,840.0,0.0
,,"(6, 6)",,,,,,,,
R,U,"[5, 6]",-999.0,0.0,0.2651069164276123,3.0727031230926514,0.7128570047085855,96.0,841.0,-4.0
Y,R,"[5, 7]",-999.0,0.0,0.29668211936950684,1.736001968383789,0.33241734179842003,96.0,842.0,-4.0
Y,R,"[5, 8]",-999.0,0.0,0.2970848083496094,1.8829388618469238,0.48207527546158024,96.0,843.0,-4.0
G,D,"[6, 8]",-999.0,0.0,0.39699506759643555,2.163878917694092,0.6626252244361597,96.0,844.0,-4.0
Y,R,"[6, 9]",-999.0,0.0,0.29524898529052734,2.069272994995117,0.664867568006918,96.0,845.0,-4.0
Y,R,"[6, 10]",-999.0,0.0,0.2686619758605957,1.906135082244873,0.5381761038871645,96.0,846.0,-4.0
R,U,"[5, 10]",-999.0,0.0,0.32097816467285156,2.076097011566162,0.6642716882859158,96.0,847.0,-4.0
R,U,"[4, 10]",-999.0,0.0,0.26661014556884766,2.1140668392181396,0.7447987841038306,96.0,848.0,-4.0
R,U,"[3, 10]",-999.0,0.0,0.256519079208374,1.626863956451416,0.289052079492073,96.0,849.0,-4.0
R,U,"[2, 10]",-999.0,0.0,0.48210906982421875,1.946038007736206,0.3683209972877448,96.0,850.0,1.0
,,"(6, 6)",,,,,,,,
G,D,"[2, 10]",-999.0,0.0,0.7207231521606445,2.6290369033813477,0.38068739780463623,97.0,851.0,-5.0
G,D,"[2, 10]",-999.0,0.0,0.25799012184143066,1.866178035736084,0.5134825229281781,97.0,852.0,-5.0
G,D,"[2, 10]",-999.0,0.0,0.23545098304748535,1.7615830898284912,0.4252830081631259,97.0,853.0,-5.0
B,L,"[2, 10]",-999.0,0.0,0.500507116317749,2.336688995361328,0.7449702079090323,97.0,854.0,-5.0
B,L,"[2, 10]",-999.0,0.0,0.2301158905029297,1.9105899333953857,0.5892917535033395,97.0,855.0,-5.0
R,U,"[2, 10]",-999.0,0.0,0.33048295974731445,1.9390699863433838,0.5116410603815538,97.0,856.0,-5.0
R,U,"[2, 10]",-999.0,0.0,0.4292161464691162,1.9993560314178467,0.4777511423604645,97.0,857.0,-5.0
B,L,"[2, 10]",-999.0,0.0,0.3415060043334961,2.1095190048217773,0.6872303764797695,97.0,858.0,-5.0
B,L,"[2, 10]",-999.0,0.0,0.23673081398010254,1.9555749893188477,0.6262721202254099,97.0,859.0,-5.0
R,U,"[1, 10]",-999.0,0.0,0.35990214347839355,1.9001939296722412,0.4432667662135112,97.0,860.0,1.0
,,"(6, 6)",,,,,,,,
G,D,"[1, 10]",-999.0,0.0,0.4714829921722412,2.405241012573242,0.36536644652340655,98.0,861.0,-5.0
G,D,"[1, 10]",-999.0,0.0,0.24148893356323242,1.6288199424743652,0.29422461580798714,98.0,862.0,-5.0
G,D,"[1, 10]",-999.0,0.0,0.2602260112762451,1.6218898296356201,0.26627281479467046,98.0,863.0,-5.0
B,L,"[1, 10]",-999.0,0.0,0.27257394790649414,1.8275420665740967,0.46041162173409,98.0,864.0,-5.0
B,L,"[1, 10]",-999.0,0.0,0.23491978645324707,1.7970480918884277,0.4738258180999833,98.0,865.0,-5.0
R,U,"[1, 10]",-999.0,0.0,0.353010892868042,1.8532161712646484,0.4106735833461417,98.0,866.0,-5.0
R,U,"[1, 10]",-999.0,0.0,0.23798704147338867,1.919835090637207,0.5971591465341878,98.0,867.0,-5.0
B,L,"[1, 10]",-999.0,0.0,0.5687949657440186,2.2163100242614746,0.5467844456734043,98.0,868.0,-5.0
B,L,"[1, 10]",-999.0,0.0,0.3302271366119385,1.9200119972229004,0.483654265292011,98.0,869.0,-5.0
R,U,"[0, 10]",-999.0,0.0,0.5325729846954346,2.2846641540527344,0.6514924565129149,98.0,870.0,1.0
,,"(6, 6)",,,,,,,,
G,D,"[0, 10]",-999.0,0.0,0.4655020236968994,2.74731707572937,0.3324685956422116,99.0,871.0,-5.0
G,D,"[0, 10]",-999.0,0.0,0.24852204322814941,2.059542179107666,0.7078687752165314,99.0,872.0,-5.0
G,D,"[0, 10]",-999.0,0.0,0.2773611545562744,1.9149179458618164,0.5403927481767195,99.0,873.0,-5.0
B,L,"[0, 10]",-999.0,0.0,0.29785704612731934,1.9714789390563965,0.5785002646506718,99.0,874.0,-5.0
B,L,"[0, 10]",-999.0,0.0,0.2201528549194336,1.7210309505462646,0.41643550683167424,99.0,875.0,-5.0
R,U,"[0, 10]",-999.0,0.0,0.30981898307800293,1.8778390884399414,0.4608828903913752,99.0,876.0,-5.0
R,U,"[0, 10]",-999.0,0.0,0.2516481876373291,1.7582309246063232,0.41932467124721234,99.0,877.0,-5.0
B,L,"[0, 10]",-999.0,0.0,0.46776509284973145,2.184187173843384,0.6198335989576654,99.0,878.0,-5.0
B,L,"[0, 10]",-999.0,0.0,0.21454310417175293,2.0024991035461426,0.6891196435154562,99.0,879.0,-5.0
R,U,"[0, 10]",-999.0,0.0,0.4565601348876953,1.9005789756774902,0.34010463711649513,99.0,880.0,1.0
,,"(6, 6)",,,,,,,,
R,U,"[5, 6]",1.0,1.0,0.3396611213684082,2.4332480430603027,0.3732697766381414,100.0,881.0,0.0
Y,R,"[5, 7]",1.0,2.0,0.2813739776611328,1.789113998413086,0.4125151035135389,100.0,882.0,0.0
Y,R,"[5, 8]",1.0,3.0,0.26118898391723633,1.9081509113311768,0.5538781791963543,100.0,883.0,0.0
G,D,"[6, 8]",1.0,4.0,0.23394393920898438,1.8977179527282715,0.5687234034953507,100.0,884.0,0.0
Y,R,"[6, 9]",1.0,5.0,0.21572089195251465,1.9162111282348633,0.6014787602572693,100.0,885.0,0.0
Y,R,"[6, 10]",1.0,6.0,0.23205804824829102,1.6333699226379395,0.30159784424787267,100.0,886.0,0.0
R,U,"[5, 10]",1.0,7.0,0.3127131462097168,2.075078010559082,0.6600422270401245,100.0,887.0,0.0
R,U,"[4, 10]",1.0,8.0,0.2730250358581543,1.6320090293884277,0.2588919702681572,100.0,888.0,0.0
B,L,"[4, 9]",1.0,9.0,0.2881441116333008,1.8823790550231934,0.4910661448562984,100.0,889.0,0.0
R,U,"[3, 9]",1.0,10.0,0.2665259838104248,1.7070600986480713,0.3482392422744937,100.0,890.0,0.0
,,"(6, 6)",,,,,,,,
R,U,"[5, 6]",1.0,1.0,0.32912206649780273,3.2628960609436035,0.5110511324589253,101.0,891.0,0.0
Y,R,"[5, 7]",1.0,2.0,0.2460770606994629,1.8631258010864258,0.5242387186089112,101.0,892.0,0.0
Y,R,"[5, 8]",1.0,3.0,0.21738696098327637,2.012454032897949,0.7034965727360545,101.0,893.0,0.0
G,D,"[6, 8]",1.0,4.0,0.2665839195251465,1.8505640029907227,0.4875171262655056,101.0,894.0,0.0
Y,R,"[6, 9]",1.0,5.0,0.2665121555328369,1.8749408721923828,0.5125069378265896,101.0,895.0,0.0
Y,R,"[6, 10]",1.0,6.0,0.2518939971923828,1.840656042098999,0.4865377605948102,101.0,896.0,0.0
R,U,"[5, 10]",1.0,7.0,0.26131296157836914,1.6915719509124756,0.328275345774654,101.0,897.0,0.0
R,U,"[4, 10]",1.0,8.0,0.28609704971313477,1.7394320964813232,0.36778672738776796,101.0,898.0,0.0
B,L,"[4, 9]",1.0,9.0,0.2670431137084961,2.091015100479126,0.725096907850159,101.0,899.0,0.0
R,U,"[3, 9]",1.0,10.0,0.25379014015197754,1.7003591060638428,0.35926915822261873,101.0,900.0,0.0
,,"(6, 6)",,,,,,,,
R,U,"[5, 6]",1.0,1.0,0.29619288444519043,2.1481311321258545,0.374118961423635,102.0,901.0,0.0
Y,R,"[5, 7]",1.0,2.0,0.2438969612121582,1.7718861103057861,0.4292572666495422,102.0,902.0,0.0
Y,R,"[5, 8]",1.0,3.0,0.26862597465515137,1.7538471221923828,0.383266140467309,102.0,903.0,0.0
G,D,"[6, 8]",1.0,4.0,0.3466918468475342,1.7102811336517334,0.2602788690043056,102.0,904.0,0.0
Y,R,"[6, 9]",1.0,5.0,0.26277899742126465,1.8105449676513672,0.4539747299209012,102.0,905.0,0.0
Y,R,"[6, 10]",1.0,6.0,0.23503494262695312,1.6064260005950928,0.2773409747217283,102.0,906.0,0.0
R,U,"[5, 10]",1.0,7.0,0.261185884475708,1.9002299308776855,0.543982076468497,102.0,907.0,0.0
R,U,"[4, 10]",1.0,8.0,0.22231292724609375,1.5957632064819336,0.2735568611147576,102.0,908.0,0.0
B,L,"[4, 9]",1.0,9.0,0.29324913024902344,2.096496105194092,0.7033237811297084,102.0,909.0,0.0
R,U,"[3, 9]",1.0,10.0,0.25757908821105957,2.0373620986938477,0.6736225427458351,102.0,910.0,0.0
,,"(6, 6)",,,,,,,,
R,U,"[5, 6]",1.0,1.0,0.33611106872558594,2.3512730598449707,0.4420743477674392,103.0,911.0,0.0
Y,R,"[5, 7]",1.0,2.0,0.22219395637512207,1.581192970275879,0.2565992790941447,103.0,912.0,0.0
Y,R,"[5, 8]",1.0,3.0,0.27189207077026367,1.9013981819152832,0.5245473315836664,103.0,913.0,0.0
G,D,"[6, 8]",1.0,4.0,0.24502110481262207,1.8617339134216309,0.5197904776338926,103.0,914.0,0.0
Y,R,"[6, 9]",1.0,5.0,0.26553916931152344,1.898164987564087,0.5345664750006593,103.0,915.0,0.0
Y,R,"[6, 10]",1.0,6.0,0.25054311752319336,1.8217740058898926,0.4732555201759123,103.0,916.0,0.0
R,U,"[5, 10]",1.0,7.0,0.26187801361083984,1.8834810256958008,0.5231067230056651,103.0,917.0,0.0
R,U,"[4, 10]",1.0,8.0,0.2746012210845947,1.9303300380706787,0.5533105561484988,103.0,918.0,0.0
B,L,"[4, 9]",1.0,9.0,0.2782719135284424,2.1163768768310547,0.7361285112225027,103.0,919.0,0.0
R,U,"[3, 9]",1.0,10.0,0.269028902053833,1.909492015838623,0.5456373223287286,103.0,920.0,0.0
,,"(6, 6)",,,,,,,,
R,U,"[5, 6]",1.0,1.0,0.33359694480895996,2.317362070083618,0.29665699896512204,104.0,921.0,0.0
Y,R,"[5, 7]",1.0,2.0,0.2678539752960205,1.6807270050048828,0.3106533115290083,104.0,922.0,0.0
Y,R,"[5, 8]",1.0,3.0,0.23479485511779785,1.8537449836730957,0.5306290668179839,104.0,923.0,0.0
G,D,"[6, 8]",1.0,4.0,0.2613201141357422,1.7051920890808105,0.33609899043945324,104.0,924.0,0.0
Y,R,"[6, 9]",1.0,5.0,0.2922511100769043,1.910027027130127,0.5124035862770017,104.0,925.0,0.0
Y,R,"[6, 10]",1.0,6.0,0.2483980655670166,1.7135090827941895,0.3759956467991909,104.0,926.0,0.0
R,U,"[5, 10]",1.0,7.0,0.30605506896972656,2.0405991077423096,0.6329441983399293,104.0,927.0,0.0
R,U,"[4, 10]",1.0,8.0,0.24885106086730957,1.683109998703003,0.33294581663142697,104.0,928.0,0.0
B,L,"[4, 9]",1.0,9.0,0.3778209686279297,2.023221969604492,0.5392794385797324,104.0,929.0,0.0
R,U,"[3, 9]",1.0,10.0,0.24924802780151367,1.744399070739746,0.40044556396928227,104.0,930.0,0.0
,,"(6, 6)",,,,,,,,
R,U,"[5, 6]",1.0,1.0,0.3196449279785156,2.224348783493042,0.34146097357577976,105.0,931.0,0.0
Y,R,"[5, 7]",1.0,2.0,0.2606008052825928,2.097446918487549,0.7382863983056698,105.0,932.0,0.0
Y,R,"[5, 8]",1.0,3.0,0.22949504852294922,1.788083791732788,0.45992386444030253,105.0,933.0,0.0
G,D,"[6, 8]",1.0,4.0,0.28919506072998047,1.7427160739898682,0.3527980418222716,105.0,934.0,0.0
Y,R,"[6, 9]",1.0,5.0,0.3084120750427246,2.0748889446258545,0.6605301273292798,105.0,935.0,0.0
Y,R,"[6, 10]",1.0,6.0,0.263869047164917,1.9152100086212158,0.5591066022592082,105.0,936.0,0.0
R,U,"[5, 10]",1.0,7.0,0.2892429828643799,1.96232008934021,0.5712225217905462,105.0,937.0,0.0
R,U,"[4, 10]",1.0,8.0,0.26001501083374023,1.63682222366333,0.27476508305713027,105.0,938.0,0.0
B,L,"[4, 9]",1.0,9.0,0.29221391677856445,2.1374998092651367,0.7453584639016602,105.0,939.0,0.0
R,U,"[3, 9]",1.0,10.0,0.22697710990905762,1.9813101291656494,0.6600415202573005,105.0,940.0,0.0
,,"(6, 6)",,,,,,,,
R,U,"[5, 6]",1.0,1.0,0.3253798484802246,2.512773036956787,0.6390649322117794,106.0,941.0,0.0
Y,R,"[5, 7]",1.0,2.0,0.19306492805480957,2.0255510807037354,0.7314833966052625,106.0,942.0,0.0
Y,R,"[5, 8]",1.0,3.0,0.25997209548950195,1.7147819995880127,0.3463912089302409,106.0,943.0,0.0
G,D,"[6, 8]",1.0,4.0,0.24742388725280762,1.8517060279846191,0.498098627874261,106.0,944.0,0.0
Y,R,"[6, 9]",1.0,5.0,0.21227288246154785,1.7780241966247559,0.4594533600397402,106.0,945.0,0.0
Y,R,"[6, 10]",1.0,6.0,0.28464293479919434,2.0156099796295166,0.6414472591269111,106.0,946.0,0.0
R,U,"[5, 10]",1.0,7.0,0.20316505432128906,1.7950048446655273,0.5031561618374152,106.0,947.0,0.0
R,U,"[4, 10]",1.0,8.0,0.2322859764099121,1.8900809288024902,0.5597504326661895,106.0,948.0,0.0
B,L,"[4, 9]",1.0,9.0,0.2698550224304199,1.803790807723999,0.4468978366255716,106.0,949.0,0.0
R,U,"[3, 9]",1.0,10.0,0.28739213943481445,2.0848729610443115,0.6980624159544686,106.0,950.0,0.0
,,"(6, 6)",,,,,,,,
R,U,"[5, 6]",1.0,1.0,0.26313304901123047,2.6385810375213623,0.7200660206674709,107.0,951.0,0.0
Y,R,"[5, 7]",1.0,2.0,0.24554681777954102,1.925572156906128,0.5789137483685386,107.0,952.0,0.0
Y,R,"[5, 8]",1.0,3.0,0.27115416526794434,1.8613619804382324,0.5070490227926334,107.0,953.0,0.0
G,D,"[6, 8]",1.0,4.0,0.254626989364624,1.913891077041626,0.5708141985464497,107.0,954.0,0.0
Y,R,"[6, 9]",1.0,5.0,0.3015260696411133,1.7554428577423096,0.3597278898033081,107.0,955.0,0.0
Y,R,"[6, 10]",1.0,6.0,0.26918911933898926,1.8177738189697266,0.46051969871206166,107.0,956.0,0.0
R,U,"[5, 10]",1.0,7.0,0.27842211723327637,1.9544920921325684,0.5815704276205327,107.0,957.0,0.0
R,U,"[4, 10]",1.0,8.0,0.23077607154846191,1.9363319873809814,0.6011419433751098,107.0,958.0,0.0
B,L,"[4, 9]",1.0,9.0,0.24056100845336914,1.9798691272735596,0.6308350186552928,107.0,959.0,0.0
R,U,"[3, 9]",1.0,10.0,0.22243499755859375,1.9133319854736328,0.5775583773141757,107.0,960.0,0.0
,,"(6, 6)",,,,,,,,
R,U,"[5, 6]",1.0,1.0,0.2775089740753174,2.598464012145996,0.34314471780498845,108.0,961.0,0.0
Y,R,"[5, 7]",1.0,2.0,0.26453208923339844,1.9235949516296387,0.5660958544151167,108.0,962.0,0.0
Y,R,"[5, 8]",1.0,3.0,0.2302401065826416,1.589414119720459,0.25580481248065573,108.0,963.0,0.0
G,D,"[6, 8]",1.0,4.0,0.2538111209869385,1.9551210403442383,0.5938874745675138,108.0,964.0,0.0
Y,R,"[6, 9]",1.0,5.0,0.24387407302856445,1.9177401065826416,0.5782236593314689,108.0,965.0,0.0
Y,R,"[6, 10]",1.0,6.0,0.2644069194793701,1.6061429977416992,0.2512208117981294,108.0,966.0,0.0
R,U,"[5, 10]",1.0,7.0,0.2527198791503906,1.819169044494629,0.4703076907216019,108.0,967.0,0.0
R,U,"[4, 10]",1.0,8.0,0.2318270206451416,1.697256088256836,0.367323789613354,108.0,968.0,0.0
B,L,"[4, 9]",1.0,9.0,0.29014086723327637,2.049795150756836,0.650290941620406,108.0,969.0,0.0
R,U,"[3, 9]",1.0,10.0,0.26935696601867676,1.9813461303710938,0.614857833312473,108.0,970.0,0.0
,,"(6, 6)",,,,,,,,
R,U,"[5, 6]",1.0,1.0,0.3506290912628174,2.792217969894409,0.5739085954403906,109.0,971.0,0.0
Y,R,"[5, 7]",1.0,2.0,0.17667412757873535,1.6972548961639404,0.4212431067088413,109.0,972.0,0.0
Y,R,"[5, 8]",1.0,3.0,0.27156996726989746,2.06278395652771,0.6837061338955113,109.0,973.0,0.0
G,D,"[6, 8]",1.0,4.0,0.20713186264038086,1.9168360233306885,0.6004942727217524,109.0,974.0,0.0
Y,R,"[6, 9]",1.0,5.0,0.20951008796691895,1.994894027709961,0.6785872157469609,109.0,975.0,0.0
Y,R,"[6, 10]",1.0,6.0,0.1774129867553711,2.020416021347046,0.748771186745542,109.0,976.0,0.0
R,U,"[5, 10]",1.0,7.0,0.23600196838378906,1.7373170852661133,0.4033382619969694,109.0,977.0,0.0
R,U,"[4, 10]",1.0,8.0,0.22507500648498535,1.995380163192749,0.6649579696017991,109.0,978.0,0.0
B,L,"[4, 9]",1.0,9.0,0.25979113578796387,2.007117986679077,0.6384462314355313,109.0,979.0,0.0
R,U,"[3, 9]",1.0,10.0,0.23885607719421387,1.9534101486206055,0.6086539018897275,109.0,980.0,0.0
,,"(6, 6)",,,,,,,,
R,U,"[5, 6]",1.0,1.0,0.21509790420532227,2.121206045150757,0.4299340386646308,110.0,981.0,0.0
Y,R,"[5, 7]",1.0,2.0,0.2646770477294922,1.917292833328247,0.5471910931338889,110.0,982.0,0.0
Y,R,"[5, 8]",1.0,3.0,0.22423410415649414,1.927112102508545,0.5908701034915294,110.0,983.0,0.0
G,D,"[6, 8]",1.0,4.0,0.25943708419799805,1.960571050643921,0.6012638763339979,110.0,984.0,0.0
Y,R,"[6, 9]",1.0,5.0,0.26888298988342285,2.0683560371398926,0.7028687157334496,110.0,985.0,0.0
Y,R,"[6, 10]",1.0,6.0,0.23411893844604492,1.8066182136535645,0.47634418732920797,110.0,986.0,0.0
R,U,"[5, 10]",1.0,7.0,0.2873270511627197,1.7665269374847412,0.392881328743668,110.0,987.0,0.0
R,U,"[4, 10]",1.0,8.0,0.2739229202270508,2.007766008377075,0.6336266365500749,110.0,988.0,0.0
B,L,"[4, 9]",1.0,9.0,0.24422597885131836,1.823436975479126,0.4739276267256421,110.0,989.0,0.0
R,U,"[3, 9]",1.0,10.0,0.2965528964996338,1.842993974685669,0.4502182583949701,110.0,990.0,0.0
,,"(6, 6)",,,,,,,,
R,U,"[5, 6]",1.0,1.0,0.33149194717407227,3.815232038497925,0.7484612189614914,111.0,991.0,0.0
Y,R,"[5, 7]",1.0,2.0,0.2581369876861572,1.9632689952850342,0.5948444680398595,111.0,992.0,0.0
Y,R,"[5, 8]",1.0,3.0,0.23227214813232422,2.023930072784424,0.7022020162305558,111.0,993.0,0.0
G,D,"[6, 8]",1.0,4.0,0.22980213165283203,1.8085041046142578,0.47745234685100874,111.0,994.0,0.0
Y,R,"[6, 9]",1.0,5.0,0.25293707847595215,1.6458699703216553,0.30686330665832856,111.0,995.0,0.0
Y,R,"[6, 10]",1.0,6.0,0.29094791412353516,1.7330780029296875,0.33980334492007863,111.0,996.0,0.0
R,U,"[5, 10]",1.0,7.0,0.27174901962280273,1.980468988418579,0.603240054411425,111.0,997.0,0.0
R,U,"[4, 10]",1.0,8.0,0.23610401153564453,1.6701409816741943,0.3403725397234309,111.0,998.0,0.0
B,L,"[4, 9]",1.0,9.0,0.2777528762817383,1.834460973739624,0.4580226229803521,111.0,999.0,0.0
R,U,"[3, 9]",1.0,10.0,0.2435770034790039,1.6034810543060303,0.26167461447070883,111.0,1000.0,0.0
