button_choice,action_choice,coordinate_choice,reward,cumulative_reward,rt,total_trial_time,iti,block_n,trial_n,trial_type
B,L,"[6, 5]",-2.0,0.0,1.7949609756469727,3.5401358604431152,0.707226078528677,0.0,1.0,0.0
Y,R,"[6, 6]",0.0,0.0,0.5823371410369873,2.0235018730163574,0.4309467817031436,0.0,2.0,0.0
Y,R,"[6, 7]",0.0,0.0,0.8115921020507812,2.174311876296997,0.35533840426192076,0.0,3.0,0.0
Y,R,"[6, 8]",1.0,1.0,0.5899429321289062,2.021826982498169,0.427262953205825,0.0,4.0,0.0
Y,R,"[6, 9]",1.0,2.0,0.7543740272521973,2.2287161350250244,0.472527789539312,0.0,5.0,0.0
Y,R,"[6, 10]",1.0,3.0,0.5862059593200684,1.9184350967407227,0.32445830635305956,0.0,6.0,0.0
R,U,"[5, 10]",1.0,4.0,0.9254820346832275,2.6195850372314453,0.6937456013069307,0.0,7.0,0.0
R,U,"[4, 10]",1.0,5.0,0.6241278648376465,1.940716028213501,0.31820235625545495,0.0,8.0,0.0
R,U,"[3, 10]",0.0,5.0,0.7224030494689941,2.4496920108795166,0.717969868759313,0.0,9.0,0.0
Y,R,"[3, 11]",0.0,5.0,0.5121490955352783,2.0482420921325684,0.5327374009034083,0.0,10.0,0.0
,,"(6, 6)",,,,,,0.0,,
Y,R,"[6, 7]",0.0,0.0,0.940762996673584,5.891532897949219,0.30819077434857134,,11.0,0.0
R,U,"[5, 7]",1.0,1.0,0.3791470527648926,1.9808568954467773,0.6052080035074285,1.0,12.0,0.0
R,U,"[4, 7]",0.0,1.0,0.5948491096496582,2.052180051803589,0.45763429362427416,1.0,13.0,0.0
Y,R,"[4, 8]",0.0,1.0,0.3098881244659424,1.9426929950714111,0.6334339558702136,1.0,14.0,0.0
G,D,"[5, 8]",1.0,2.0,0.4158918857574463,2.0358481407165527,0.6196080579100995,1.0,15.0,0.0
B,L,"[5, 7]",0.0,2.0,0.42577600479125977,2.0467751026153564,0.6162667181848975,1.0,16.0,0.0
R,U,"[4, 7]",0.0,2.0,0.4197218418121338,2.0604920387268066,0.626885872832253,1.0,17.0,0.0
G,D,"[5, 7]",0.0,2.0,0.6778438091278076,2.152435064315796,0.47926857295099656,1.0,18.0,0.0
G,D,"[6, 7]",0.0,2.0,0.5420951843261719,2.0544698238372803,0.5003308920210314,1.0,19.0,0.0
Y,R,"[6, 8]",1.0,3.0,0.9374010562896729,2.300359010696411,0.35102892320461293,1.0,20.0,0.0
,,"(6, 6)",,,,,,1.0,,
Y,R,"[6, 7]",0.0,0.0,0.5189731121063232,4.022010087966919,0.5228789990977358,,21.0,0.0
Y,R,"[6, 8]",1.0,1.0,0.929858922958374,2.511737108230591,0.5844954029449392,2.0,22.0,0.0
Y,R,"[6, 9]",1.0,2.0,0.5373120307922363,2.1816229820251465,0.6327810673522402,2.0,23.0,0.0
Y,R,"[6, 10]",-2.0,2.0,1.0311849117279053,2.5844779014587402,0.5173789635270101,2.0,24.0,0.0
Y,R,"[6, 11]",0.0,2.0,0.41622304916381836,2.1016149520874023,0.6855987442635477,2.0,25.0,0.0
R,U,"[5, 11]",0.0,2.0,0.37878894805908203,1.6413211822509766,0.2607661293490885,2.0,26.0,0.0
R,U,"[4, 11]",0.0,2.0,0.41840600967407227,1.6582159996032715,0.2525363184999482,2.0,27.0,0.0
G,D,"[5, 11]",0.0,2.0,0.3329179286956787,1.927659034729004,0.5961471653982221,2.0,28.0,0.0
B,L,"[5, 10]",-1.0,2.0,0.09883904457092285,5.741141080856323,0.4876709969707895,2.0,29.0,0.0
G,D,"[6, 10]",0.0,2.0,0.3038899898529053,1.911458969116211,0.5992385686012938,2.0,30.0,0.0
,,"(6, 6)",,,,,,2.0,,
Y,R,"[6, 7]",0.0,0.0,0.5460078716278076,4.021942138671875,0.3215009359403448,,31.0,0.0
R,U,"[5, 7]",1.0,1.0,0.7612791061401367,2.2326431274414062,0.4706927194417117,3.0,32.0,0.0
R,U,"[4, 7]",0.0,1.0,0.7198400497436523,2.4276649951934814,0.6981060779205901,3.0,33.0,0.0
Y,R,"[4, 8]",0.0,1.0,0.4569258689880371,2.048275947570801,0.5798698135116324,3.0,34.0,0.0
B,L,"[4, 7]",0.0,1.0,0.36295199394226074,1.7475929260253906,0.3776181902290239,3.0,35.0,0.0
G,D,"[5, 7]",0.0,1.0,0.2476809024810791,1.5834789276123047,0.344659358286656,3.0,36.0,0.0
G,D,"[6, 7]",0.0,1.0,0.2563591003417969,1.5736958980560303,0.3183140987310569,3.0,37.0,0.0
G,D,"[7, 7]",0.0,1.0,0.8843939304351807,2.448276996612549,0.5661205713598745,3.0,38.0,0.0
B,L,"[7, 6]",0.0,1.0,0.4221367835998535,2.162766933441162,0.7288698305596211,3.0,39.0,0.0
G,D,"[8, 6]",0.0,1.0,0.21485614776611328,1.8314449787139893,0.6105586057665686,3.0,40.0,0.0
,,"(6, 6)",,,,,,3.0,,
B,L,"[6, 5]",0.0,0.0,0.6925020217895508,3.169520854949951,0.6134227324011798,,41.0,0.0
G,D,"[7, 5]",0.0,0.0,0.4626450538635254,1.7313048839569092,0.2618441821363249,4.0,42.0,0.0
R,U,"[6, 5]",0.0,0.0,0.5951368808746338,2.0413599014282227,0.45303259394557144,4.0,43.0,0.0
R,U,"[5, 5]",0.0,0.0,0.2881479263305664,2.041749954223633,0.7445017438872101,4.0,44.0,0.0
R,U,"[4, 5]",0.0,0.0,0.3059990406036377,2.027434825897217,0.7220487392530294,4.0,45.0,0.0
Y,R,"[4, 6]",0.0,0.0,0.3827369213104248,1.8570048809051514,0.4790988767654881,4.0,46.0,0.0
Y,R,"[4, 7]",0.0,0.0,0.34495997428894043,1.891577959060669,0.5375090383929122,4.0,47.0,0.0
Y,R,"[4, 8]",0.0,0.0,0.14257097244262695,1.5555942058563232,0.40983805625902126,4.0,48.0,0.0
Y,R,"[4, 9]",1.0,1.0,0.71197509765625,2.405147075653076,0.6981676391844094,4.0,49.0,0.0
Y,R,"[4, 10]",1.0,2.0,0.4123668670654297,1.830157995223999,0.4119068808128993,4.0,50.0,0.0
,,"(6, 6)",,,,,,4.0,,
R,U,"[5, 6]",1.0,1.0,0.8749630451202393,4.123776197433472,0.7023636229448342,,51.0,0.0
Y,R,"[5, 7]",1.0,2.0,0.3744819164276123,1.810302972793579,0.42946290756314076,5.0,52.0,0.0
Y,R,"[5, 8]",1.0,3.0,0.44484901428222656,2.0506818294525146,0.5965828453675435,5.0,53.0,0.0
Y,R,"[5, 9]",0.0,3.0,0.3548128604888916,1.825834035873413,0.45576437644921025,5.0,54.0,0.0
Y,R,"[5, 10]",1.0,4.0,0.9083571434020996,2.4817252159118652,0.5709902878901918,5.0,55.0,0.0
Y,R,"[5, 11]",0.0,4.0,0.64727783203125,2.216240882873535,0.5706213846434819,5.0,56.0,0.0
R,U,"[4, 11]",0.0,4.0,0.3325178623199463,2.0175559520721436,0.6880084935102316,5.0,57.0,0.0
G,D,"[5, 11]",0.0,4.0,0.2741210460662842,1.6733570098876953,0.3950915202725889,5.0,58.0,0.0
R,U,"[4, 11]",0.0,4.0,0.6034090518951416,2.099186897277832,0.4941418192548371,5.0,59.0,0.0
R,U,"[3, 11]",0.0,4.0,0.22248601913452148,1.7475988864898682,0.5253320435849163,5.0,60.0,0.0
,,"(6, 6)",,,,,,5.0,,
R,U,"[5, 6]",1.0,1.0,0.727262020111084,2.971604108810425,0.6299733089402197,,61.0,0.0
Y,R,"[5, 7]",1.0,2.0,0.3384099006652832,1.9438090324401855,0.5905141217510961,6.0,62.0,0.0
Y,R,"[5, 8]",1.0,3.0,0.4318709373474121,1.8128869533538818,0.3703966454466076,6.0,63.0,0.0
R,U,"[4, 8]",0.0,3.0,0.28829216957092285,1.7281320095062256,0.4319638927434223,6.0,64.0,0.0
Y,R,"[4, 9]",1.0,4.0,0.6811380386352539,2.258173942565918,0.5730725575056755,6.0,65.0,0.0
Y,R,"[4, 10]",1.0,5.0,0.28800511360168457,1.914518117904663,0.6209458075556279,6.0,66.0,0.0
Y,R,"[4, 11]",0.0,5.0,0.28354310989379883,1.5802969932556152,0.30145067405525355,6.0,67.0,0.0
B,L,"[4, 10]",0.0,5.0,0.41115307807922363,1.857269048690796,0.4421103899439705,6.0,68.0,0.0
B,L,"[4, 9]",0.0,5.0,0.474200963973999,1.7965381145477295,0.3221122653549939,6.0,69.0,0.0
B,L,"[4, 8]",0.0,5.0,0.48628997802734375,2.1218230724334717,0.6268177264423508,6.0,70.0,0.0
,,"(6, 6)",,,,,,6.0,,
R,U,"[5, 6]",1.0,1.0,0.906296968460083,2.9370689392089844,0.3144046218938007,,71.0,0.0
Y,R,"[5, 7]",1.0,2.0,0.3049161434173584,1.8195838928222656,0.5004935153837784,7.0,72.0,0.0
Y,R,"[5, 8]",1.0,3.0,0.18927979469299316,1.7885749340057373,0.5890338821991754,7.0,73.0,0.0
B,L,"[5, 7]",-2.0,3.0,1.1379890441894531,2.610316038131714,0.4327519206787753,7.0,74.0,0.0
B,L,"[5, 6]",0.0,3.0,0.4073469638824463,2.0433290004730225,0.6259223392945223,7.0,75.0,0.0
Y,R,"[5, 7]",0.0,3.0,0.5961160659790039,1.9968640804290771,0.4063710751295999,7.0,76.0,0.0
Y,R,"[5, 8]",0.0,3.0,0.34128713607788086,2.039246082305908,0.6953943753657978,7.0,77.0,0.0
R,U,"[4, 8]",0.0,3.0,0.28383302688598633,1.972594976425171,0.7014059021902324,7.0,78.0,0.0
R,U,"[3, 8]",0.0,3.0,0.24882197380065918,1.9650578498840332,0.7168559881293105,7.0,79.0,0.0
G,D,"[4, 8]",0.0,3.0,0.22684192657470703,1.5608189105987549,0.3277420451451285,7.0,80.0,0.0
,,"(6, 6)",,,,,,7.0,,
R,U,"[5, 6]",-2.0,0.0,1.306514024734497,4.3960700035095215,0.37367950194570587,,81.0,0.0
Y,R,"[5, 7]",1.0,1.0,0.3813810348510742,2.020766019821167,0.6442986889631761,8.0,82.0,0.0
Y,R,"[5, 8]",1.0,2.0,0.34277796745300293,1.9163448810577393,0.577488591854785,8.0,83.0,0.0
R,U,"[4, 8]",0.0,2.0,0.32743310928344727,1.858609914779663,0.5361423595756499,8.0,84.0,0.0
Y,R,"[4, 9]",1.0,3.0,0.3644218444824219,1.8834969997406006,0.5197800180644463,8.0,85.0,0.0
Y,R,"[4, 10]",1.0,4.0,0.24416399002075195,1.6630468368530273,0.41620764557472406,8.0,86.0,0.0
Y,R,"[4, 11]",0.0,4.0,0.26146793365478516,1.70216703414917,0.43507757329343044,8.0,87.0,0.0
R,U,"[3, 11]",0.0,4.0,0.835582971572876,2.315330982208252,0.48367363087262816,8.0,88.0,0.0
B,L,"[3, 10]",0.0,4.0,0.34192991256713867,2.0963149070739746,0.7465047003699128,8.0,89.0,0.0
B,L,"[3, 9]",1.0,5.0,0.2091660499572754,1.7201669216156006,0.5001981741461048,8.0,90.0,0.0
,,"(6, 6)",,,,,,8.0,,
R,U,"[5, 6]",1.0,1.0,0.7656879425048828,4.052937030792236,0.4367240403613872,,91.0,0.0
R,U,"[4, 6]",0.0,1.0,0.7116451263427734,2.2354838848114014,0.5225609856968786,9.0,92.0,0.0
Y,R,"[4, 7]",0.0,1.0,0.2723419666290283,1.7587370872497559,0.48079380594623244,9.0,93.0,0.0
Y,R,"[4, 8]",0.0,1.0,0.18293404579162598,1.7522130012512207,0.5665044270643261,9.0,94.0,0.0
Y,R,"[4, 9]",1.0,2.0,0.22490715980529785,1.9297900199890137,0.6961529172201708,9.0,95.0,0.0
Y,R,"[4, 10]",1.0,3.0,0.3243858814239502,1.9930098056793213,0.6557278953487158,9.0,96.0,0.0
Y,R,"[4, 11]",0.0,3.0,0.15326404571533203,1.6060791015625,0.4621398008103934,9.0,97.0,0.0
B,L,"[4, 10]",0.0,3.0,0.30255699157714844,1.96225905418396,0.6742726720367552,9.0,98.0,0.0
G,D,"[5, 10]",1.0,4.0,0.27187395095825195,1.9419870376586914,0.6660623804238609,9.0,99.0,0.0
G,D,"[6, 10]",1.0,5.0,0.4947030544281006,1.7987990379333496,0.29864874388468743,9.0,100.0,0.0
,,"(6, 6)",,,,,,9.0,,
R,U,"[5, 6]",1.0,1.0,0.5689449310302734,4.186385869979858,0.5016606844903009,,101.0,0.0
Y,R,"[5, 7]",1.0,2.0,0.3675870895385742,1.7434430122375488,0.361826049542788,10.0,102.0,0.0
Y,R,"[5, 8]",1.0,3.0,0.4002859592437744,1.9336450099945068,0.5286434365947374,10.0,103.0,0.0
G,D,"[6, 8]",1.0,4.0,0.4651000499725342,1.8898899555206299,0.4352867033242842,10.0,104.0,0.0
R,U,"[5, 8]",0.0,4.0,0.808081865310669,2.308695077896118,0.49413623501185383,10.0,105.0,0.0
Y,R,"[5, 9]",-1.0,4.0,0.09718894958496094,5.814388990402222,0.5917450751234188,10.0,106.0,0.0
Y,R,"[5, 10]",1.0,5.0,0.34302711486816406,2.0041019916534424,0.662553651350662,10.0,107.0,0.0
Y,R,"[5, 11]",0.0,5.0,0.26329803466796875,1.6304240226745605,0.3597667849947891,10.0,108.0,0.0
B,L,"[5, 10]",0.0,5.0,0.20267987251281738,1.9279749393463135,0.7375211744233352,10.0,109.0,0.0
G,D,"[6, 10]",1.0,6.0,0.1810929775238037,1.7671780586242676,0.5715611840702179,10.0,110.0,0.0
,,"(6, 6)",,,,,,10.0,,
R,U,"[5, 6]",1.0,1.0,0.5767860412597656,4.787088871002197,0.6585058413939966,,111.0,0.0
Y,R,"[5, 7]",1.0,2.0,0.3825070858001709,1.779928207397461,0.3889506796986838,11.0,112.0,0.0
Y,R,"[5, 8]",1.0,3.0,0.37513089179992676,1.6762609481811523,0.29865439501676416,11.0,113.0,0.0
Y,R,"[5, 9]",0.0,3.0,0.5870788097381592,2.032366991043091,0.430861195321603,11.0,114.0,0.0
Y,R,"[5, 10]",1.0,4.0,0.725762128829956,2.4372899532318115,0.7013021510314861,11.0,115.0,0.0
G,D,"[6, 10]",1.0,5.0,0.42226290702819824,2.0929908752441406,0.6610213305512871,11.0,116.0,0.0
G,D,"[7, 10]",0.0,5.0,0.3562490940093994,2.0136239528656006,0.6579269810426647,11.0,117.0,0.0
B,L,"[7, 9]",0.0,5.0,0.8634300231933594,2.476308822631836,0.6177130096976122,11.0,118.0,0.0
Y,R,"[7, 10]",0.0,5.0,0.2442770004272461,1.927562952041626,0.6784059719311256,11.0,119.0,0.0
Y,R,"[7, 11]",0.0,5.0,0.6778140068054199,2.265498161315918,0.5941370412464655,11.0,120.0,0.0
,,"(6, 6)",,,,,,11.0,,
R,U,"[5, 6]",1.0,1.0,0.5252361297607422,2.3689351081848145,0.2967984242467594,,121.0,0.0
Y,R,"[5, 7]",1.0,2.0,0.3957540988922119,1.6793150901794434,0.27608856891942174,12.0,122.0,0.0
Y,R,"[5, 8]",1.0,3.0,0.29213500022888184,1.7165100574493408,0.42582085999820946,12.0,123.0,0.0
R,U,"[4, 8]",0.0,3.0,0.4455528259277344,2.1593289375305176,0.7182339348060948,12.0,124.0,0.0
Y,R,"[4, 9]",1.0,4.0,0.41897010803222656,1.888671875,0.47399303148920674,12.0,125.0,0.0
Y,R,"[4, 10]",1.0,5.0,0.38170409202575684,1.7043910026550293,0.3119043036325985,12.0,126.0,0.0
Y,R,"[4, 11]",0.0,5.0,0.5916788578033447,2.1546709537506104,0.5664933855716601,12.0,127.0,0.0
G,D,"[5, 11]",0.0,5.0,0.268449068069458,1.7228419780731201,0.4393865509173744,12.0,128.0,0.0
G,D,"[6, 11]",0.0,5.0,0.2984659671783447,1.8310401439666748,0.5369797848916118,12.0,129.0,0.0
Y,R,"[6, 12]",-3.0,5.0,0.2660410404205322,1.6902740001678467,0.42723688908975227,12.0,130.0,0.0
,,"(6, 6)",,,,,,12.0,,
R,U,"[5, 6]",1.0,1.0,0.459230899810791,3.1082141399383545,0.602230820021729,,131.0,0.0
Y,R,"[5, 7]",1.0,2.0,0.24544310569763184,1.7532930374145508,0.5057088439532558,13.0,132.0,0.0
Y,R,"[5, 8]",1.0,3.0,0.21582698822021484,1.6762139797210693,0.4487273899614621,13.0,133.0,0.0
G,D,"[6, 8]",1.0,4.0,0.42438793182373047,1.7497758865356445,0.3149614199780386,13.0,134.0,0.0
Y,R,"[6, 9]",1.0,5.0,0.9193940162658691,2.284787893295288,0.3667310951450968,13.0,135.0,0.0
B,L,"[6, 8]",0.0,5.0,0.7690908908843994,2.202793836593628,0.43607249440181606,13.0,136.0,0.0
Y,R,"[6, 9]",0.0,5.0,0.19505691528320312,1.711514949798584,0.5141010969752596,13.0,137.0,0.0
Y,R,"[6, 10]",1.0,6.0,0.40765810012817383,2.008188009262085,0.5887750958271571,13.0,138.0,0.0
Y,R,"[6, 11]",0.0,6.0,0.261523962020874,1.6735799312591553,0.4125482232870302,13.0,139.0,0.0
R,U,"[5, 11]",0.0,6.0,0.33043408393859863,1.7830920219421387,0.4458320294232682,13.0,140.0,0.0
,,"(6, 6)",,,,,,13.0,,
R,U,"[5, 6]",1.0,1.0,0.7699191570281982,3.11006498336792,0.5889688610254813,,141.0,0.0
Y,R,"[5, 7]",1.0,2.0,0.22006988525390625,1.565030813217163,0.3377120665872258,14.0,142.0,0.0
Y,R,"[5, 8]",1.0,3.0,0.24086499214172363,1.6235690116882324,0.37809758368296587,14.0,143.0,0.0
G,D,"[6, 8]",1.0,4.0,0.4769299030303955,2.0611939430236816,0.5891753883836791,14.0,144.0,0.0
Y,R,"[6, 9]",1.0,5.0,0.17450404167175293,1.8094220161437988,0.6316085478574858,14.0,145.0,0.0
Y,R,"[6, 10]",1.0,6.0,0.7118232250213623,2.306373119354248,0.5880526619786113,14.0,146.0,0.0
Y,R,"[6, 11]",0.0,6.0,0.7327489852905273,2.0607869625091553,0.3324598822411148,14.0,147.0,0.0
R,U,"[5, 11]",0.0,6.0,0.5721828937530518,2.1402809619903564,0.5557749276923422,14.0,148.0,0.0
G,D,"[6, 11]",0.0,6.0,0.24279403686523438,1.7228200435638428,0.47889336155734463,14.0,149.0,0.0
Y,R,"[6, 12]",-3.0,6.0,0.30945587158203125,1.9660038948059082,0.6617187549720043,14.0,150.0,0.0
,,"(6, 6)",,,,,,14.0,,
R,U,"[5, 6]",1.0,1.0,0.4896559715270996,3.3764212131500244,0.705112849811705,,151.0,0.0
Y,R,"[5, 7]",1.0,2.0,0.1894059181213379,1.8255879878997803,0.6301599741340506,15.0,152.0,0.0
Y,R,"[5, 8]",1.0,3.0,0.17832279205322266,1.7203001976013184,0.5340575533800354,15.0,153.0,0.0
G,D,"[6, 8]",1.0,4.0,0.25348711013793945,1.7748470306396484,0.5088862768310789,15.0,154.0,0.0
Y,R,"[6, 9]",1.0,5.0,0.20796608924865723,1.6074271202087402,0.39959587238889444,15.0,155.0,0.0
Y,R,"[6, 10]",1.0,6.0,0.35946106910705566,1.7832090854644775,0.41614275120540517,15.0,156.0,0.0
R,U,"[5, 10]",1.0,7.0,0.5100548267364502,2.1958940029144287,0.6790066346406685,15.0,157.0,0.0
R,U,"[4, 10]",1.0,8.0,0.57682204246521,1.9707257747650146,0.3995763572503809,15.0,158.0,0.0
R,U,"[3, 10]",0.0,8.0,0.5804150104522705,2.2250869274139404,0.6411154999747287,15.0,159.0,0.0
Y,R,"[3, 11]",0.0,8.0,0.25887012481689453,1.8909809589385986,0.6321312992859056,15.0,160.0,0.0
,,"(6, 6)",,,,,,15.0,,
R,U,"[5, 6]",-2.0,0.0,1.2692599296569824,3.289872884750366,0.3559989335968928,,161.0,0.0
Y,R,"[5, 7]",1.0,1.0,0.36261677742004395,1.933100938796997,0.5719117711873247,16.0,162.0,0.0
Y,R,"[5, 8]",1.0,2.0,0.2563149929046631,1.6713860034942627,0.410412236485045,16.0,163.0,0.0
G,D,"[6, 8]",1.0,3.0,0.4218101501464844,1.8576161861419678,0.43442150175825855,16.0,164.0,0.0
Y,R,"[6, 9]",-1.0,3.0,0.09341788291931152,5.625184059143066,0.39321161901474827,16.0,165.0,0.0
Y,R,"[6, 10]",1.0,4.0,0.3270869255065918,1.9076189994812012,0.584096051351887,16.0,166.0,0.0
R,U,"[5, 10]",1.0,5.0,0.5102379322052002,2.1064789295196533,0.5903799671671719,16.0,167.0,0.0
Y,R,"[5, 11]",0.0,5.0,0.40323710441589355,2.04744815826416,0.6378476984424899,16.0,168.0,0.0
B,L,"[5, 10]",0.0,5.0,0.30515313148498535,1.891477108001709,0.5796116023422911,16.0,169.0,0.0
Y,R,"[5, 11]",0.0,5.0,0.28373098373413086,1.7959730625152588,0.5089758269229661,16.0,170.0,0.0
,,"(6, 6)",,,,,,16.0,,
R,U,"[5, 6]",1.0,1.0,0.8779151439666748,3.007128953933716,0.6826995012257436,,171.0,0.0
Y,R,"[5, 7]",1.0,2.0,0.23459792137145996,1.8011748790740967,0.5671221534857029,17.0,172.0,0.0
Y,R,"[5, 8]",1.0,3.0,0.33547091484069824,1.5902869701385498,0.2577004679233032,17.0,173.0,0.0
G,D,"[6, 8]",1.0,4.0,0.9423539638519287,2.5225679874420166,0.5803067388838398,17.0,174.0,0.0
Y,R,"[6, 9]",1.0,5.0,0.27049899101257324,1.6731719970703125,0.38692770494505724,17.0,175.0,0.0
Y,R,"[6, 10]",1.0,6.0,0.5817060470581055,2.171989917755127,0.5919160668826533,17.0,176.0,0.0
R,U,"[5, 10]",1.0,7.0,0.30701208114624023,2.0241918563842773,0.7161660294801176,17.0,177.0,0.0
Y,R,"[5, 11]",0.0,7.0,0.5636420249938965,2.182654857635498,0.6157346886448856,17.0,178.0,0.0
G,D,"[6, 11]",0.0,7.0,0.2642180919647217,1.8758399486541748,0.6080228935868288,17.0,179.0,0.0
R,U,"[5, 11]",0.0,7.0,0.2807910442352295,1.8738880157470703,0.5985923274419576,17.0,180.0,0.0
,,"(6, 6)",,,,,,17.0,,
R,U,"[5, 6]",1.0,1.0,0.7020668983459473,3.1497490406036377,0.26539731704740305,,181.0,0.0
Y,R,"[5, 7]",1.0,2.0,0.395892858505249,2.083710193634033,0.6821415451625428,18.0,182.0,0.0
Y,R,"[5, 8]",1.0,3.0,0.19985413551330566,1.658236026763916,0.44070187503781605,18.0,183.0,0.0
G,D,"[6, 8]",1.0,4.0,0.25031208992004395,1.7045090198516846,0.4451471584299744,18.0,184.0,0.0
Y,R,"[6, 9]",1.0,5.0,0.4213888645172119,1.9133310317993164,0.4918331412201081,18.0,185.0,0.0
Y,R,"[6, 10]",1.0,6.0,0.2687559127807617,1.6758809089660645,0.40115818989246893,18.0,186.0,0.0
R,U,"[5, 10]",1.0,7.0,0.48565196990966797,2.2169899940490723,0.7178719797561389,18.0,187.0,0.0
Y,R,"[5, 11]",0.0,7.0,0.3023829460144043,1.8489990234375,0.5502950412316685,18.0,188.0,0.0
B,L,"[5, 10]",0.0,7.0,0.5310969352722168,2.241887092590332,0.7086541043405463,18.0,189.0,0.0
B,L,"[5, 9]",0.0,7.0,0.3917429447174072,2.038555145263672,0.6474553575536837,18.0,190.0,0.0
,,"(6, 6)",,,,,,18.0,,
R,U,"[5, 6]",1.0,1.0,0.8668677806854248,3.2868831157684326,0.5512363254880305,,191.0,0.0
Y,R,"[5, 7]",1.0,2.0,0.30852389335632324,1.829158067703247,0.5136916271303273,19.0,192.0,0.0
Y,R,"[5, 8]",1.0,3.0,0.2533609867095947,1.945641040802002,0.6758257681441018,19.0,193.0,0.0
G,D,"[6, 8]",1.0,4.0,0.2860591411590576,2.02376389503479,0.7329819979290654,19.0,194.0,0.0
Y,R,"[6, 9]",1.0,5.0,0.31690406799316406,1.9844958782196045,0.6508860563589416,19.0,195.0,0.0
Y,R,"[6, 10]",1.0,6.0,0.26949620246887207,1.6915180683135986,0.40939670632206254,19.0,196.0,0.0
R,U,"[5, 10]",1.0,7.0,0.4573178291320801,1.9248719215393066,0.4674541439016229,19.0,197.0,0.0
Y,R,"[5, 11]",0.0,7.0,0.38092613220214844,1.932068109512329,0.5495955104542535,19.0,198.0,0.0
Y,R,"[5, 12]",-3.0,7.0,0.7286810874938965,2.2386200428009033,0.5048185897781873,19.0,199.0,0.0
Y,R,"[5, 11]",0.0,7.0,0.462352991104126,2.1951239109039307,0.7332223499046557,19.0,200.0,0.0
,,"(6, 6)",,,,,,19.0,,
R,U,"[5, 6]",1.0,1.0,0.5504641532897949,3.1433520317077637,0.39364492938290174,,201.0,0.0
Y,R,"[5, 7]",1.0,2.0,0.46522092819213867,1.7415480613708496,0.2853716556888372,20.0,202.0,0.0
Y,R,"[5, 8]",1.0,3.0,0.4604299068450928,2.1214370727539062,0.6564617592440868,20.0,203.0,0.0
G,D,"[6, 8]",1.0,4.0,0.42264294624328613,1.6848409175872803,0.2584472089861739,20.0,204.0,0.0
Y,R,"[6, 9]",1.0,5.0,0.3494389057159424,1.7454650402069092,0.3868894865105042,20.0,205.0,0.0
Y,R,"[6, 10]",1.0,6.0,0.25823116302490234,1.9498381614685059,0.686668701587444,20.0,206.0,0.0
R,U,"[5, 10]",1.0,7.0,0.5495061874389648,2.043652057647705,0.4803309096887069,20.0,207.0,0.0
R,U,"[4, 10]",1.0,8.0,0.5456321239471436,2.2494430541992188,0.6964036596184833,20.0,208.0,0.0
R,U,"[3, 10]",0.0,8.0,0.6085720062255859,2.315978765487671,0.6957302133578349,20.0,209.0,0.0
G,D,"[4, 10]",0.0,8.0,0.2092609405517578,1.7181370258331299,0.49736410771464323,20.0,210.0,0.0
,,"(6, 6)",,,,,,20.0,,
R,U,"[5, 6]",1.0,1.0,0.6824319362640381,2.692305088043213,0.3398118213264878,,211.0,0.0
Y,R,"[5, 7]",1.0,2.0,0.4653151035308838,1.9798431396484375,0.502864101717043,21.0,212.0,0.0
Y,R,"[5, 8]",1.0,3.0,0.2802901268005371,1.5601649284362793,0.27989636119374395,21.0,213.0,0.0
G,D,"[6, 8]",1.0,4.0,0.42633986473083496,2.096353054046631,0.6593341522465345,21.0,214.0,0.0
Y,R,"[6, 9]",1.0,5.0,0.33810901641845703,1.9898920059204102,0.6492424870005744,21.0,215.0,0.0
Y,R,"[6, 10]",1.0,6.0,0.2761211395263672,1.8040759563446045,0.5201496974848774,21.0,216.0,0.0
R,U,"[5, 10]",1.0,7.0,0.604935884475708,1.9942657947540283,0.38141853800908676,21.0,217.0,0.0
R,U,"[4, 10]",1.0,8.0,0.2872650623321533,1.9755239486694336,0.6731447349941009,21.0,218.0,0.0
G,D,"[5, 10]",0.0,8.0,0.32886719703674316,1.9997940063476562,0.6730080231764228,21.0,219.0,0.0
Y,R,"[5, 11]",0.0,8.0,0.2898290157318115,1.6801788806915283,0.3868500342545273,21.0,220.0,0.0
,,"(6, 6)",,,,,,21.0,,
R,U,"[5, 6]",1.0,1.0,0.6295490264892578,3.0319089889526367,0.41905664888441496,,221.0,0.0
Y,R,"[5, 7]",1.0,2.0,0.6676158905029297,2.378312110900879,0.6975203630727871,22.0,222.0,0.0
Y,R,"[5, 8]",1.0,3.0,0.1778700351715088,1.8340520858764648,0.6475746642505062,22.0,223.0,0.0
G,D,"[6, 8]",1.0,4.0,0.1995849609375,1.7522079944610596,0.533425473258208,22.0,224.0,0.0
Y,R,"[6, 9]",1.0,5.0,0.22583985328674316,1.9110209941864014,0.6776343301845997,22.0,225.0,0.0
Y,R,"[6, 10]",1.0,6.0,0.17675995826721191,1.6064820289611816,0.43434446745876193,22.0,226.0,0.0
R,U,"[5, 10]",1.0,7.0,0.43215298652648926,2.1258020401000977,0.676731504271594,22.0,227.0,0.0
R,U,"[4, 10]",1.0,8.0,0.2675800323486328,1.676508903503418,0.40358113529178263,22.0,228.0,0.0
Y,R,"[4, 11]",0.0,8.0,0.43822193145751953,2.171983003616333,0.7252538418904102,22.0,229.0,0.0
G,D,"[5, 11]",0.0,8.0,0.40480494499206543,1.7450079917907715,0.3371089739534392,22.0,230.0,0.0
,,"(6, 6)",,,,,,22.0,,
R,U,"[5, 6]",1.0,1.0,0.8819839954376221,3.579888105392456,0.5836752240807546,,231.0,0.0
Y,R,"[5, 7]",1.0,2.0,0.3125579357147217,1.7199029922485352,0.4036809316274992,23.0,232.0,0.0
Y,R,"[5, 8]",1.0,3.0,0.3038058280944824,1.614042043685913,0.3011963477546819,23.0,233.0,0.0
G,D,"[6, 8]",1.0,4.0,0.8175339698791504,2.4441919326782227,0.6117143168275945,23.0,234.0,0.0
Y,R,"[6, 9]",1.0,5.0,0.25432896614074707,1.6245779991149902,0.3700862298602874,23.0,235.0,0.0
Y,R,"[6, 10]",1.0,6.0,0.41886401176452637,1.766160011291504,0.33634663817797056,23.0,236.0,0.0
R,U,"[5, 10]",1.0,7.0,0.5472831726074219,1.9671649932861328,0.41997734317669166,23.0,237.0,0.0
R,U,"[4, 10]",1.0,8.0,0.3196830749511719,1.8287339210510254,0.49871877466827136,23.0,238.0,0.0
B,L,"[4, 9]",1.0,9.0,0.3383748531341553,1.9059841632843018,0.5546803837232552,23.0,239.0,0.0
B,L,"[4, 8]",0.0,9.0,0.3941669464111328,1.8797838687896729,0.4845690997264846,23.0,240.0,0.0
,,"(6, 6)",,,,,,23.0,,
R,U,"[5, 6]",-2.0,0.0,1.060662031173706,3.1730709075927734,0.3576686979995564,,241.0,0.0
Y,R,"[5, 7]",1.0,1.0,0.26847195625305176,1.930912971496582,0.6549119650760574,24.0,242.0,0.0
Y,R,"[5, 8]",1.0,2.0,0.5656311511993408,1.9888191223144531,0.41069818388898227,24.0,243.0,0.0
G,D,"[6, 8]",1.0,3.0,0.4170699119567871,1.7938649654388428,0.3712433257338052,24.0,244.0,0.0
Y,R,"[6, 9]",1.0,4.0,0.3478260040283203,2.0410749912261963,0.6787711076798257,24.0,245.0,0.0
Y,R,"[6, 10]",1.0,5.0,0.2562267780303955,1.6581850051879883,0.3873813744958795,24.0,246.0,0.0
R,U,"[5, 10]",1.0,6.0,0.3140599727630615,1.8431169986724854,0.5305485407846644,24.0,247.0,0.0
R,U,"[4, 10]",1.0,7.0,0.40132808685302734,2.118936061859131,0.6995353706658802,24.0,248.0,0.0
B,L,"[4, 9]",1.0,8.0,0.28461313247680664,1.831078052520752,0.5304829535541278,24.0,249.0,0.0
Y,R,"[4, 10]",0.0,8.0,0.363339900970459,1.8173699378967285,0.4478654762994838,24.0,250.0,0.0
,,"(6, 6)",,,,,,24.0,,
R,U,"[5, 6]",1.0,1.0,0.6479761600494385,3.2814581394195557,0.6125452582747055,,251.0,0.0
Y,R,"[5, 7]",1.0,2.0,0.24548101425170898,1.967393159866333,0.713115699638764,25.0,252.0,0.0
Y,R,"[5, 8]",1.0,3.0,0.23398399353027344,1.7370829582214355,0.4837932872680348,25.0,253.0,0.0
G,D,"[6, 8]",1.0,4.0,0.4305918216705322,1.8552379608154297,0.42274831913436023,25.0,254.0,0.0
Y,R,"[6, 9]",1.0,5.0,0.3417332172393799,1.7936201095581055,0.4496138056483366,25.0,255.0,0.0
Y,R,"[6, 10]",1.0,6.0,0.35683703422546387,1.704355001449585,0.3375363327628804,25.0,256.0,0.0
R,U,"[5, 10]",1.0,7.0,0.9574041366577148,2.595472812652588,0.6326222074210817,25.0,257.0,0.0
R,U,"[4, 10]",1.0,8.0,0.31090617179870605,1.9967210292816162,0.6793854225259723,25.0,258.0,0.0
B,L,"[4, 9]",1.0,9.0,0.21253299713134766,1.6362509727478027,0.4157612979977358,25.0,259.0,0.0
G,D,"[5, 9]",0.0,9.0,0.39183902740478516,2.0698699951171875,0.6686128178586395,25.0,260.0,0.0
,,"(6, 6)",,,,,,25.0,,
R,U,"[5, 6]",1.0,1.0,0.6024940013885498,3.19714093208313,0.41636112203744186,,261.0,0.0
Y,R,"[5, 7]",1.0,2.0,0.4571690559387207,2.022246837615967,0.5552216740629365,26.0,262.0,0.0
Y,R,"[5, 8]",1.0,3.0,0.40067100524902344,2.009100914001465,0.5975217068484786,26.0,263.0,0.0
G,D,"[6, 8]",1.0,4.0,0.33608198165893555,1.6989920139312744,0.3468243995234207,26.0,264.0,0.0
Y,R,"[6, 9]",1.0,5.0,0.32909512519836426,1.7340681552886963,0.39733475114685934,26.0,265.0,0.0
Y,R,"[6, 10]",1.0,6.0,0.2688570022583008,1.6209919452667236,0.33504470738774483,26.0,266.0,0.0
R,U,"[5, 10]",1.0,7.0,0.388171911239624,2.064229965209961,0.6657179582356153,26.0,267.0,0.0
R,U,"[4, 10]",-1.0,7.0,0.024771928787231445,5.440363168716431,0.2900519057838739,26.0,268.0,0.0
B,L,"[4, 9]",1.0,8.0,0.36475110054016113,1.7579560279846191,0.38111313258229124,26.0,269.0,0.0
R,U,"[3, 9]",1.0,9.0,0.3549480438232422,1.7830650806427002,0.4142604785643541,26.0,270.0,0.0
,,"(6, 6)",,,,,,26.0,,
R,U,"[5, 6]",1.0,1.0,0.5274019241333008,2.6321969032287598,0.3299998862382606,,271.0,0.0
Y,R,"[5, 7]",1.0,2.0,0.5403320789337158,1.8863840103149414,0.3328804464137962,27.0,272.0,0.0
Y,R,"[5, 8]",1.0,3.0,0.3402981758117676,1.8080408573150635,0.4576128670366767,27.0,273.0,0.0
G,D,"[6, 8]",1.0,4.0,0.3311750888824463,1.8296759128570557,0.5039289007688617,27.0,274.0,0.0
Y,R,"[6, 9]",1.0,5.0,0.501600980758667,2.006347894668579,0.493611669597695,27.0,275.0,0.0
Y,R,"[6, 10]",1.0,6.0,0.3169741630554199,1.792943000793457,0.4698295126088479,27.0,276.0,0.0
R,U,"[5, 10]",1.0,7.0,0.740117073059082,2.0609869956970215,0.31439445019614576,27.0,277.0,0.0
R,U,"[4, 10]",1.0,8.0,0.30245399475097656,1.761687994003296,0.4426317569904693,27.0,278.0,0.0
B,L,"[4, 9]",1.0,9.0,0.3434300422668457,2.0679988861083984,0.7272589655394984,27.0,279.0,0.0
G,D,"[5, 9]",0.0,9.0,0.23190999031066895,1.655992031097412,0.4334010525670107,27.0,280.0,0.0
,,"(6, 6)",,,,,,27.0,,
R,U,"[5, 6]",1.0,1.0,0.6904428005218506,2.7426419258117676,0.2764460924239924,,281.0,0.0
Y,R,"[5, 7]",1.0,2.0,0.6490540504455566,2.16205096244812,0.5048659192758571,28.0,282.0,0.0
Y,R,"[5, 8]",1.0,3.0,0.21935200691223145,1.5082600116729736,0.279807256726476,28.0,283.0,0.0
G,D,"[6, 8]",1.0,4.0,0.39174318313598633,2.1121370792388916,0.708366931125634,28.0,284.0,0.0
Y,R,"[6, 9]",1.0,5.0,0.2820899486541748,1.7803871631622314,0.48895091692985326,28.0,285.0,0.0
Y,R,"[6, 10]",1.0,6.0,0.24655795097351074,1.8020849227905273,0.5576883777561921,28.0,286.0,0.0
R,U,"[5, 10]",1.0,7.0,0.2806119918823242,1.792248010635376,0.5166662659339666,28.0,287.0,0.0
R,U,"[4, 10]",-2.0,7.0,1.1460049152374268,2.544443130493164,0.3613003433479991,28.0,288.0,0.0
B,L,"[4, 9]",1.0,8.0,0.8494381904602051,2.5286660194396973,0.6730738366166369,28.0,289.0,0.0
R,U,"[3, 9]",1.0,9.0,0.48714399337768555,2.037217140197754,0.5437954621032444,28.0,290.0,0.0
,,"(6, 6)",,,,,,28.0,,
R,U,"[5, 6]",1.0,1.0,0.42007899284362793,3.8255069255828857,0.6026655772051472,,291.0,0.0
Y,R,"[5, 7]",1.0,2.0,0.2617158889770508,1.6804308891296387,0.41663260990205914,29.0,292.0,0.0
Y,R,"[5, 8]",1.0,3.0,0.3465700149536133,1.8932228088378906,0.5429472303487876,29.0,293.0,0.0
G,D,"[6, 8]",1.0,4.0,0.24616789817810059,1.8495750427246094,0.6092243039554748,29.0,294.0,0.0
Y,R,"[6, 9]",1.0,5.0,0.37216806411743164,1.7425711154937744,0.3686990740195009,29.0,295.0,0.0
Y,R,"[6, 10]",1.0,6.0,0.21741104125976562,1.6848630905151367,0.4535892360397817,29.0,296.0,0.0
R,U,"[5, 10]",1.0,7.0,0.37491393089294434,2.06685209274292,0.6867691541321957,29.0,297.0,0.0
R,U,"[4, 10]",1.0,8.0,0.2133338451385498,1.9785079956054688,0.7321854672055931,29.0,298.0,0.0
B,L,"[4, 9]",1.0,9.0,0.2761569023132324,1.6258327960968018,0.3415600453112958,29.0,299.0,0.0
R,U,"[3, 9]",1.0,10.0,0.2644929885864258,1.5391418933868408,0.2808178217883022,29.0,300.0,0.0
,,"(6, 6)",,,,,,29.0,,
R,U,"[5, 6]",1.0,1.0,0.44249701499938965,2.844857931137085,0.7418925653227916,,301.0,0.0
Y,R,"[5, 7]",1.0,2.0,0.2256629467010498,1.5446221828460693,0.32026610502856495,30.0,302.0,0.0
Y,R,"[5, 8]",1.0,3.0,0.216400146484375,1.654999017715454,0.4253163493342486,30.0,303.0,0.0
G,D,"[6, 8]",1.0,4.0,0.2823982238769531,1.6617720127105713,0.37040569216385383,30.0,304.0,0.0
Y,R,"[6, 9]",1.0,5.0,0.6628530025482178,2.16483998298645,0.5018179348665438,30.0,305.0,0.0
Y,R,"[6, 10]",1.0,6.0,0.20019793510437012,1.5438179969787598,0.32914067936914543,30.0,306.0,0.0
R,U,"[5, 10]",1.0,7.0,0.5061209201812744,2.1563150882720947,0.6685442381639762,30.0,307.0,0.0
R,U,"[4, 10]",1.0,8.0,0.20936298370361328,1.9224119186401367,0.7077340915928029,30.0,308.0,0.0
B,L,"[4, 9]",1.0,9.0,0.24599981307983398,1.6943340301513672,0.452392357459176,30.0,309.0,0.0
R,U,"[3, 9]",1.0,10.0,0.25734901428222656,1.6646521091461182,0.40035639548668,30.0,310.0,0.0
,,"(6, 6)",,,,,,30.0,,
R,U,"[5, 6]",1.0,1.0,0.7219338417053223,3.1085410118103027,0.7418314191510167,,311.0,0.0
Y,R,"[5, 7]",1.0,2.0,0.21228384971618652,1.573580026626587,0.36599664857562625,31.0,312.0,0.0
Y,R,"[5, 8]",1.0,3.0,0.3759758472442627,1.7186658382415771,0.33453112576738636,31.0,313.0,0.0
G,D,"[6, 8]",1.0,4.0,0.3824160099029541,2.086655855178833,0.6874716785584405,31.0,314.0,0.0
Y,R,"[6, 9]",1.0,5.0,0.5789079666137695,2.2935290336608887,0.7144329556051447,31.0,315.0,0.0
Y,R,"[6, 10]",-1.0,5.0,0.07215285301208496,5.889948129653931,0.6880145080444844,31.0,316.0,0.0
R,U,"[5, 10]",1.0,6.0,0.2843480110168457,1.8940949440002441,0.5989538551764266,31.0,317.0,0.0
R,U,"[4, 10]",1.0,7.0,0.2971658706665039,1.6313178539276123,0.3305832275498572,31.0,318.0,0.0
B,L,"[4, 9]",1.0,8.0,0.43010902404785156,1.8884479999542236,0.45197207757194385,31.0,319.0,0.0
R,U,"[3, 9]",1.0,9.0,0.3986349105834961,1.9063081741333008,0.5082248444802477,31.0,320.0,0.0
,,"(6, 6)",,,,,,31.0,,
R,U,"[5, 6]",1.0,1.0,0.4133899211883545,4.533863067626953,0.4089705359063217,,321.0,0.0
Y,R,"[5, 7]",1.0,2.0,0.32260894775390625,1.8744869232177734,0.5500096443117267,32.0,322.0,0.0
Y,R,"[5, 8]",1.0,3.0,0.2771470546722412,1.7445058822631836,0.46124503538622774,32.0,323.0,0.0
G,D,"[6, 8]",1.0,4.0,0.256864070892334,1.6301698684692383,0.3750170851458543,32.0,324.0,0.0
Y,R,"[6, 9]",1.0,5.0,0.19959187507629395,1.93831205368042,0.729719062040516,32.0,325.0,0.0
Y,R,"[6, 10]",1.0,6.0,0.19762206077575684,1.8963348865509033,0.6927390831530944,32.0,326.0,0.0
R,U,"[5, 10]",1.0,7.0,0.31241917610168457,1.829347848892212,0.5221800040749964,32.0,327.0,0.0
R,U,"[4, 10]",1.0,8.0,0.897381067276001,2.3286399841308594,0.43421764603205987,32.0,328.0,0.0
B,L,"[4, 9]",1.0,9.0,0.2469010353088379,1.6696221828460693,0.4206616406617741,32.0,329.0,0.0
R,U,"[3, 9]",1.0,10.0,0.3959619998931885,2.1058881282806396,0.7095761355121786,32.0,330.0,0.0
,,"(6, 6)",,,,,,32.0,,
R,U,"[5, 6]",1.0,1.0,0.5903091430664062,2.526097059249878,0.33605141244013337,,331.0,0.0
Y,R,"[5, 7]",1.0,2.0,0.3073139190673828,2.0173890590667725,0.7030984586473487,33.0,332.0,0.0
Y,R,"[5, 8]",1.0,3.0,0.23473691940307617,1.9463231563568115,0.6995856617133347,33.0,333.0,0.0
R,U,"[4, 8]",0.0,3.0,0.5005130767822266,1.8769729137420654,0.3768419559164097,33.0,334.0,0.0
Y,R,"[4, 9]",1.0,4.0,0.6121170520782471,1.8703248500823975,0.26398747977822185,33.0,335.0,0.0
Y,R,"[4, 10]",1.0,5.0,0.5026791095733643,1.7953369617462158,0.27623754663386396,33.0,336.0,0.0
R,U,"[3, 10]",0.0,5.0,0.511591911315918,2.1333320140838623,0.6258411076028441,33.0,337.0,0.0
R,U,"[2, 10]",0.0,5.0,0.13536691665649414,1.7434508800506592,0.619647249444035,33.0,338.0,0.0
B,L,"[2, 9]",0.0,5.0,0.28017687797546387,1.9789109230041504,0.6981398854009677,33.0,339.0,0.0
B,L,"[2, 8]",0.0,5.0,0.28795909881591797,1.5856058597564697,0.2840151236914692,33.0,340.0,0.0
,,"(6, 6)",,,,,,33.0,,
R,U,"[5, 6]",1.0,1.0,0.43828797340393066,3.126901865005493,0.4777028440128108,,341.0,0.0
Y,R,"[5, 7]",1.0,2.0,0.2730748653411865,1.6010937690734863,0.32886100927087375,34.0,342.0,0.0
Y,R,"[5, 8]",1.0,3.0,0.3380420207977295,1.7295811176300049,0.39174495761294675,34.0,343.0,0.0
G,D,"[6, 8]",1.0,4.0,0.4328649044036865,1.8725359439849854,0.43103673125846637,34.0,344.0,0.0
Y,R,"[6, 9]",1.0,5.0,0.27068018913269043,1.8983678817749023,0.6123494796189659,34.0,345.0,0.0
Y,R,"[6, 10]",1.0,6.0,0.21367597579956055,1.5548059940338135,0.33423565358968577,34.0,346.0,0.0
R,U,"[5, 10]",1.0,7.0,0.34572696685791016,1.7860260009765625,0.43688447720361095,34.0,347.0,0.0
R,U,"[4, 10]",1.0,8.0,0.23642992973327637,1.5993051528930664,0.3529571628392785,34.0,348.0,0.0
B,L,"[4, 9]",1.0,9.0,0.37752604484558105,1.6872589588165283,0.3069537251449652,34.0,349.0,0.0
R,U,"[3, 9]",1.0,10.0,0.3233308792114258,2.073369026184082,0.7464237807730776,34.0,350.0,0.0
,,"(6, 6)",,,,,,34.0,,
R,U,"[5, 6]",1.0,1.0,0.5730981826782227,2.7858259677886963,0.6325115383559188,,351.0,0.0
Y,R,"[5, 7]",1.0,2.0,0.23661208152770996,1.517007827758789,0.26663263221406747,35.0,352.0,0.0
Y,R,"[5, 8]",1.0,3.0,0.4110381603240967,1.9165818691253662,0.4998781794317895,35.0,353.0,0.0
G,D,"[6, 8]",1.0,4.0,0.3173701763153076,1.6986479759216309,0.36514067226440705,35.0,354.0,0.0
Y,R,"[6, 9]",1.0,5.0,0.3156719207763672,1.8898119926452637,0.5548070050579795,35.0,355.0,0.0
Y,R,"[6, 10]",1.0,6.0,0.11929702758789062,1.7925338745117188,0.663990755216538,35.0,356.0,0.0
R,U,"[5, 10]",1.0,7.0,0.30749082565307617,1.9080519676208496,0.5887764308651993,35.0,357.0,0.0
R,U,"[4, 10]",1.0,8.0,0.2834508419036865,1.763998031616211,0.46973863924187126,35.0,358.0,0.0
B,L,"[4, 9]",1.0,9.0,0.35582399368286133,1.7266638278961182,0.3630900811241055,35.0,359.0,0.0
R,U,"[3, 9]",1.0,10.0,0.3415079116821289,1.9337108135223389,0.579984672701094,35.0,360.0,0.0
,,"(6, 6)",,,,,,35.0,,
R,U,"[5, 6]",1.0,1.0,0.37427687644958496,2.8040430545806885,0.550626372040915,,361.0,0.0
Y,R,"[5, 7]",1.0,2.0,0.5922861099243164,2.0002269744873047,0.40101851975378,36.0,362.0,0.0
Y,R,"[5, 8]",1.0,3.0,0.47041916847229004,2.02764892578125,0.5450943475854223,36.0,363.0,0.0
G,D,"[6, 8]",1.0,4.0,0.30999207496643066,1.6695470809936523,0.36497010641045924,36.0,364.0,0.0
Y,R,"[6, 9]",1.0,5.0,0.44552183151245117,2.1585512161254883,0.7064717971610601,36.0,365.0,0.0
Y,R,"[6, 10]",1.0,6.0,0.3065969944000244,1.73551607131958,0.425784032162811,36.0,366.0,0.0
R,U,"[5, 10]",1.0,7.0,0.3162879943847656,1.6724140644073486,0.3481745411039721,36.0,367.0,0.0
R,U,"[4, 10]",1.0,8.0,0.4990119934082031,2.020538091659546,0.5018534678125928,36.0,368.0,0.0
B,L,"[4, 9]",1.0,9.0,0.47443485260009766,2.179047107696533,0.69750502930223,36.0,369.0,0.0
R,U,"[3, 9]",1.0,10.0,0.328233003616333,1.740818977355957,0.40523776469703704,36.0,370.0,0.0
,,"(6, 6)",,,,,,36.0,,
R,U,"[5, 6]",1.0,1.0,0.6899111270904541,3.007780075073242,0.4298983095563255,,371.0,0.0
Y,R,"[5, 7]",1.0,2.0,0.5193250179290771,2.2138419151306152,0.6767191927348554,37.0,372.0,0.0
Y,R,"[5, 8]",1.0,3.0,0.3097341060638428,1.9417378902435303,0.6353470701593247,37.0,373.0,0.0
G,D,"[6, 8]",1.0,4.0,0.32653188705444336,1.9926800727844238,0.6612937969771333,37.0,374.0,0.0
Y,R,"[6, 9]",1.0,5.0,0.17817378044128418,1.6986069679260254,0.5268917301120244,37.0,375.0,0.0
Y,R,"[6, 10]",1.0,6.0,0.30733489990234375,1.636085033416748,0.3297921698239296,37.0,376.0,0.0
R,U,"[5, 10]",1.0,7.0,0.7343418598175049,2.3021199703216553,0.5484369429460834,37.0,377.0,0.0
R,U,"[4, 10]",1.0,8.0,0.27135705947875977,1.8749709129333496,0.5899183128280256,37.0,378.0,0.0
B,L,"[4, 9]",1.0,9.0,0.25778794288635254,1.8819401264190674,0.6218064061216465,37.0,379.0,0.0
R,U,"[3, 9]",1.0,10.0,0.31646108627319336,1.8520081043243408,0.5240398708028438,37.0,380.0,0.0
,,"(6, 6)",,,,,,37.0,,
R,U,"[5, 6]",1.0,1.0,0.6439790725708008,2.7440569400787354,0.3847468005781382,,381.0,0.0
Y,R,"[5, 7]",1.0,2.0,0.5186910629272461,2.0069799423217773,0.4751079078244668,38.0,382.0,0.0
Y,R,"[5, 8]",1.0,3.0,0.26105690002441406,1.5449600219726562,0.2869553297785603,38.0,383.0,0.0
G,D,"[6, 8]",1.0,4.0,0.3537740707397461,1.795881986618042,0.43281605505840726,38.0,384.0,0.0
Y,R,"[6, 9]",1.0,5.0,0.2449789047241211,1.963421106338501,0.7125332048016064,38.0,385.0,0.0
Y,R,"[6, 10]",1.0,6.0,0.22835707664489746,1.6115009784698486,0.3743655582832998,38.0,386.0,0.0
R,U,"[5, 10]",1.0,7.0,0.378216028213501,1.6317050457000732,0.25617730586612514,38.0,387.0,0.0
R,U,"[4, 10]",1.0,8.0,0.3390030860900879,1.9300670623779297,0.5860390477366124,38.0,388.0,0.0
B,L,"[4, 9]",1.0,9.0,0.2087841033935547,1.5202059745788574,0.3063839081358709,38.0,389.0,0.0
R,U,"[3, 9]",1.0,10.0,0.8041608333587646,2.110481023788452,0.3169939615010947,38.0,390.0,0.0
,,"(6, 6)",,,,,,38.0,,
R,U,"[5, 6]",1.0,1.0,0.5711970329284668,2.3771378993988037,0.44399714025070675,,391.0,0.0
Y,R,"[5, 7]",1.0,2.0,0.23699593544006348,1.8878710269927979,0.6484588312005637,39.0,392.0,0.0
Y,R,"[5, 8]",1.0,3.0,0.13017511367797852,1.7314929962158203,0.5965257324972827,39.0,393.0,0.0
G,D,"[6, 8]",1.0,4.0,0.2456679344177246,1.8165440559387207,0.5632444232823623,39.0,394.0,0.0
Y,R,"[6, 9]",1.0,5.0,0.19416403770446777,1.7901020050048828,0.5866531206376946,39.0,395.0,0.0
Y,R,"[6, 10]",1.0,6.0,0.21489405632019043,1.748816967010498,0.5356112857735352,39.0,396.0,0.0
R,U,"[5, 10]",1.0,7.0,0.32995104789733887,1.846972942352295,0.5158785655904838,39.0,397.0,0.0
R,U,"[4, 10]",1.0,8.0,0.1701810359954834,1.6223058700561523,0.4382727022844853,39.0,398.0,0.0
B,L,"[4, 9]",1.0,9.0,0.2543060779571533,1.8901610374450684,0.628296566654325,39.0,399.0,0.0
R,U,"[3, 9]",1.0,10.0,0.21435308456420898,1.8790249824523926,0.6741388206976102,39.0,400.0,0.0
,,"(6, 6)",,,,,,39.0,,
R,U,"[5, 6]",1.0,1.0,0.35611486434936523,2.5405030250549316,0.5812558313225591,,401.0,0.0
Y,R,"[5, 7]",1.0,2.0,0.21085309982299805,1.7240238189697266,0.5054957112475771,40.0,402.0,0.0
Y,R,"[5, 8]",1.0,3.0,0.36822509765625,2.1136419773101807,0.7355871810486567,40.0,403.0,0.0
G,D,"[6, 8]",1.0,4.0,0.16382694244384766,1.4869160652160645,0.32296540459413764,40.0,404.0,0.0
Y,R,"[6, 9]",1.0,5.0,0.2885150909423828,1.7128469944000244,0.4189494671227497,40.0,405.0,0.0
Y,R,"[6, 10]",1.0,6.0,0.2297830581665039,1.5475749969482422,0.3167047178562781,40.0,406.0,0.0
R,U,"[5, 10]",1.0,7.0,0.3158719539642334,1.740920066833496,0.40758215832090583,40.0,407.0,0.0
R,U,"[4, 10]",1.0,8.0,0.33174681663513184,1.7317829132080078,0.40600057039940746,40.0,408.0,0.0
Y,R,"[4, 11]",0.0,8.0,0.43430304527282715,1.8020448684692383,0.37496456047107773,40.0,409.0,0.0
R,U,"[3, 11]",0.0,8.0,0.6753079891204834,1.9854519367218018,0.31027719841635626,40.0,410.0,0.0
,,"(6, 6)",,,,,,40.0,,
R,U,"[5, 6]",1.0,1.0,0.34688305854797363,2.274791955947876,0.25191598540811994,,411.0,0.0
Y,R,"[5, 7]",1.0,2.0,0.42183804512023926,1.7760450839996338,0.3448016422870753,41.0,412.0,0.0
Y,R,"[5, 8]",1.0,3.0,0.3114199638366699,1.8196361064910889,0.5140449425759639,41.0,413.0,0.0
G,D,"[6, 8]",1.0,4.0,0.23189091682434082,1.568640947341919,0.33305936518343443,41.0,414.0,0.0
Y,R,"[6, 9]",1.0,5.0,0.3562798500061035,1.9136159420013428,0.5463403501935611,41.0,415.0,0.0
Y,R,"[6, 10]",1.0,6.0,0.32477378845214844,1.6458280086517334,0.309003143176256,41.0,416.0,0.0
R,U,"[5, 10]",1.0,7.0,0.29851484298706055,2.005913019180298,0.6979617589985148,41.0,417.0,0.0
R,U,"[4, 10]",1.0,8.0,0.14406394958496094,1.714879035949707,0.5629861647978616,41.0,418.0,0.0
B,L,"[4, 9]",1.0,9.0,0.22849488258361816,1.8907110691070557,0.6537088952943918,41.0,419.0,0.0
R,U,"[3, 9]",1.0,10.0,0.32575297355651855,1.6404201984405518,0.31116361621793964,41.0,420.0,0.0
,,"(6, 6)",,,,,,41.0,,
R,U,"[5, 6]",1.0,1.0,0.575775146484375,2.7563719749450684,0.30093566044975517,,421.0,0.0
Y,R,"[5, 7]",1.0,2.0,0.4062998294830322,1.719977855682373,0.30410411426376976,42.0,422.0,0.0
Y,R,"[5, 8]",1.0,3.0,0.42024993896484375,1.949099063873291,0.5197664994439051,42.0,423.0,0.0
G,D,"[6, 8]",1.0,4.0,0.22771286964416504,1.7030770778656006,0.4730119556625744,42.0,424.0,0.0
Y,R,"[6, 9]",1.0,5.0,0.2876911163330078,1.876723051071167,0.5829708276795875,42.0,425.0,0.0
Y,R,"[6, 10]",1.0,6.0,0.19553184509277344,1.4835491180419922,0.2834990928638505,42.0,426.0,0.0
R,U,"[5, 10]",1.0,7.0,0.5504150390625,1.938765048980713,0.3721430321591316,42.0,427.0,0.0
R,U,"[4, 10]",1.0,8.0,0.2860560417175293,1.620826005935669,0.32643729651049314,42.0,428.0,0.0
B,L,"[4, 9]",1.0,9.0,0.7531540393829346,2.3803069591522217,0.623310031268558,42.0,429.0,0.0
R,U,"[3, 9]",1.0,10.0,0.23802685737609863,1.9011750221252441,0.6576623572324016,42.0,430.0,0.0
,,"(6, 6)",,,,,,42.0,,
R,U,"[5, 6]",1.0,1.0,0.498960018157959,2.4001479148864746,0.5083844268064835,,431.0,0.0
Y,R,"[5, 7]",1.0,2.0,0.22614502906799316,1.882396936416626,0.6568764431862271,43.0,432.0,0.0
Y,R,"[5, 8]",1.0,3.0,0.31377506256103516,1.6437649726867676,0.3344071320720046,43.0,433.0,0.0
G,D,"[6, 8]",1.0,4.0,0.37825512886047363,2.0101089477539062,0.6275349148353548,43.0,434.0,0.0
Y,R,"[6, 9]",1.0,5.0,0.19494104385375977,1.6266059875488281,0.43767176840730926,43.0,435.0,0.0
Y,R,"[6, 10]",1.0,6.0,0.2176659107208252,1.5285580158233643,0.2996681037135399,43.0,436.0,0.0
R,U,"[5, 10]",1.0,7.0,0.5065360069274902,1.8296010494232178,0.312681041176908,43.0,437.0,0.0
R,U,"[4, 10]",1.0,8.0,0.3121509552001953,1.9613909721374512,0.6404638379108072,43.0,438.0,0.0
Y,R,"[4, 11]",0.0,8.0,0.21103596687316895,1.5833327770233154,0.37408719055105183,43.0,439.0,0.0
Y,R,"[4, 12]",-3.0,8.0,0.4281492233276367,2.0468668937683105,0.6206626902450182,43.0,440.0,0.0
,,"(6, 6)",,,,,,43.0,,
R,U,"[5, 6]",1.0,1.0,0.6047348976135254,3.347476005554199,0.55170857654308,,441.0,0.0
Y,R,"[5, 7]",1.0,2.0,0.2691679000854492,2.0156919956207275,0.7340249500338075,44.0,442.0,0.0
Y,R,"[5, 8]",1.0,3.0,0.15691208839416504,1.7136311531066895,0.5478590282199857,44.0,443.0,0.0
G,D,"[6, 8]",1.0,4.0,0.22679996490478516,1.603391170501709,0.36816120189328744,44.0,444.0,0.0
Y,R,"[6, 9]",1.0,5.0,0.4129190444946289,1.8151090145111084,0.3999097110215277,44.0,445.0,0.0
Y,R,"[6, 10]",1.0,6.0,0.2852180004119873,1.6755881309509277,0.3755197461802213,44.0,446.0,0.0
R,U,"[5, 10]",1.0,7.0,0.9166810512542725,2.3750860691070557,0.4506002459704216,44.0,447.0,0.0
R,U,"[4, 10]",1.0,8.0,0.2323000431060791,1.689056158065796,0.4396455489404728,44.0,448.0,0.0
B,L,"[4, 9]",1.0,9.0,0.2645680904388428,1.6927399635314941,0.3991554153884077,44.0,449.0,0.0
R,U,"[3, 9]",1.0,10.0,0.28357696533203125,1.78004789352417,0.49565351521917095,44.0,450.0,0.0
,,"(6, 6)",,,,,,44.0,,
R,U,"[5, 6]",1.0,1.0,0.483410120010376,2.4449641704559326,0.3243585157704196,,451.0,0.0
Y,R,"[5, 7]",1.0,2.0,0.6037540435791016,2.16304612159729,0.5537691816476196,45.0,452.0,0.0
Y,R,"[5, 8]",1.0,3.0,0.4118359088897705,2.102591037750244,0.6894409409547199,45.0,453.0,0.0
G,D,"[6, 8]",1.0,4.0,0.23110103607177734,1.9599039554595947,0.7159952611359108,45.0,454.0,0.0
Y,R,"[6, 9]",1.0,5.0,0.1586000919342041,1.8514459133148193,0.6842096939301081,45.0,455.0,0.0
Y,R,"[6, 10]",1.0,6.0,0.3231198787689209,2.044135808944702,0.7117303214156401,45.0,456.0,0.0
R,U,"[5, 10]",1.0,7.0,0.22551512718200684,1.5666320323944092,0.34557476076189053,45.0,457.0,0.0
R,U,"[4, 10]",1.0,8.0,0.2657010555267334,1.8919498920440674,0.6370195461216784,45.0,458.0,0.0
B,L,"[4, 9]",1.0,9.0,0.3313889503479004,1.982895851135254,0.6534899363299388,45.0,459.0,0.0
R,U,"[3, 9]",1.0,10.0,0.24357295036315918,1.6810660362243652,0.4347368604092532,45.0,460.0,0.0
,,"(6, 6)",,,,,,45.0,,
R,U,"[5, 6]",1.0,1.0,0.4704861640930176,2.7956790924072266,0.6303511945866234,,461.0,0.0
Y,R,"[5, 7]",1.0,2.0,0.3462960720062256,2.093635082244873,0.7405899728113381,46.0,462.0,0.0
Y,R,"[5, 8]",1.0,3.0,0.16212892532348633,1.8341660499572754,0.6749117172040187,46.0,463.0,0.0
G,D,"[6, 8]",1.0,4.0,0.32477712631225586,1.5796680450439453,0.25499962918821856,46.0,464.0,0.0
Y,R,"[6, 9]",1.0,5.0,0.5332000255584717,2.0906789302825928,0.5450722572615316,46.0,465.0,0.0
Y,R,"[6, 10]",1.0,6.0,0.2772700786590576,1.5802068710327148,0.309213761326037,46.0,466.0,0.0
R,U,"[5, 10]",1.0,7.0,0.9909079074859619,2.568457841873169,0.5775559861566525,46.0,467.0,0.0
R,U,"[4, 10]",1.0,8.0,0.3492870330810547,1.8202509880065918,0.46447899305216156,46.0,468.0,0.0
B,L,"[4, 9]",1.0,9.0,0.54205322265625,2.156783103942871,0.6045194676340342,46.0,469.0,0.0
R,U,"[3, 9]",1.0,10.0,0.46913814544677734,1.8243699073791504,0.34590357096806973,46.0,470.0,0.0
,,"(6, 6)",,,,,,46.0,,
R,U,"[5, 6]",1.0,1.0,0.5384938716888428,2.9659998416900635,0.4450910720688668,,471.0,0.0
Y,R,"[5, 7]",1.0,2.0,0.6929290294647217,1.9769978523254395,0.2889156412156202,47.0,472.0,0.0
Y,R,"[5, 8]",1.0,3.0,0.8510270118713379,2.47613787651062,0.6145285501521844,47.0,473.0,0.0
G,D,"[6, 8]",1.0,4.0,0.5246729850769043,2.178809881210327,0.6433385505867969,47.0,474.0,0.0
Y,R,"[6, 9]",1.0,5.0,0.35571980476379395,1.7404379844665527,0.38441196627819607,47.0,475.0,0.0
Y,R,"[6, 10]",1.0,6.0,0.3380401134490967,1.7542610168457031,0.42208112508318296,47.0,476.0,0.0
R,U,"[5, 10]",1.0,7.0,0.6079421043395996,2.252821922302246,0.6409804134280712,47.0,477.0,0.0
B,L,"[5, 9]",0.0,7.0,0.6316189765930176,1.9435100555419922,0.31845707424458175,47.0,478.0,0.0
B,L,"[5, 8]",0.0,7.0,0.671180009841919,2.121670961380005,0.44006766004205866,47.0,479.0,0.0
Y,R,"[5, 9]",0.0,7.0,0.6967790126800537,2.424013137817383,0.7305425408304289,47.0,480.0,0.0
,,"(6, 6)",,,,,,47.0,,
R,U,"[5, 6]",1.0,1.0,0.2937581539154053,3.708134174346924,0.48891884492101334,,481.0,0.0
Y,R,"[5, 7]",1.0,2.0,0.32737112045288086,1.8728790283203125,0.5451853983078527,48.0,482.0,0.0
Y,R,"[5, 8]",1.0,3.0,0.342789888381958,2.078192949295044,0.7398280332474733,48.0,483.0,0.0
G,D,"[6, 8]",1.0,4.0,0.2838101387023926,1.7757389545440674,0.49931551095045407,48.0,484.0,0.0
Y,R,"[6, 9]",1.0,5.0,0.3722851276397705,1.967519998550415,0.5834002492717548,48.0,485.0,0.0
Y,R,"[6, 10]",1.0,6.0,0.33264899253845215,1.7974438667297363,0.44767830111559254,48.0,486.0,0.0
R,U,"[5, 10]",1.0,7.0,0.5797300338745117,2.234055995941162,0.6480556284964237,48.0,487.0,0.0
R,U,"[4, 10]",1.0,8.0,0.24533295631408691,1.8996789455413818,0.647766756449753,48.0,488.0,0.0
B,L,"[4, 9]",1.0,9.0,0.29248714447021484,1.9002900123596191,0.5981281586439335,48.0,489.0,0.0
R,U,"[3, 9]",1.0,10.0,0.3875401020050049,1.9166479110717773,0.5149086366230637,48.0,490.0,0.0
,,"(6, 6)",,,,,,48.0,,
R,U,"[5, 6]",1.0,1.0,0.8008019924163818,3.0659449100494385,0.430862999617137,,491.0,0.0
Y,R,"[5, 7]",1.0,2.0,0.3245580196380615,1.6667389869689941,0.33119106426642503,49.0,492.0,0.0
Y,R,"[5, 8]",1.0,3.0,0.28977298736572266,2.022158145904541,0.7195867695196183,49.0,493.0,0.0
G,D,"[6, 8]",1.0,4.0,0.2552490234375,1.9468019008636475,0.6831765615866725,49.0,494.0,0.0
Y,R,"[6, 9]",1.0,5.0,0.2185380458831787,1.5551550388336182,0.3219588784749808,49.0,495.0,0.0
Y,R,"[6, 10]",1.0,6.0,0.41518592834472656,1.7492198944091797,0.33797625892819666,49.0,496.0,0.0
R,U,"[5, 10]",1.0,7.0,0.5001919269561768,2.224825859069824,0.7124218917272583,49.0,497.0,0.0
R,U,"[4, 10]",1.0,8.0,0.26714611053466797,1.798677921295166,0.5112352738749972,49.0,498.0,0.0
B,L,"[4, 9]",1.0,9.0,0.3197791576385498,1.7778828144073486,0.4559274491716283,49.0,499.0,0.0
R,U,"[3, 9]",1.0,10.0,0.3775210380554199,1.650089979171753,0.2728133712215818,49.0,500.0,0.0
,,"(6, 6)",,,,,,49.0,,
R,U,"[5, 6]",1.0,1.0,0.502985954284668,2.991373062133789,0.5808486434498301,,501.0,0.0
Y,R,"[5, 7]",1.0,2.0,0.24777698516845703,1.6007790565490723,0.34846895084995727,50.0,502.0,0.0
Y,R,"[5, 8]",1.0,3.0,0.6226298809051514,2.1989338397979736,0.5640052005719496,50.0,503.0,0.0
G,D,"[6, 8]",1.0,4.0,0.5828568935394287,2.0856659412384033,0.4829519820327723,50.0,504.0,0.0
Y,R,"[6, 9]",1.0,5.0,0.3657510280609131,1.7543630599975586,0.3708949475241749,50.0,505.0,0.0
Y,R,"[6, 10]",1.0,6.0,0.257282018661499,1.876451015472412,0.613923088638069,50.0,506.0,0.0
R,U,"[5, 10]",1.0,7.0,0.3323979377746582,1.6045129299163818,0.25196980167402805,50.0,507.0,0.0
R,U,"[4, 10]",1.0,8.0,0.5733940601348877,2.282011032104492,0.7002199182585573,50.0,508.0,0.0
B,L,"[4, 9]",1.0,9.0,0.21846508979797363,1.9490458965301514,0.71622642065946,50.0,509.0,0.0
R,U,"[3, 9]",1.0,10.0,0.28615307807922363,1.642380952835083,0.34210012801153195,50.0,510.0,0.0
,,"(6, 6)",,,,,,50.0,,
R,U,"[5, 6]",1.0,1.0,0.5345559120178223,2.4131619930267334,0.30545832983381765,,511.0,0.0
Y,R,"[5, 7]",1.0,2.0,0.4122591018676758,1.8905727863311768,0.4790549789580581,51.0,512.0,0.0
Y,R,"[5, 8]",1.0,3.0,0.27149200439453125,1.8029980659484863,0.515435448665402,51.0,513.0,0.0
G,D,"[6, 8]",1.0,4.0,0.309614896774292,2.0172030925750732,0.6992761593892265,51.0,514.0,0.0
Y,R,"[6, 9]",1.0,5.0,0.3970520496368408,1.7291128635406494,0.32882600808666196,51.0,515.0,0.0
Y,R,"[6, 10]",1.0,6.0,0.37328505516052246,1.7147400379180908,0.3435022464291648,51.0,516.0,0.0
R,U,"[5, 10]",1.0,7.0,0.6906821727752686,2.106714963912964,0.41690413294325535,51.0,517.0,0.0
R,U,"[4, 10]",1.0,8.0,0.31616687774658203,2.0308279991149902,0.6974397419390324,51.0,518.0,0.0
B,L,"[4, 9]",1.0,9.0,0.2832968235015869,1.6781539916992188,0.3760222155429675,51.0,519.0,0.0
R,U,"[3, 9]",1.0,10.0,0.5140371322631836,1.8739039897918701,0.3666274999830184,51.0,520.0,0.0
,,"(6, 6)",,,,,,51.0,,
R,U,"[5, 6]",1.0,1.0,0.4881761074066162,3.52038311958313,0.7197731361715939,,521.0,0.0
Y,R,"[5, 7]",1.0,2.0,0.506964921951294,1.7898108959197998,0.2767222352721896,52.0,522.0,0.0
Y,R,"[5, 8]",1.0,3.0,0.481032133102417,2.0582289695739746,0.5680246037104961,52.0,523.0,0.0
G,D,"[6, 8]",1.0,4.0,0.6475231647491455,1.9650230407714844,0.3169122906298712,52.0,524.0,0.0
Y,R,"[6, 9]",1.0,5.0,0.7820508480072021,2.5121588706970215,0.7284527837870775,52.0,525.0,0.0
Y,R,"[6, 10]",1.0,6.0,0.46790409088134766,2.096400022506714,0.6417817146702642,52.0,526.0,0.0
R,U,"[5, 10]",1.0,7.0,0.3881828784942627,2.0820200443267822,0.7070750001246361,52.0,527.0,0.0
R,U,"[4, 10]",1.0,8.0,0.2548339366912842,1.5744390487670898,0.3155301796233659,52.0,528.0,0.0
B,L,"[4, 9]",1.0,9.0,0.45040082931518555,2.1980810165405273,0.7295639151436203,52.0,529.0,0.0
R,U,"[3, 9]",1.0,10.0,0.3505570888519287,1.619828224182129,0.2502253651705343,52.0,530.0,0.0
,,"(6, 6)",,,,,,52.0,,
R,U,"[5, 6]",1.0,1.0,0.47916603088378906,3.2474160194396973,0.5138795900869613,,531.0,0.0
Y,R,"[5, 7]",1.0,2.0,0.2980070114135742,2.014191150665283,0.6945275750855668,53.0,532.0,0.0
Y,R,"[5, 8]",1.0,3.0,0.2852599620819092,1.9829211235046387,0.6942258965887467,53.0,533.0,0.0
G,D,"[6, 8]",1.0,4.0,0.7058968544006348,2.250946044921875,0.5452927296809505,53.0,534.0,0.0
Y,R,"[6, 9]",1.0,5.0,0.28906798362731934,1.7415740489959717,0.45360356943439545,53.0,535.0,0.0
Y,R,"[6, 10]",1.0,6.0,0.3895280361175537,1.863818883895874,0.4674757461129925,53.0,536.0,0.0
R,U,"[5, 10]",1.0,7.0,0.6582300662994385,2.15818190574646,0.4923891532177259,53.0,537.0,0.0
R,U,"[4, 10]",1.0,8.0,0.304271936416626,1.6733801364898682,0.3659972672143107,53.0,538.0,0.0
B,L,"[4, 9]",1.0,9.0,0.4402799606323242,1.8237040042877197,0.3730470866348223,53.0,539.0,0.0
R,U,"[3, 9]",1.0,10.0,0.29550695419311523,1.9285640716552734,0.6346919963096673,53.0,540.0,0.0
,,"(6, 6)",,,,,,53.0,,
R,U,"[5, 6]",1.0,1.0,0.4583711624145508,2.762134075164795,0.7133250531847216,,541.0,0.0
Y,R,"[5, 7]",1.0,2.0,0.4387049674987793,2.1717398166656494,0.718350392471669,54.0,542.0,0.0
Y,R,"[5, 8]",1.0,3.0,0.27536916732788086,1.660053014755249,0.3790695923610806,54.0,543.0,0.0
G,D,"[6, 8]",1.0,4.0,0.4962899684906006,2.0263819694519043,0.5385279843430816,54.0,544.0,0.0
Y,R,"[6, 9]",1.0,5.0,0.3398580551147461,1.7419400215148926,0.39727904452465557,54.0,545.0,0.0
Y,R,"[6, 10]",1.0,6.0,0.297929048538208,2.0191328525543213,0.6996901378511516,54.0,546.0,0.0
R,U,"[5, 10]",1.0,7.0,0.5864989757537842,2.145210027694702,0.5450105357511426,54.0,547.0,0.0
R,U,"[4, 10]",1.0,8.0,0.2710449695587158,1.8704628944396973,0.5988953988366899,54.0,548.0,0.0
B,L,"[4, 9]",1.0,9.0,0.3480720520019531,1.9534659385681152,0.6021770441136665,54.0,549.0,0.0
R,U,"[3, 9]",1.0,10.0,0.25512194633483887,1.5150318145751953,0.2509223000868911,54.0,550.0,0.0
,,"(6, 6)",,,,,,54.0,,
R,U,"[5, 6]",1.0,1.0,0.3608429431915283,2.7481188774108887,0.5655546543316379,,551.0,0.0
Y,R,"[5, 7]",-1.0,1.0,0.07596611976623535,5.966373920440674,0.7485788503570436,55.0,552.0,0.0
Y,R,"[5, 8]",1.0,2.0,0.39887094497680664,1.694610834121704,0.2767962259173523,55.0,553.0,0.0
Y,R,"[5, 9]",0.0,2.0,0.600517988204956,2.0397109985351562,0.4499142822494315,55.0,554.0,0.0
R,U,"[4, 9]",1.0,3.0,0.3687429428100586,1.7076139450073242,0.32431978921832627,55.0,555.0,0.0
R,U,"[3, 9]",-2.0,3.0,1.3456060886383057,2.9319310188293457,0.556214696377658,55.0,556.0,0.0
R,U,"[2, 9]",0.0,3.0,0.5313630104064941,2.0461819171905518,0.5189537878052896,55.0,557.0,0.0
G,D,"[3, 9]",0.0,3.0,0.3584599494934082,1.6563389301300049,0.29228484863493515,55.0,558.0,0.0
G,D,"[4, 9]",0.0,3.0,0.41549015045166016,2.1217188835144043,0.7135238915726236,55.0,559.0,0.0
Y,R,"[4, 10]",1.0,4.0,0.3782069683074951,1.7725939750671387,0.3865134220985829,55.0,560.0,0.0
,,"(6, 6)",,,,,,55.0,,
R,U,"[5, 6]",1.0,1.0,0.42694592475891113,4.848272085189819,0.6346835200116826,,561.0,0.0
Y,R,"[5, 7]",1.0,2.0,0.28693509101867676,2.007174015045166,0.7083258029698533,56.0,562.0,0.0
Y,R,"[5, 8]",1.0,3.0,0.23506498336791992,1.9233770370483398,0.6816704035150691,56.0,563.0,0.0
G,D,"[6, 8]",1.0,4.0,0.23562407493591309,1.9131689071655273,0.6615679317388183,56.0,564.0,0.0
Y,R,"[6, 9]",1.0,5.0,0.3438389301300049,1.7275800704956055,0.3894362438996391,56.0,565.0,0.0
Y,R,"[6, 10]",1.0,6.0,0.370405912399292,1.6656959056854248,0.28864281823943194,56.0,566.0,0.0
R,U,"[5, 10]",1.0,7.0,0.9222180843353271,2.675493001937866,0.7470223147092293,56.0,567.0,0.0
R,U,"[4, 10]",1.0,8.0,0.3327770233154297,2.0894768238067627,0.7365188827446382,56.0,568.0,0.0
B,L,"[4, 9]",1.0,9.0,0.3140389919281006,1.7822880744934082,0.46909373115037684,56.0,569.0,0.0
R,U,"[3, 9]",1.0,10.0,0.5764560699462891,1.9010300636291504,0.3203273465863312,56.0,570.0,0.0
,,"(6, 6)",,,,,,56.0,,
R,U,"[5, 6]",1.0,1.0,0.41713905334472656,2.7059030532836914,0.6927352424713324,,571.0,0.0
Y,R,"[5, 7]",1.0,2.0,0.2861480712890625,1.9563751220703125,0.6656652401349489,57.0,572.0,0.0
Y,R,"[5, 8]",1.0,3.0,0.28159308433532715,1.876033067703247,0.5919312767148353,57.0,573.0,0.0
G,D,"[6, 8]",1.0,4.0,0.4429280757904053,1.8073921203613281,0.36612676351132484,57.0,574.0,0.0
Y,R,"[6, 9]",1.0,5.0,0.2873399257659912,1.903784990310669,0.6030733725552075,57.0,575.0,0.0
Y,R,"[6, 10]",1.0,6.0,0.29541492462158203,1.8953659534454346,0.5985203568881233,57.0,576.0,0.0
R,U,"[5, 10]",1.0,7.0,0.3224921226501465,1.926151990890503,0.5912714564721138,57.0,577.0,0.0
R,U,"[4, 10]",1.0,8.0,0.4849569797515869,2.161043167114258,0.6690652495837537,57.0,578.0,0.0
B,L,"[4, 9]",1.0,9.0,0.30829286575317383,1.8925349712371826,0.578559495025055,57.0,579.0,0.0
R,U,"[3, 9]",1.0,10.0,0.2992739677429199,1.8225889205932617,0.5178634910733928,57.0,580.0,0.0
,,"(6, 6)",,,,,,57.0,,
R,U,"[5, 6]",1.0,1.0,0.48732900619506836,2.9737980365753174,0.425221006763248,,581.0,0.0
Y,R,"[5, 7]",1.0,2.0,0.4092130661010742,1.9927351474761963,0.5843383002233913,58.0,582.0,0.0
Y,R,"[5, 8]",1.0,3.0,0.3752601146697998,1.6935911178588867,0.31165917490977557,58.0,583.0,0.0
G,D,"[6, 8]",1.0,4.0,0.6772639751434326,1.996201992034912,0.3246291191182034,58.0,584.0,0.0
Y,R,"[6, 9]",1.0,5.0,0.4130520820617676,1.9836618900299072,0.574594847620135,58.0,585.0,0.0
Y,R,"[6, 10]",1.0,6.0,0.21391892433166504,1.9382171630859375,0.7293390381725613,58.0,586.0,0.0
R,U,"[5, 10]",1.0,7.0,0.27701497077941895,1.8710219860076904,0.5839019171469392,58.0,587.0,0.0
R,U,"[4, 10]",1.0,8.0,0.22142601013183594,1.8635079860687256,0.6307587882459869,58.0,588.0,0.0
B,L,"[4, 9]",1.0,9.0,0.37166404724121094,1.7739849090576172,0.3882994825489697,58.0,589.0,0.0
R,U,"[3, 9]",1.0,10.0,0.3891119956970215,2.031611919403076,0.6364550326388219,58.0,590.0,0.0
,,"(6, 6)",,,,,,58.0,,
R,U,"[5, 6]",1.0,1.0,0.6599059104919434,6.811561107635498,0.4813632863052905,,591.0,0.0
Y,R,"[5, 7]",1.0,2.0,0.49231791496276855,2.118412971496582,0.616408178897839,59.0,592.0,0.0
Y,R,"[5, 8]",1.0,3.0,0.2758491039276123,2.025214910507202,0.7414139861161718,59.0,593.0,0.0
G,D,"[6, 8]",1.0,4.0,0.5431380271911621,1.9447758197784424,0.4034218414794258,59.0,594.0,0.0
Y,R,"[6, 9]",1.0,5.0,0.5793070793151855,2.1497440338134766,0.5697781620483077,59.0,595.0,0.0
Y,R,"[6, 10]",1.0,6.0,0.2642698287963867,1.5823829174041748,0.319091315737483,59.0,596.0,0.0
R,U,"[5, 10]",1.0,7.0,0.3419630527496338,1.9492640495300293,0.6014891301434462,59.0,597.0,0.0
R,U,"[4, 10]",1.0,8.0,0.3291640281677246,1.9387600421905518,0.6072746939350352,59.0,598.0,0.0
B,L,"[4, 9]",1.0,9.0,0.30665111541748047,1.574476957321167,0.2651597317146579,59.0,599.0,0.0
R,U,"[3, 9]",1.0,10.0,0.6543788909912109,2.3559250831604004,0.6874430549145488,59.0,600.0,0.0
,,"(6, 6)",,,,,,59.0,,
R,U,"[5, 6]",1.0,1.0,0.7463879585266113,23.591022968292236,0.41221107363231585,,601.0,0.0
Y,R,"[5, 7]",1.0,2.0,0.7748680114746094,2.4486942291259766,0.6772255763063748,60.0,602.0,0.0
Y,R,"[5, 8]",1.0,3.0,0.25730109214782715,1.7804539203643799,0.5247201023134243,60.0,603.0,0.0
G,D,"[6, 8]",1.0,4.0,0.5947098731994629,2.325317859649658,0.7331758805239423,60.0,604.0,0.0
Y,R,"[6, 9]",1.0,5.0,0.58837890625,2.1628549098968506,0.5627325393371063,60.0,605.0,0.0
Y,R,"[6, 10]",1.0,6.0,0.18193316459655762,1.7344331741333008,0.5306220644088737,60.0,606.0,0.0
R,U,"[5, 10]",1.0,7.0,0.4636499881744385,1.9243719577789307,0.455160670341586,60.0,607.0,0.0
R,U,"[4, 10]",1.0,8.0,0.7060840129852295,2.1587908267974854,0.4475338484196342,60.0,608.0,0.0
B,L,"[4, 9]",1.0,9.0,0.5974500179290771,2.171807050704956,0.5689030091431506,60.0,609.0,0.0
R,U,"[3, 9]",1.0,10.0,0.3558828830718994,2.0094149112701416,0.6450925261877842,60.0,610.0,0.0
,,"(6, 6)",,,,,,60.0,,
R,U,"[5, 6]",1.0,1.0,0.5845780372619629,3.079742908477783,0.3253898157340496,,611.0,0.0
Y,R,"[5, 7]",1.0,2.0,0.3219587802886963,1.8178308010101318,0.49293946958040863,61.0,612.0,0.0
Y,R,"[5, 8]",1.0,3.0,0.3231320381164551,2.053334951400757,0.7292571744812745,61.0,613.0,0.0
G,D,"[6, 8]",1.0,4.0,0.3338150978088379,1.7571039199829102,0.4202243246537928,61.0,614.0,0.0
Y,R,"[6, 9]",1.0,5.0,0.31842589378356934,1.759768009185791,0.4299859907913645,61.0,615.0,0.0
Y,R,"[6, 10]",1.0,6.0,0.3641180992126465,1.9351859092712402,0.5485249307508233,61.0,616.0,0.0
R,U,"[5, 10]",1.0,7.0,0.5077040195465088,2.050441026687622,0.5323318439472602,61.0,617.0,0.0
R,U,"[4, 10]",1.0,8.0,0.5427560806274414,2.1003520488739014,0.5493095894959237,61.0,618.0,0.0
Y,R,"[4, 11]",0.0,8.0,0.6788539886474609,2.3562920093536377,0.6722525094122803,61.0,619.0,0.0
R,U,"[3, 11]",0.0,8.0,0.6949119567871094,2.0078418254852295,0.3138332701338582,61.0,620.0,0.0
,,"(6, 6)",,,,,,61.0,,
R,U,"[5, 6]",1.0,1.0,0.8526029586791992,2.787700891494751,0.25133998279927644,,621.0,0.0
Y,R,"[5, 7]",1.0,2.0,0.7193629741668701,2.128931999206543,0.3969634183890191,62.0,622.0,0.0
Y,R,"[5, 8]",1.0,3.0,0.3266899585723877,1.7598109245300293,0.4234350009857122,62.0,623.0,0.0
G,D,"[6, 8]",1.0,4.0,0.31116414070129395,1.6360549926757812,0.3264840960065808,62.0,624.0,0.0
Y,R,"[6, 9]",1.0,5.0,0.34977102279663086,2.019582986831665,0.6623817966670547,62.0,625.0,0.0
Y,R,"[6, 10]",1.0,6.0,0.38698601722717285,1.992691993713379,0.6050370138560577,62.0,626.0,0.0
R,U,"[5, 10]",1.0,7.0,0.8590350151062012,2.562594175338745,0.7008525707271336,62.0,627.0,0.0
R,U,"[4, 10]",1.0,8.0,0.30843091011047363,1.7946510314941406,0.4791889148647795,62.0,628.0,0.0
B,L,"[4, 9]",1.0,9.0,0.4574589729309082,2.061383008956909,0.5905519709117074,62.0,629.0,0.0
R,U,"[3, 9]",1.0,10.0,0.3697509765625,1.6742770671844482,0.29838178351720646,62.0,630.0,0.0
,,"(6, 6)",,,,,,62.0,,
R,U,"[5, 6]",1.0,1.0,0.3913888931274414,2.6074318885803223,0.33934886583984203,,631.0,0.0
Y,R,"[5, 7]",1.0,2.0,0.4913809299468994,1.918320894241333,0.42410767371690955,63.0,632.0,0.0
Y,R,"[5, 8]",1.0,3.0,0.339763879776001,1.7742600440979004,0.4315965771256354,63.0,633.0,0.0
G,D,"[6, 8]",1.0,4.0,0.47938108444213867,2.1756460666656494,0.6902327963328456,63.0,634.0,0.0
Y,R,"[6, 9]",1.0,5.0,0.21979093551635742,1.9347920417785645,0.7086111783317435,63.0,635.0,0.0
Y,R,"[6, 10]",1.0,6.0,0.26654505729675293,1.9886231422424316,0.7306402563135483,63.0,636.0,0.0
R,U,"[5, 10]",1.0,7.0,0.47361207008361816,2.181321144104004,0.6951466949803478,63.0,637.0,0.0
R,U,"[4, 10]",1.0,8.0,0.2602369785308838,1.929527997970581,0.6747344837304476,63.0,638.0,0.0
B,L,"[4, 9]",1.0,9.0,0.4372291564941406,2.0021870136260986,0.5605964413225115,63.0,639.0,0.0
R,U,"[3, 9]",1.0,10.0,0.3328671455383301,1.9325318336486816,0.609866503552702,63.0,640.0,0.0
,,"(6, 6)",,,,,,63.0,,
R,U,"[5, 6]",1.0,1.0,0.3896048069000244,2.639725923538208,0.649355065760009,,641.0,0.0
Y,R,"[5, 7]",-1.0,1.0,0.05064797401428223,5.685845136642456,0.5021468226545622,64.0,642.0,0.0
Y,R,"[5, 8]",1.0,2.0,0.415647029876709,2.0938072204589844,0.6624875692633043,64.0,643.0,0.0
G,D,"[6, 8]",1.0,3.0,0.2696418762207031,1.7447450160980225,0.45734337993946034,64.0,644.0,0.0
Y,R,"[6, 9]",1.0,4.0,0.533271074295044,1.8211510181427002,0.2787284550990406,64.0,645.0,0.0
Y,R,"[6, 10]",1.0,5.0,0.6017560958862305,1.9620919227600098,0.35742911586766113,64.0,646.0,0.0
R,U,"[5, 10]",1.0,6.0,0.655073881149292,2.2106151580810547,0.551252859036266,64.0,647.0,0.0
R,U,"[4, 10]",1.0,7.0,0.3685441017150879,1.6748590469360352,0.3099371408625518,64.0,648.0,0.0
B,L,"[4, 9]",1.0,8.0,0.4710390567779541,2.1910150051116943,0.7172107223291382,64.0,649.0,0.0
R,U,"[3, 9]",1.0,9.0,0.41432714462280273,2.063621997833252,0.6473656299350032,64.0,650.0,0.0
,,"(6, 6)",,,,,,64.0,,
R,U,"[5, 6]",1.0,1.0,0.8124091625213623,3.0287489891052246,0.25989746134303227,,651.0,0.0
Y,R,"[5, 7]",1.0,2.0,0.7528641223907471,2.4621801376342773,0.7051295868974655,65.0,652.0,0.0
Y,R,"[5, 8]",1.0,3.0,0.47526001930236816,1.9490530490875244,0.47118835181409957,65.0,653.0,0.0
G,D,"[6, 8]",1.0,4.0,0.6421108245849609,2.1666321754455566,0.5211830281689377,65.0,654.0,0.0
Y,R,"[6, 9]",1.0,5.0,0.662431001663208,2.406238079071045,0.7437367563886297,65.0,655.0,0.0
Y,R,"[6, 10]",1.0,6.0,0.3667030334472656,1.960547924041748,0.5877891213569169,65.0,656.0,0.0
R,U,"[5, 10]",1.0,7.0,0.517927885055542,2.1296849250793457,0.6010885851442775,65.0,657.0,0.0
R,U,"[4, 10]",1.0,8.0,0.3601551055908203,1.8600060939788818,0.4943413847076297,65.0,658.0,0.0
B,L,"[4, 9]",-2.0,8.0,1.167076826095581,2.888329029083252,0.6992252242173239,65.0,659.0,0.0
R,U,"[3, 9]",1.0,9.0,0.3604700565338135,1.8722569942474365,0.5050417005577348,65.0,660.0,0.0
,,"(6, 6)",,,,,,65.0,,
R,U,"[5, 6]",1.0,1.0,0.46457505226135254,2.188601016998291,0.3271375173898207,,661.0,0.0
Y,R,"[5, 7]",1.0,2.0,0.5292689800262451,2.142606019973755,0.6193628543257832,66.0,662.0,0.0
Y,R,"[5, 8]",1.0,3.0,0.2782878875732422,2.0093729496002197,0.7288644507041289,66.0,663.0,0.0
G,D,"[6, 8]",1.0,4.0,0.2863428592681885,1.8470911979675293,0.5594551927437638,66.0,664.0,0.0
Y,R,"[6, 9]",1.0,5.0,0.4485011100769043,2.1911110877990723,0.7170171851846021,66.0,665.0,0.0
Y,R,"[6, 10]",-1.0,5.0,0.030729055404663086,5.7992448806762695,0.63337025925522,66.0,666.0,0.0
R,U,"[5, 10]",1.0,6.0,0.3236398696899414,1.8388950824737549,0.5056692785298871,66.0,667.0,0.0
R,U,"[4, 10]",1.0,7.0,0.26644277572631836,1.762199878692627,0.5011486199729962,66.0,668.0,0.0
B,L,"[4, 9]",1.0,8.0,0.33385205268859863,1.7846770286560059,0.4359239526488446,66.0,669.0,0.0
R,U,"[3, 9]",1.0,9.0,0.2986409664154053,2.0397019386291504,0.7252632361698674,66.0,670.0,0.0
,,"(6, 6)",,,,,,66.0,,
R,U,"[5, 6]",1.0,1.0,0.572504997253418,2.7610628604888916,0.4869530527815596,,671.0,0.0
Y,R,"[5, 7]",1.0,2.0,0.40834593772888184,1.8561680316925049,0.44317049854900636,67.0,672.0,0.0
Y,R,"[5, 8]",1.0,3.0,0.4577209949493408,1.9975190162658691,0.5405362625423588,67.0,673.0,0.0
G,D,"[6, 8]",1.0,4.0,0.6368248462677002,2.3521461486816406,0.7091178545544902,67.0,674.0,0.0
Y,R,"[6, 9]",1.0,5.0,0.2472820281982422,1.9695050716400146,0.7284771230594199,67.0,675.0,0.0
Y,R,"[6, 10]",1.0,6.0,0.2514679431915283,1.6844499111175537,0.4299970217736014,67.0,676.0,0.0
R,U,"[5, 10]",1.0,7.0,0.7746570110321045,2.263946056365967,0.4773785869522679,67.0,677.0,0.0
R,U,"[4, 10]",1.0,8.0,0.2386319637298584,1.589951992034912,0.3509292048348671,67.0,678.0,0.0
B,L,"[4, 9]",1.0,9.0,0.5754451751708984,2.26409912109375,0.6811481273888534,67.0,679.0,0.0
R,U,"[3, 9]",1.0,10.0,0.4233980178833008,1.9316351413726807,0.4962781544270333,67.0,680.0,0.0
,,"(6, 6)",,,,,,67.0,,
R,U,"[5, 6]",1.0,1.0,0.547935962677002,3.385859966278076,0.7489317328947511,,681.0,0.0
Y,R,"[5, 7]",1.0,2.0,0.6094090938568115,1.901947021484375,0.2843903693200289,68.0,682.0,0.0
Y,R,"[5, 8]",1.0,3.0,0.847445011138916,2.4384748935699463,0.5729197640465438,68.0,683.0,0.0
G,D,"[6, 8]",1.0,4.0,0.24421000480651855,1.5644080638885498,0.32090982983343597,68.0,684.0,0.0
Y,R,"[6, 9]",1.0,5.0,0.43027806282043457,2.0291659832000732,0.5995223013089667,68.0,685.0,0.0
Y,R,"[6, 10]",1.0,6.0,0.19552993774414062,1.898380994796753,0.6979752225777416,68.0,686.0,0.0
R,U,"[5, 10]",1.0,7.0,0.38433408737182617,1.8781578540802002,0.4763183748418463,68.0,687.0,0.0
R,U,"[4, 10]",1.0,8.0,0.7647519111633301,2.437340021133423,0.6804015111528863,68.0,688.0,0.0
B,L,"[4, 9]",1.0,9.0,0.18709707260131836,1.5463030338287354,0.3436435878731267,68.0,689.0,0.0
R,U,"[3, 9]",1.0,10.0,0.38470005989074707,2.1079020500183105,0.7343232506729587,68.0,690.0,0.0
,,"(6, 6)",,,,,,68.0,,
R,U,"[5, 6]",1.0,1.0,0.5459470748901367,2.489086866378784,0.3573990782539546,,691.0,0.0
Y,R,"[5, 7]",1.0,2.0,0.5696499347686768,2.20688796043396,0.630730458348425,69.0,692.0,0.0
Y,R,"[5, 8]",1.0,3.0,0.25201892852783203,1.6441030502319336,0.3750019672820415,69.0,693.0,0.0
G,D,"[6, 8]",1.0,4.0,0.5612998008728027,2.096562147140503,0.538135546675842,69.0,694.0,0.0
Y,R,"[6, 9]",1.0,5.0,0.2630889415740967,1.9121711254119873,0.6500635316741561,69.0,695.0,0.0
Y,R,"[6, 10]",1.0,6.0,0.2992880344390869,1.8650460243225098,0.5486067923930583,69.0,696.0,0.0
R,U,"[5, 10]",1.0,7.0,0.3536720275878906,2.049506187438965,0.6813988784057137,69.0,697.0,0.0
R,U,"[4, 10]",1.0,8.0,0.27309203147888184,1.9182050228118896,0.6330959162166934,69.0,698.0,0.0
B,L,"[4, 9]",1.0,9.0,0.32711005210876465,1.8416471481323242,0.5083255816716473,69.0,699.0,0.0
R,U,"[3, 9]",1.0,10.0,0.3354949951171875,2.0541939735412598,0.7122926451707763,69.0,700.0,0.0
,,"(6, 6)",,,,,,69.0,,
R,U,"[5, 6]",1.0,1.0,0.46125316619873047,2.8266050815582275,0.7055151596672129,,701.0,0.0
Y,R,"[5, 7]",1.0,2.0,0.23276495933532715,1.524137020111084,0.2801844728093377,70.0,702.0,0.0
Y,R,"[5, 8]",1.0,3.0,0.41247010231018066,2.0562667846679688,0.636145201149368,70.0,703.0,0.0
G,D,"[6, 8]",1.0,4.0,0.40175414085388184,2.14351487159729,0.7295263471494271,70.0,704.0,0.0
Y,R,"[6, 9]",1.0,5.0,0.23406696319580078,1.839000940322876,0.5853847613528136,70.0,705.0,0.0
Y,R,"[6, 10]",1.0,6.0,0.322314977645874,1.7237861156463623,0.3924591875850156,70.0,706.0,0.0
R,U,"[5, 10]",1.0,7.0,0.408858060836792,1.9292800426483154,0.5218558464746665,70.0,707.0,0.0
R,U,"[4, 10]",1.0,8.0,0.8004641532897949,2.1558139324188232,0.3444952922614418,70.0,708.0,0.0
B,L,"[4, 9]",1.0,9.0,0.404616117477417,1.7533390522003174,0.36467653663306004,70.0,709.0,0.0
R,U,"[3, 9]",1.0,10.0,0.4469599723815918,1.8248322010040283,0.37265211120602,70.0,710.0,0.0
,,"(6, 6)",,,,,,70.0,,
R,U,"[5, 6]",1.0,1.0,0.5522708892822266,3.5440940856933594,0.6498807443315175,,711.0,0.0
Y,R,"[5, 7]",1.0,2.0,0.3415520191192627,2.0606842041015625,0.7105218839801237,71.0,712.0,0.0
Y,R,"[5, 8]",1.0,3.0,0.23964810371398926,1.7040009498596191,0.4648835777001058,71.0,713.0,0.0
G,D,"[6, 8]",1.0,4.0,0.4168410301208496,1.8658192157745361,0.43070259322751925,71.0,714.0,0.0
Y,R,"[6, 9]",1.0,5.0,0.2724449634552002,1.607253074645996,0.3217600400715899,71.0,715.0,0.0
Y,R,"[6, 10]",1.0,6.0,0.32305097579956055,1.8530869483947754,0.524654239463286,71.0,716.0,0.0
R,U,"[5, 10]",1.0,7.0,0.2115640640258789,1.5368499755859375,0.32824525733619825,71.0,717.0,0.0
R,U,"[4, 10]",1.0,8.0,0.4081439971923828,1.839095115661621,0.43394167894248653,71.0,718.0,0.0
B,L,"[4, 9]",1.0,9.0,0.23218607902526855,1.7826361656188965,0.5332595324956237,71.0,719.0,0.0
R,U,"[3, 9]",1.0,10.0,0.20691299438476562,1.8696200847625732,0.652660791528488,71.0,720.0,0.0
,,"(6, 6)",,,,,,71.0,,
R,U,"[5, 6]",1.0,1.0,0.4775228500366211,2.9735541343688965,0.42630372343935213,,721.0,0.0
Y,R,"[5, 7]",1.0,2.0,0.5037009716033936,1.9699480533599854,0.4629651521573446,72.0,722.0,0.0
Y,R,"[5, 8]",1.0,3.0,0.4153330326080322,2.187103033065796,0.749813625329475,72.0,723.0,0.0
G,D,"[6, 8]",1.0,4.0,0.6201021671295166,2.09484601020813,0.4617641082419671,72.0,724.0,0.0
Y,R,"[6, 9]",1.0,5.0,0.49887990951538086,2.052304983139038,0.5639149152303504,72.0,725.0,0.0
Y,R,"[6, 10]",1.0,6.0,0.3493990898132324,1.9997859001159668,0.6303626919721106,72.0,726.0,0.0
R,U,"[5, 10]",1.0,7.0,0.371492862701416,1.9113759994506836,0.5419399141684461,72.0,727.0,0.0
R,U,"[4, 10]",1.0,8.0,0.4933497905731201,2.1384260654449463,0.6468960544313495,72.0,728.0,0.0
B,L,"[4, 9]",1.0,9.0,0.23943400382995605,1.758409023284912,0.5055386374702047,72.0,729.0,0.0
R,U,"[3, 9]",1.0,10.0,0.20957493782043457,1.5656380653381348,0.35474955476411485,72.0,730.0,0.0
,,"(6, 6)",,,,,,72.0,,
R,U,"[5, 6]",1.0,1.0,0.4903252124786377,2.7647018432617188,0.685817850300005,,731.0,0.0
Y,R,"[5, 7]",1.0,2.0,0.22843003273010254,1.8264129161834717,0.5957528610015297,73.0,732.0,0.0
Y,R,"[5, 8]",1.0,3.0,0.22505903244018555,1.5626461505889893,0.3418349272587845,73.0,733.0,0.0
G,D,"[6, 8]",-2.0,3.0,1.0473859310150146,2.5950710773468018,0.5199767565073183,73.0,734.0,0.0
Y,R,"[6, 9]",1.0,4.0,0.5522611141204834,2.2728431224823,0.7093793641509958,73.0,735.0,0.0
Y,R,"[6, 10]",1.0,5.0,0.3058791160583496,1.7398130893707275,0.4328003718940213,73.0,736.0,0.0
R,U,"[5, 10]",1.0,6.0,0.4386930465698242,1.7555811405181885,0.30523561659482734,73.0,737.0,0.0
R,U,"[4, 10]",1.0,7.0,0.42774486541748047,1.9708831310272217,0.5425278031824532,73.0,738.0,0.0
B,L,"[4, 9]",1.0,8.0,0.1735219955444336,1.7830009460449219,0.6089216761394174,73.0,739.0,0.0
R,U,"[3, 9]",1.0,9.0,0.2382519245147705,1.8718369007110596,0.6306657257438095,73.0,740.0,0.0
,,"(6, 6)",,,,,,73.0,,
R,U,"[5, 6]",1.0,1.0,0.346282958984375,3.4950690269470215,0.6593091858370177,,741.0,0.0
Y,R,"[5, 7]",1.0,2.0,0.30336904525756836,1.8959050178527832,0.5885035409438004,74.0,742.0,0.0
Y,R,"[5, 8]",1.0,3.0,0.24163508415222168,1.862084150314331,0.6172810985813604,74.0,743.0,0.0
Y,R,"[5, 9]",0.0,3.0,0.3868710994720459,2.1279330253601074,0.7286431438059249,74.0,744.0,0.0
Y,R,"[5, 10]",1.0,4.0,0.43026280403137207,2.0850980281829834,0.6637749477799713,74.0,745.0,0.0
Y,R,"[5, 11]",0.0,4.0,0.532325029373169,2.1806869506835938,0.644659540247281,74.0,746.0,0.0
R,U,"[4, 11]",0.0,4.0,0.2549118995666504,1.7927711009979248,0.537257483521185,74.0,747.0,0.0
R,U,"[3, 11]",0.0,4.0,0.30758190155029297,1.9246110916137695,0.6119270347234739,74.0,748.0,0.0
G,D,"[4, 11]",0.0,4.0,0.36132001876831055,1.6409990787506104,0.28650572191558515,74.0,749.0,0.0
R,U,"[3, 11]",0.0,4.0,0.5462639331817627,2.046138048171997,0.49899394919120993,74.0,750.0,0.0
,,"(6, 6)",,,,,,74.0,,
R,U,"[5, 6]",1.0,1.0,0.47672414779663086,2.2710211277008057,0.3204404694798562,,751.0,0.0
Y,R,"[5, 7]",1.0,2.0,0.3778219223022461,1.8937079906463623,0.5140750998954253,75.0,752.0,0.0
Y,R,"[5, 8]",1.0,3.0,0.2469499111175537,1.9492452144622803,0.6963720771724871,75.0,753.0,0.0
G,D,"[6, 8]",1.0,4.0,0.2748098373413086,1.5838820934295654,0.2974869729367125,75.0,754.0,0.0
Y,R,"[6, 9]",1.0,5.0,0.419003963470459,1.8826088905334473,0.4468069322364277,75.0,755.0,0.0
Y,R,"[6, 10]",1.0,6.0,0.4212319850921631,1.8562660217285156,0.41957257786629415,75.0,756.0,0.0
R,U,"[5, 10]",1.0,7.0,0.42232799530029297,1.7066869735717773,0.27652139550108346,75.0,757.0,0.0
R,U,"[4, 10]",1.0,8.0,0.49350500106811523,1.9302167892456055,0.4399512302640118,75.0,758.0,0.0
B,L,"[4, 9]",1.0,9.0,0.3581571578979492,1.991070032119751,0.6307811656686946,75.0,759.0,0.0
R,U,"[3, 9]",1.0,10.0,0.23133397102355957,1.5621981620788574,0.3268045547719016,75.0,760.0,0.0
,,"(6, 6)",,,,,,75.0,,
R,U,"[5, 6]",1.0,1.0,0.7486670017242432,4.731703042984009,0.34176340162022206,,761.0,0.0
Y,R,"[5, 7]",1.0,2.0,0.7243800163269043,2.074193000793457,0.3492322288693577,76.0,762.0,0.0
Y,R,"[5, 8]",1.0,3.0,0.44589710235595703,1.818065881729126,0.3672152176874626,76.0,763.0,0.0
G,D,"[6, 8]",1.0,4.0,0.9342892169952393,2.48952317237854,0.5400125371850186,76.0,764.0,0.0
Y,R,"[6, 9]",1.0,5.0,0.4990530014038086,1.8080840110778809,0.3150618013186961,76.0,765.0,0.0
Y,R,"[6, 10]",1.0,6.0,0.9689350128173828,2.613646984100342,0.6286200860446989,76.0,766.0,0.0
R,U,"[5, 10]",1.0,7.0,0.3206291198730469,1.965757131576538,0.6606506246699267,76.0,767.0,0.0
R,U,"[4, 10]",1.0,8.0,0.33079981803894043,2.0173330307006836,0.6946327597222153,76.0,768.0,0.0
B,L,"[4, 9]",1.0,9.0,0.24556612968444824,1.681117057800293,0.44290257968173435,76.0,769.0,0.0
R,U,"[3, 9]",1.0,10.0,0.32512903213500977,2.046344041824341,0.7224961121879683,76.0,770.0,0.0
,,"(6, 6)",,,,,,76.0,,
R,U,"[5, 6]",1.0,1.0,0.3685789108276367,24.60408902168274,0.5603927457312896,,771.0,0.0
Y,R,"[5, 7]",1.0,2.0,0.37994909286499023,1.9479708671569824,0.5750360580701526,77.0,772.0,0.0
Y,R,"[5, 8]",1.0,3.0,0.375730037689209,1.749459981918335,0.3746262586309275,77.0,773.0,0.0
G,D,"[6, 8]",1.0,4.0,0.5329079627990723,1.8979418277740479,0.3559478888193471,77.0,774.0,0.0
Y,R,"[6, 9]",1.0,5.0,0.3530569076538086,1.6704039573669434,0.3097560971563205,77.0,775.0,0.0
Y,R,"[6, 10]",1.0,6.0,0.6895139217376709,2.345961093902588,0.6553455385440743,77.0,776.0,0.0
R,U,"[5, 10]",1.0,7.0,0.4944040775299072,1.9151999950408936,0.42088592649087264,77.0,777.0,0.0
R,U,"[4, 10]",1.0,8.0,0.29335689544677734,1.8412539958953857,0.5455499820046961,77.0,778.0,0.0
B,L,"[4, 9]",1.0,9.0,0.2228410243988037,1.9511160850524902,0.7296720962484489,77.0,779.0,0.0
R,U,"[3, 9]",1.0,10.0,0.2639470100402832,1.747131109237671,0.4769213733758204,77.0,780.0,0.0
,,"(6, 6)",,,,,,77.0,,
R,U,"[5, 6]",1.0,1.0,0.6366169452667236,3.1630470752716064,0.5899567501033918,,781.0,0.0
Y,R,"[5, 7]",1.0,2.0,0.36608099937438965,1.9458870887756348,0.5693499575718407,78.0,782.0,0.0
Y,R,"[5, 8]",1.0,3.0,0.16527795791625977,1.8933181762695312,0.7124064391882845,78.0,783.0,0.0
G,D,"[6, 8]",1.0,4.0,0.39430713653564453,1.9362540245056152,0.5323643072842753,78.0,784.0,0.0
Y,R,"[6, 9]",1.0,5.0,0.2899501323699951,1.9461979866027832,0.6450311864291853,78.0,785.0,0.0
Y,R,"[6, 10]",1.0,6.0,0.1737990379333496,1.7767610549926758,0.6052716212996561,78.0,786.0,0.0
R,U,"[5, 10]",1.0,7.0,0.4154839515686035,1.8872931003570557,0.459378136163549,78.0,787.0,0.0
R,U,"[4, 10]",1.0,8.0,0.35215187072753906,2.0671820640563965,0.7097720770605549,78.0,788.0,0.0
B,L,"[4, 9]",1.0,9.0,0.3086838722229004,1.9510681629180908,0.6442777011834471,78.0,789.0,0.0
R,U,"[3, 9]",1.0,10.0,0.2606050968170166,1.573235034942627,0.3179042900555661,78.0,790.0,0.0
,,"(6, 6)",,,,,,78.0,,
R,U,"[5, 6]",1.0,1.0,0.4178481101989746,2.5856070518493652,0.45344611159636855,,791.0,0.0
Y,R,"[5, 7]",1.0,2.0,0.48274707794189453,2.0591201782226562,0.5623162225871083,79.0,792.0,0.0
Y,R,"[5, 8]",1.0,3.0,0.37848591804504395,2.0602340698242188,0.6723480524718766,79.0,793.0,0.0
G,D,"[6, 8]",1.0,4.0,0.3105049133300781,2.0530149936676025,0.7421552880668965,79.0,794.0,0.0
Y,R,"[6, 9]",1.0,5.0,0.22666215896606445,1.8584108352661133,0.6339695051898973,79.0,795.0,0.0
Y,R,"[6, 10]",1.0,6.0,0.27988195419311523,1.8753859996795654,0.5927309199992872,79.0,796.0,0.0
R,U,"[5, 10]",1.0,7.0,0.31566500663757324,1.9064149856567383,0.5997750390240223,79.0,797.0,0.0
R,U,"[4, 10]",1.0,8.0,0.3258190155029297,1.7582440376281738,0.4244881854280758,79.0,798.0,0.0
B,L,"[4, 9]",1.0,9.0,0.346146821975708,1.641512155532837,0.2995548524161463,79.0,799.0,0.0
R,U,"[3, 9]",1.0,10.0,0.5209898948669434,1.9015510082244873,0.3677080635320501,79.0,800.0,0.0
,,"(6, 6)",,,,,,79.0,,
R,U,"[5, 6]",1.0,1.0,0.39931702613830566,2.675530195236206,0.6096704935529778,,801.0,0.0
Y,R,"[5, 7]",1.0,2.0,0.2793900966644287,1.555509090423584,0.2821872700075192,80.0,802.0,0.0
Y,R,"[5, 8]",1.0,3.0,0.48178791999816895,2.2053468227386475,0.7202469549754941,80.0,803.0,0.0
G,D,"[6, 8]",1.0,4.0,0.31878089904785156,1.6641268730163574,0.3348868732753306,80.0,804.0,0.0
Y,R,"[6, 9]",1.0,5.0,0.5374910831451416,2.0125060081481934,0.48054220763575384,80.0,805.0,0.0
Y,R,"[6, 10]",1.0,6.0,0.3369271755218506,1.8632240295410156,0.5104281645878104,80.0,806.0,0.0
R,U,"[5, 10]",1.0,7.0,0.3497788906097412,1.642427921295166,0.3033735027389688,80.0,807.0,0.0
R,U,"[4, 10]",1.0,8.0,0.42083001136779785,2.1026811599731445,0.6722263711875147,80.0,808.0,0.0
B,L,"[4, 9]",1.0,9.0,0.33379697799682617,2.0314149856567383,0.687025620707266,80.0,809.0,0.0
R,U,"[3, 9]",1.0,10.0,0.10429906845092773,1.516357183456421,0.40366858600332983,80.0,810.0,0.0
,,"(6, 6)",,,,,,80.0,,
R,U,"[5, 6]",1.0,1.0,0.5682790279388428,3.097872018814087,0.3017640993453223,,811.0,0.0
Y,R,"[5, 7]",1.0,2.0,0.43806004524230957,1.8652591705322266,0.43332937706616587,81.0,812.0,0.0
Y,R,"[5, 8]",1.0,3.0,0.38466310501098633,1.981053113937378,0.5809879107346461,81.0,813.0,0.0
G,D,"[6, 8]",1.0,4.0,0.31815409660339355,1.6780049800872803,0.34272344712491876,81.0,814.0,0.0
Y,R,"[6, 9]",1.0,5.0,0.3415348529815674,1.7308478355407715,0.39002622977551715,81.0,815.0,0.0
Y,R,"[6, 10]",1.0,6.0,0.29938292503356934,1.710886001586914,0.41782636222274405,81.0,816.0,0.0
R,U,"[5, 10]",1.0,7.0,0.37902402877807617,2.132228136062622,0.7496977820108267,81.0,817.0,0.0
R,U,"[4, 10]",1.0,8.0,0.19846606254577637,1.4892621040344238,0.27251897143661513,81.0,818.0,0.0
B,L,"[4, 9]",1.0,9.0,0.38910913467407227,1.903256893157959,0.5090357986112403,81.0,819.0,0.0
R,U,"[3, 9]",1.0,10.0,0.21239995956420898,1.8513059616088867,0.6436581728867548,81.0,820.0,0.0
,,"(6, 6)",,,,,,81.0,,
R,U,"[5, 6]",1.0,1.0,0.5324909687042236,5.6930320262908936,0.5036490653833782,,821.0,0.0
Y,R,"[5, 7]",1.0,2.0,0.4641420841217041,1.9016790390014648,0.4386725997889674,82.0,822.0,0.0
Y,R,"[5, 8]",1.0,3.0,0.37953615188598633,2.0874240398406982,0.7091878476738354,82.0,823.0,0.0
G,D,"[6, 8]",1.0,4.0,0.3982529640197754,2.0816500186920166,0.6913053726032887,82.0,824.0,0.0
Y,R,"[6, 9]",1.0,5.0,0.21898198127746582,1.6537058353424072,0.4284064689068047,82.0,825.0,0.0
Y,R,"[6, 10]",1.0,6.0,0.2690730094909668,1.7384839057922363,0.46699684968527977,82.0,826.0,0.0
R,U,"[5, 10]",1.0,7.0,0.5820050239562988,2.0787699222564697,0.47876898767221227,82.0,827.0,0.0
R,U,"[4, 10]",1.0,8.0,0.36736392974853516,1.788534164428711,0.4173434832158211,82.0,828.0,0.0
B,L,"[4, 9]",1.0,9.0,0.3485691547393799,1.67392897605896,0.3249675044387873,82.0,829.0,0.0
R,U,"[3, 9]",1.0,10.0,0.39215707778930664,2.1310970783233643,0.7391563414239832,82.0,830.0,0.0
,,"(6, 6)",,,,,,82.0,,
R,U,"[5, 6]",1.0,1.0,0.5296919345855713,4.283052921295166,0.7388191682233287,,831.0,0.0
Y,R,"[5, 7]",1.0,2.0,0.38285207748413086,1.7720849514007568,0.3779730844127973,83.0,832.0,0.0
Y,R,"[5, 8]",1.0,3.0,0.3010900020599365,1.704272985458374,0.39889450075555327,83.0,833.0,0.0
G,D,"[6, 8]",1.0,4.0,0.49159884452819824,2.041131019592285,0.5396404726699491,83.0,834.0,0.0
Y,R,"[6, 9]",1.0,5.0,0.2702500820159912,1.5283229351043701,0.2515863782237099,83.0,835.0,0.0
Y,R,"[6, 10]",1.0,6.0,0.4291841983795166,2.0792691707611084,0.647441444051045,83.0,836.0,0.0
R,U,"[5, 10]",1.0,7.0,0.28281497955322266,1.5867199897766113,0.30089886254013987,83.0,837.0,0.0
R,U,"[4, 10]",1.0,8.0,0.40317797660827637,2.109022855758667,0.709811626943729,83.0,838.0,0.0
B,L,"[4, 9]",1.0,9.0,0.2533109188079834,1.694957971572876,0.438360292807827,83.0,839.0,0.0
R,U,"[3, 9]",1.0,10.0,0.2326209545135498,1.7991681098937988,0.5708156711094174,83.0,840.0,0.0
,,"(6, 6)",,,,,,83.0,,
R,U,"[5, 6]",1.0,1.0,0.49112510681152344,2.3668839931488037,0.37128566932414725,,841.0,0.0
Y,R,"[5, 7]",1.0,2.0,0.3317759037017822,2.0130038261413574,0.6671374690779792,84.0,842.0,0.0
Y,R,"[5, 8]",1.0,3.0,0.17736506462097168,1.8649189472198486,0.6820377814701085,84.0,843.0,0.0
G,D,"[6, 8]",1.0,4.0,0.19392991065979004,1.459716796875,0.2589079127169551,84.0,844.0,0.0
Y,R,"[6, 9]",1.0,5.0,0.3466191291809082,2.0102438926696777,0.6688734188450015,84.0,845.0,0.0
Y,R,"[6, 10]",1.0,6.0,0.24399995803833008,1.8685359954833984,0.6210316208122736,84.0,846.0,0.0
R,U,"[5, 10]",1.0,7.0,0.23633503913879395,1.8364338874816895,0.590520015279131,84.0,847.0,0.0
R,U,"[4, 10]",1.0,8.0,0.2492380142211914,2.0074880123138428,0.7479934091007482,84.0,848.0,0.0
B,L,"[4, 9]",1.0,9.0,0.27065587043762207,1.9281389713287354,0.6594310436072449,84.0,849.0,0.0
R,U,"[3, 9]",1.0,10.0,0.2831439971923828,1.932413101196289,0.6421464369337729,84.0,850.0,0.0
,,"(6, 6)",,,,,,84.0,,
R,U,"[5, 6]",1.0,1.0,0.3565969467163086,2.31610107421875,0.25860748553406115,,851.0,0.0
Y,R,"[5, 7]",1.0,2.0,0.49402308464050293,2.1770150661468506,0.6851208576786374,85.0,852.0,0.0
Y,R,"[5, 8]",1.0,3.0,0.24733519554138184,1.7034239768981934,0.4556438167577691,85.0,853.0,0.0
G,D,"[6, 8]",1.0,4.0,0.46792101860046387,2.1906890869140625,0.7126228237003378,85.0,854.0,0.0
Y,R,"[6, 9]",1.0,5.0,0.26495814323425293,1.9867711067199707,0.7163321115872047,85.0,855.0,0.0
Y,R,"[6, 10]",1.0,6.0,0.22333407402038574,1.8452789783477783,0.6114643456710684,85.0,856.0,0.0
R,U,"[5, 10]",1.0,7.0,0.40654611587524414,2.0267388820648193,0.6220280668944317,85.0,857.0,0.0
R,U,"[4, 10]",1.0,8.0,0.2530961036682129,1.8281898498535156,0.5665544084025641,85.0,858.0,0.0
B,L,"[4, 9]",1.0,9.0,0.29292798042297363,1.5822739601135254,0.282498287253074,85.0,859.0,0.0
R,U,"[3, 9]",1.0,10.0,0.43555712699890137,2.201292037963867,0.749941162239435,85.0,860.0,0.0
,,"(6, 6)",,,,,,85.0,,
R,U,"[5, 6]",1.0,1.0,0.362778902053833,2.8222169876098633,0.6391500285692318,,861.0,0.0
Y,R,"[5, 7]",1.0,2.0,0.19602084159851074,1.6027820110321045,0.40868094008609324,86.0,862.0,0.0
Y,R,"[5, 8]",1.0,3.0,0.223128080368042,1.7370078563690186,0.5122672517504956,86.0,863.0,0.0
G,D,"[6, 8]",1.0,4.0,0.34000706672668457,1.875032901763916,0.5373081984412066,86.0,864.0,0.0
Y,R,"[6, 9]",1.0,5.0,0.20406103134155273,1.5354609489440918,0.3230458140516749,86.0,865.0,0.0
Y,R,"[6, 10]",1.0,6.0,0.25428104400634766,1.6763319969177246,0.41616649004414485,86.0,866.0,0.0
R,U,"[5, 10]",1.0,7.0,0.32099485397338867,1.8042309284210205,0.47032527487677733,86.0,867.0,0.0
R,U,"[4, 10]",1.0,8.0,0.24776315689086914,1.6177630424499512,0.3714775136788561,86.0,868.0,0.0
B,L,"[4, 9]",1.0,9.0,0.9331889152526855,2.6101088523864746,0.6645243359202189,86.0,869.0,0.0
R,U,"[3, 9]",1.0,10.0,0.24434995651245117,1.543212890625,0.29149186394465937,86.0,870.0,0.0
,,"(6, 6)",,,,,,86.0,,
R,U,"[5, 6]",1.0,1.0,0.42730093002319336,3.117432117462158,0.7418916982049018,,871.0,0.0
Y,R,"[5, 7]",1.0,2.0,0.5380010604858398,1.9722321033477783,0.4311233052437709,87.0,872.0,0.0
Y,R,"[5, 8]",1.0,3.0,0.4077119827270508,2.0549662113189697,0.6359327035559444,87.0,873.0,0.0
G,D,"[6, 8]",1.0,4.0,0.3829200267791748,1.933081865310669,0.5358496536981422,87.0,874.0,0.0
Y,R,"[6, 9]",1.0,5.0,0.279681921005249,1.5882329940795898,0.30763599359709415,87.0,875.0,0.0
Y,R,"[6, 10]",1.0,6.0,0.39822888374328613,1.835461139678955,0.4263224917443333,87.0,876.0,0.0
R,U,"[5, 10]",1.0,7.0,0.32294702529907227,1.6642420291900635,0.3407571602424321,87.0,877.0,0.0
R,U,"[4, 10]",1.0,8.0,0.7383770942687988,2.4505138397216797,0.7074511904756866,87.0,878.0,0.0
B,L,"[4, 9]",1.0,9.0,0.26282191276550293,1.811363935470581,0.5524737317126673,87.0,879.0,0.0
R,U,"[3, 9]",1.0,10.0,0.33493685722351074,1.714771032333374,0.3674318301594292,87.0,880.0,0.0
,,"(6, 6)",,,,,,87.0,,
R,U,"[5, 6]",1.0,1.0,0.4387688636779785,2.518617868423462,0.41953569726727613,,881.0,0.0
Y,R,"[5, 7]",1.0,2.0,0.2515840530395508,1.9882581233978271,0.7240421742213439,88.0,882.0,0.0
Y,R,"[5, 8]",1.0,3.0,0.19135189056396484,1.696153163909912,0.50377832550101,88.0,883.0,0.0
G,D,"[6, 8]",1.0,4.0,0.40946197509765625,2.0343499183654785,0.6212975700222548,88.0,884.0,0.0
Y,R,"[6, 9]",1.0,5.0,0.3426859378814697,1.6554558277130127,0.3105209316145718,88.0,885.0,0.0
Y,R,"[6, 10]",1.0,6.0,0.7592129707336426,2.0732390880584717,0.3170296062157631,88.0,886.0,0.0
R,U,"[5, 10]",1.0,7.0,0.4279360771179199,1.9015460014343262,0.46840669253825273,88.0,887.0,0.0
R,U,"[4, 10]",1.0,8.0,0.27110791206359863,1.9526422023773193,0.6710317675216859,88.0,888.0,0.0
B,L,"[4, 9]",1.0,9.0,0.27338695526123047,1.6374731063842773,0.35882373010246227,88.0,889.0,0.0
R,U,"[3, 9]",1.0,10.0,0.33905696868896484,1.7663660049438477,0.4251970818229224,88.0,890.0,0.0
,,"(6, 6)",,,,,,88.0,,
R,U,"[5, 6]",1.0,1.0,0.5858540534973145,2.8079187870025635,0.31673786091895384,,891.0,0.0
Y,R,"[5, 7]",1.0,2.0,0.4666471481323242,1.8497929573059082,0.3661937992863919,89.0,892.0,0.0
Y,R,"[5, 8]",1.0,3.0,0.4016427993774414,1.986419916152954,0.5691469644658356,89.0,893.0,0.0
G,D,"[6, 8]",1.0,4.0,0.35544490814208984,1.7609522342681885,0.39702656643109835,89.0,894.0,0.0
Y,R,"[6, 9]",1.0,5.0,0.40981101989746094,1.7726941108703613,0.35338318759988147,89.0,895.0,0.0
Y,R,"[6, 10]",1.0,6.0,0.360260009765625,1.626512050628662,0.26311484590071077,89.0,896.0,0.0
R,U,"[5, 10]",1.0,7.0,0.4389619827270508,1.86183500289917,0.40816029012786226,89.0,897.0,0.0
R,U,"[4, 10]",1.0,8.0,0.2999439239501953,1.865048885345459,0.5731787987907331,89.0,898.0,0.0
B,L,"[4, 9]",1.0,9.0,0.35755181312561035,2.075416088104248,0.7151624228462358,89.0,899.0,0.0
R,U,"[3, 9]",1.0,10.0,0.38411998748779297,2.026092052459717,0.641210342532152,89.0,900.0,0.0
,,"(6, 6)",,,,,,89.0,,
R,U,"[5, 6]",1.0,1.0,0.3838491439819336,2.6525559425354004,0.726988610700419,,901.0,0.0
Y,R,"[5, 7]",1.0,2.0,0.2957139015197754,1.630281925201416,0.341004303346459,90.0,902.0,0.0
Y,R,"[5, 8]",1.0,3.0,0.3313291072845459,1.905428171157837,0.5795996261743769,90.0,903.0,0.0
G,D,"[6, 8]",1.0,4.0,0.3168361186981201,1.9224450588226318,0.585371417396227,90.0,904.0,0.0
Y,R,"[6, 9]",1.0,5.0,0.22236394882202148,1.6286721229553223,0.397606579756436,90.0,905.0,0.0
Y,R,"[6, 10]",1.0,6.0,0.25092196464538574,1.9696190357208252,0.700473984070751,90.0,906.0,0.0
R,U,"[5, 10]",1.0,7.0,0.22354912757873535,1.8711590766906738,0.6383522702525031,90.0,907.0,0.0
R,U,"[4, 10]",1.0,8.0,0.2656688690185547,1.9296457767486572,0.651426914214631,90.0,908.0,0.0
B,L,"[4, 9]",1.0,9.0,0.2865629196166992,1.7242169380187988,0.4258884089618388,90.0,909.0,0.0
R,U,"[3, 9]",1.0,10.0,0.24976515769958496,1.706974983215332,0.44961548454428396,90.0,910.0,0.0
,,"(6, 6)",,,,,,90.0,,
R,U,"[5, 6]",1.0,1.0,0.31722593307495117,2.4228780269622803,0.35588906688860134,,911.0,0.0
Y,R,"[5, 7]",1.0,2.0,0.5735650062561035,2.292181968688965,0.7142015358827978,91.0,912.0,0.0
Y,R,"[5, 8]",1.0,3.0,0.19761085510253906,1.914543867111206,0.7124433445689582,91.0,913.0,0.0
G,D,"[6, 8]",1.0,4.0,0.3210289478302002,1.7270989418029785,0.38979500181863913,91.0,914.0,0.0
Y,R,"[6, 9]",1.0,5.0,0.41153597831726074,2.013206958770752,0.6026110747456059,91.0,915.0,0.0
Y,R,"[6, 10]",1.0,6.0,0.20405292510986328,1.5193469524383545,0.3055535122286521,91.0,916.0,0.0
R,U,"[5, 10]",1.0,7.0,0.34445714950561523,1.687417984008789,0.34322452242153806,91.0,917.0,0.0
R,U,"[4, 10]",1.0,8.0,0.4643588066101074,1.989574909210205,0.53251562307567,91.0,918.0,0.0
B,L,"[4, 9]",1.0,9.0,0.45798492431640625,1.9677040576934814,0.5002245732579147,91.0,919.0,0.0
R,U,"[3, 9]",1.0,10.0,0.20852303504943848,1.9487719535827637,0.7320417596137008,91.0,920.0,0.0
,,"(6, 6)",,,,,,91.0,,
R,U,"[5, 6]",1.0,1.0,0.5239608287811279,3.0395708084106445,0.6883840099376204,,921.0,0.0
Y,R,"[5, 7]",1.0,2.0,0.20636200904846191,1.7165770530700684,0.5053677430910201,92.0,922.0,0.0
Y,R,"[5, 8]",1.0,3.0,0.26477885246276855,1.689824104309082,0.4120274587731957,92.0,923.0,0.0
G,D,"[6, 8]",1.0,4.0,0.4693171977996826,2.018176794052124,0.5467097272185608,92.0,924.0,0.0
Y,R,"[6, 9]",1.0,5.0,0.3220961093902588,1.7711949348449707,0.4346006962104388,92.0,925.0,0.0
Y,R,"[6, 10]",1.0,6.0,0.2214338779449463,1.8554000854492188,0.6400016456002274,92.0,926.0,0.0
R,U,"[5, 10]",1.0,7.0,0.27553391456604004,1.7145099639892578,0.43811311251695667,92.0,927.0,0.0
R,U,"[4, 10]",1.0,8.0,0.2877771854400635,1.707993984222412,0.412644938452999,92.0,928.0,0.0
Y,R,"[4, 11]",0.0,8.0,0.772442102432251,2.4004290103912354,0.6128170818437572,92.0,929.0,0.0
Y,R,"[4, 12]",-3.0,8.0,0.7015349864959717,2.017777919769287,0.3143805410040644,92.0,930.0,0.0
,,"(6, 6)",,,,,,92.0,,
R,U,"[5, 6]",1.0,1.0,0.4450709819793701,3.558339834213257,0.555987656806998,,931.0,0.0
Y,R,"[5, 7]",1.0,2.0,0.42296385765075684,1.8688490390777588,0.4413594362025959,93.0,932.0,0.0
Y,R,"[5, 8]",1.0,3.0,0.27459096908569336,1.8062810897827148,0.5309672779018851,93.0,933.0,0.0
G,D,"[6, 8]",1.0,4.0,0.3750169277191162,1.9589240550994873,0.5734249409580122,93.0,934.0,0.0
Y,R,"[6, 9]",1.0,5.0,0.38985586166381836,2.1002979278564453,0.7068173321616,93.0,935.0,0.0
Y,R,"[6, 10]",1.0,6.0,0.11192989349365234,1.6794421672821045,0.5697382678471009,93.0,936.0,0.0
R,U,"[5, 10]",1.0,7.0,0.21451687812805176,1.9019310474395752,0.671522051021231,93.0,937.0,0.0
R,U,"[4, 10]",1.0,8.0,0.808568000793457,2.1265687942504883,0.3151290489323138,93.0,938.0,0.0
B,L,"[4, 9]",1.0,9.0,0.4562668800354004,1.8316938877105713,0.3634889893807693,93.0,939.0,0.0
R,U,"[3, 9]",1.0,10.0,0.3691720962524414,1.8885798454284668,0.5020581210038346,93.0,940.0,0.0
,,"(6, 6)",,,,,,93.0,,
R,U,"[5, 6]",1.0,1.0,0.5502879619598389,2.3365519046783447,0.3220410608353203,,941.0,0.0
Y,R,"[5, 7]",1.0,2.0,0.4814419746398926,1.8022630214691162,0.3078082477642733,94.0,942.0,0.0
Y,R,"[5, 8]",1.0,3.0,0.2516019344329834,1.5405211448669434,0.2982929715588489,94.0,943.0,0.0
G,D,"[6, 8]",1.0,4.0,0.45986294746398926,2.019711971282959,0.5510617050543214,94.0,944.0,0.0
Y,R,"[6, 9]",1.0,5.0,0.23904895782470703,1.9708600044250488,0.7219066945030022,94.0,945.0,0.0
Y,R,"[6, 10]",1.0,6.0,0.16366815567016602,1.8902819156646729,0.7289879097968932,94.0,946.0,0.0
R,U,"[5, 10]",1.0,7.0,0.16669678688049316,1.6572918891906738,0.4699039362905346,94.0,947.0,0.0
R,U,"[4, 10]",1.0,8.0,0.2495410442352295,1.5700159072875977,0.30652456439030223,94.0,948.0,0.0
B,L,"[4, 9]",1.0,9.0,0.529055118560791,1.8352601528167725,0.3085268183267652,94.0,949.0,0.0
R,U,"[3, 9]",1.0,10.0,0.45569586753845215,2.124835968017578,0.6664738481694275,94.0,950.0,0.0
,,"(6, 6)",,,,,,94.0,,
R,U,"[5, 6]",1.0,1.0,0.44028615951538086,2.1982309818267822,0.3817439890923745,,951.0,0.0
Y,R,"[5, 7]",1.0,2.0,0.4526078701019287,2.114959955215454,0.6465531265646107,95.0,952.0,0.0
Y,R,"[5, 8]",-1.0,2.0,0.0809779167175293,5.577455997467041,0.3576869486914112,95.0,953.0,0.0
G,D,"[6, 8]",1.0,3.0,0.2194221019744873,1.97389817237854,0.7477361932798157,95.0,954.0,0.0
Y,R,"[6, 9]",1.0,4.0,0.404069185256958,2.0215649604797363,0.6027299556200196,95.0,955.0,0.0
Y,R,"[6, 10]",1.0,5.0,0.36156201362609863,1.9827070236206055,0.618894189263574,95.0,956.0,0.0
R,U,"[5, 10]",1.0,6.0,0.3402400016784668,1.9773170948028564,0.6294792411375485,95.0,957.0,0.0
R,U,"[4, 10]",1.0,7.0,0.21111702919006348,1.7239620685577393,0.5036016302963893,95.0,958.0,0.0
B,L,"[4, 9]",1.0,8.0,0.45610594749450684,1.8652710914611816,0.4023298059383051,95.0,959.0,0.0
R,U,"[3, 9]",1.0,9.0,0.41082286834716797,1.9753739833831787,0.5608866981147055,95.0,960.0,0.0
,,"(6, 6)",,,,,,95.0,,
R,U,"[5, 6]",1.0,1.0,0.33713698387145996,3.5607659816741943,0.5884811501030006,,961.0,0.0
Y,R,"[5, 7]",1.0,2.0,0.32459497451782227,1.9154481887817383,0.5872745147184162,96.0,962.0,0.0
Y,R,"[5, 8]",1.0,3.0,0.2546570301055908,1.6583800315856934,0.395884109377505,96.0,963.0,0.0
G,D,"[6, 8]",1.0,4.0,0.36933302879333496,2.011626958847046,0.6239451197759815,96.0,964.0,0.0
Y,R,"[6, 9]",1.0,5.0,0.24743986129760742,1.9000098705291748,0.640635751638029,96.0,965.0,0.0
Y,R,"[6, 10]",-1.0,5.0,0.07509088516235352,5.647268056869507,0.43823510073906613,96.0,966.0,0.0
R,U,"[5, 10]",1.0,6.0,0.4305298328399658,2.0299019813537598,0.5846457302801085,96.0,967.0,0.0
R,U,"[4, 10]",1.0,7.0,0.3526630401611328,1.8458468914031982,0.4805331186213995,96.0,968.0,0.0
B,L,"[4, 9]",1.0,8.0,0.4884769916534424,2.178452968597412,0.6755859294913367,96.0,969.0,0.0
R,U,"[3, 9]",1.0,9.0,0.37701892852783203,2.076627016067505,0.7021351502287903,96.0,970.0,0.0
,,"(6, 6)",,,,,,96.0,,
R,U,"[5, 6]",1.0,1.0,0.5331809520721436,2.542884111404419,0.5618963065506646,,971.0,0.0
Y,R,"[5, 7]",1.0,2.0,0.24252700805664062,1.8475151062011719,0.6094822534209862,97.0,972.0,0.0
Y,R,"[5, 8]",1.0,3.0,0.29389405250549316,1.632235050201416,0.3418901792685136,97.0,973.0,0.0
G,D,"[6, 8]",1.0,4.0,0.7541451454162598,2.35327410697937,0.5949443579538651,97.0,974.0,0.0
Y,R,"[6, 9]",1.0,5.0,0.7401959896087646,2.168476104736328,0.43029173482664457,97.0,975.0,0.0
Y,R,"[6, 10]",1.0,6.0,0.5709018707275391,1.9383749961853027,0.3520976013390536,97.0,976.0,0.0
R,U,"[5, 10]",1.0,7.0,0.7117321491241455,2.4302618503570557,0.7153791043962976,97.0,977.0,0.0
R,U,"[4, 10]",1.0,8.0,0.3136310577392578,1.5761818885803223,0.2586724795132473,97.0,978.0,0.0
B,L,"[4, 9]",1.0,9.0,0.649785041809082,1.9231419563293457,0.265276150052166,97.0,979.0,0.0
R,U,"[3, 9]",1.0,10.0,0.5688679218292236,2.0273241996765137,0.4423683589901468,97.0,980.0,0.0
,,"(6, 6)",,,,,,97.0,,
R,U,"[5, 6]",1.0,1.0,0.32994604110717773,3.3876709938049316,0.7299093149261493,,981.0,0.0
Y,R,"[5, 7]",1.0,2.0,0.21703696250915527,1.7825632095336914,0.5458562720448379,98.0,982.0,0.0
Y,R,"[5, 8]",1.0,3.0,0.22678589820861816,1.698430061340332,0.4611384556875413,98.0,983.0,0.0
G,D,"[6, 8]",1.0,4.0,0.322659969329834,1.9106290340423584,0.5883726568424379,98.0,984.0,0.0
Y,R,"[6, 9]",1.0,5.0,0.25508713722229004,1.957813024520874,0.6961116547520647,98.0,985.0,0.0
Y,R,"[6, 10]",1.0,6.0,0.33126091957092285,1.8390460014343262,0.4853736249983712,98.0,986.0,0.0
R,U,"[5, 10]",1.0,7.0,0.4701080322265625,2.184825897216797,0.7033146930885132,98.0,987.0,0.0
R,U,"[4, 10]",1.0,8.0,0.2386019229888916,1.9030699729919434,0.6566701648009775,98.0,988.0,0.0
B,L,"[4, 9]",1.0,9.0,0.27892398834228516,1.7277681827545166,0.451229841557598,98.0,989.0,0.0
R,U,"[3, 9]",1.0,10.0,0.4227011203765869,1.7630350589752197,0.3310402915895702,98.0,990.0,0.0
,,"(6, 6)",,,,,,98.0,,
R,U,"[5, 6]",1.0,1.0,0.36435604095458984,3.013660192489624,0.6278413251091466,,991.0,0.0
Y,R,"[5, 7]",1.0,2.0,0.34932684898376465,1.858515977859497,0.5030705706090259,99.0,992.0,0.0
Y,R,"[5, 8]",1.0,3.0,0.3074498176574707,1.7735381126403809,0.4600356172139448,99.0,993.0,0.0
G,D,"[6, 8]",1.0,4.0,0.36080408096313477,1.7393290996551514,0.3828490941350756,99.0,994.0,0.0
Y,R,"[6, 9]",1.0,5.0,0.34001779556274414,1.803002119064331,0.452514351841416,99.0,995.0,0.0
Y,R,"[6, 10]",1.0,6.0,0.3138120174407959,1.7336299419403076,0.40302230095185426,99.0,996.0,0.0
R,U,"[5, 10]",1.0,7.0,0.38671207427978516,1.6527900695800781,0.255948704565261,99.0,997.0,0.0
R,U,"[4, 10]",1.0,8.0,0.5407299995422363,1.935270071029663,0.3912132941045292,99.0,998.0,0.0
B,L,"[4, 9]",1.0,9.0,0.40149998664855957,1.8132619857788086,0.4044111829356271,99.0,999.0,0.0
R,U,"[3, 9]",1.0,10.0,0.35228800773620605,1.7154779434204102,0.35296549275278793,99.0,1000.0,0.0
