button_choice,action_choice,coordinate_choice,reward,cumulative_reward,rt,total_trial_time,iti,block_n,trial_n,trial_type
G,D,"[7, 6]",-2.0,0.0,2.38828706741333,4.065502166748047,0.6994961685048959,0.0,1.0,0.0
B,L,"[7, 5]",0.0,0.0,0.6025409698486328,2.27423095703125,0.6737445295410214,0.0,2.0,0.0
Y,R,"[7, 6]",0.0,0.0,0.660099983215332,2.3813610076904297,0.7216091731482672,0.0,3.0,0.0
Y,R,"[7, 7]",0.0,0.0,0.5225598812103271,1.9002180099487305,0.37210606982780986,0.0,4.0,0.0
R,U,"[6, 7]",0.0,0.0,0.23948097229003906,1.6526200771331787,0.4247144077301049,0.0,5.0,0.0
R,U,"[5, 7]",-2.0,0.0,1.092736005783081,2.68234920501709,0.6234435440274568,0.0,6.0,0.0
R,U,"[4, 7]",0.0,0.0,0.3432121276855469,2.0557899475097656,0.7125295175067491,0.0,7.0,0.0
R,U,"[3, 7]",0.0,0.0,0.2266221046447754,1.9574599266052246,0.719773198449823,0.0,8.0,0.0
R,U,"[2, 7]",0.0,0.0,0.3304469585418701,1.8477981090545654,0.5178742184350325,0.0,9.0,0.0
B,L,"[2, 6]",0.0,0.0,0.23642611503601074,1.5704360008239746,0.3384610171925099,0.0,10.0,0.0
,,"(6, 6)",,,,,,,,
B,L,"[6, 5]",0.0,0.0,0.7189481258392334,6.3622260093688965,0.7001007176753238,1.0,11.0,0.0
G,D,"[7, 5]",0.0,0.0,0.7380480766296387,2.326430082321167,0.5931754852007411,1.0,12.0,0.0
G,D,"[8, 5]",0.0,0.0,0.2104020118713379,1.7074220180511475,0.5007968537530216,1.0,13.0,0.0
Y,R,"[8, 6]",-1.0,0.0,0.07973408699035645,5.858116865158081,0.709002538987173,1.0,14.0,0.0
Y,R,"[8, 7]",0.0,0.0,0.4276540279388428,1.8055899143218994,0.3811089810400392,1.0,15.0,0.0
B,L,"[8, 6]",0.0,0.0,0.6500029563903809,2.2528610229492188,0.6004097851820347,1.0,16.0,0.0
G,D,"[9, 6]",0.0,0.0,0.263995885848999,1.9895269870758057,0.7233366694811745,1.0,17.0,0.0
B,L,"[9, 5]",0.0,0.0,0.7276980876922607,2.195375919342041,0.4686207789399303,1.0,18.0,0.0
R,U,"[8, 5]",0.0,0.0,0.34572815895080566,1.846405029296875,0.498241087013871,1.0,19.0,0.0
Y,R,"[8, 6]",0.0,0.0,0.237623929977417,1.6879971027374268,0.45299984772390306,1.0,20.0,0.0
,,"(6, 6)",,,,,,,,
R,U,"[5, 6]",1.0,1.0,0.7408490180969238,5.546821117401123,0.6495008348427651,2.0,21.0,0.0
R,U,"[4, 6]",0.0,1.0,0.7901918888092041,2.3425090312957764,0.5420834136984863,2.0,22.0,0.0
B,L,"[4, 5]",0.0,1.0,0.5548410415649414,1.792971134185791,0.2519272826205137,2.0,23.0,0.0
R,U,"[3, 5]",0.0,1.0,0.2948451042175293,1.8111062049865723,0.5127508029519054,2.0,24.0,0.0
G,D,"[4, 5]",0.0,1.0,0.27917981147766113,1.5964689254760742,0.30931796020232366,2.0,25.0,0.0
Y,R,"[4, 6]",0.0,1.0,0.3828470706939697,1.7405450344085693,0.3665218221231453,2.0,26.0,0.0
R,U,"[3, 6]",0.0,1.0,0.4399700164794922,1.9993081092834473,0.5488019209938821,2.0,27.0,0.0
G,D,"[4, 6]",0.0,1.0,0.18478798866271973,1.7137970924377441,0.5293556230119318,2.0,28.0,0.0
R,U,"[3, 6]",0.0,1.0,0.22089505195617676,1.777292013168335,0.5566101580837413,2.0,29.0,0.0
R,U,"[2, 6]",0.0,1.0,0.3383948802947998,1.9256799221038818,0.5988748318764364,2.0,30.0,0.0
,,"(6, 6)",,,,,,,,
B,L,"[6, 5]",0.0,0.0,0.3096768856048584,3.3945560455322266,0.4769288826169864,3.0,31.0,0.0
B,L,"[6, 4]",-1.0,0.0,0.0290679931640625,5.53094482421875,0.4409697976696006,3.0,32.0,0.0
B,L,"[6, 3]",0.0,0.0,0.2613790035247803,1.8010258674621582,0.5418578563758778,3.0,33.0,0.0
G,D,"[7, 3]",0.0,0.0,0.2683069705963135,1.7699189186096191,0.511762797402227,3.0,34.0,0.0
G,D,"[8, 3]",0.0,0.0,0.2744791507720947,1.7488808631896973,0.4773554336213697,3.0,35.0,0.0
R,U,"[7, 3]",0.0,0.0,0.2366490364074707,1.58302903175354,0.36041719134355876,3.0,36.0,0.0
R,U,"[6, 3]",0.0,0.0,0.3333289623260498,1.8801701068878174,0.5573198696922413,3.0,37.0,0.0
R,U,"[5, 3]",0.0,0.0,0.43895483016967773,1.7727320194244385,0.3299698334806113,3.0,38.0,0.0
R,U,"[4, 3]",0.0,0.0,0.20360398292541504,1.9401779174804688,0.7363900980978982,3.0,39.0,0.0
Y,R,"[4, 4]",-1.0,0.0,0.026040077209472656,5.529851913452148,0.449708609290767,3.0,40.0,0.0
,,"(6, 6)",,,,,,,,
Y,R,"[6, 7]",0.0,0.0,0.5986900329589844,3.3302371501922607,0.26338117703599545,4.0,41.0,0.0
Y,R,"[6, 8]",1.0,1.0,0.8325388431549072,2.3212730884552,0.48430700368913443,4.0,42.0,0.0
Y,R,"[6, 9]",1.0,2.0,0.4524710178375244,2.044215202331543,0.5950145781906298,4.0,43.0,0.0
Y,R,"[6, 10]",1.0,3.0,0.6131730079650879,1.9139080047607422,0.30925753540969037,4.0,44.0,0.0
Y,R,"[6, 11]",0.0,3.0,0.576866865158081,2.2817118167877197,0.7071482658313424,4.0,45.0,0.0
B,L,"[6, 10]",0.0,3.0,0.37155795097351074,1.7559380531311035,0.38009987513409105,4.0,46.0,0.0
B,L,"[6, 9]",0.0,3.0,0.7088499069213867,2.383671998977661,0.6634539883896055,4.0,47.0,0.0
B,L,"[6, 8]",0.0,3.0,0.2564229965209961,1.7797307968139648,0.5099218077399477,4.0,48.0,0.0
B,L,"[6, 7]",0.0,3.0,0.3718109130859375,1.6435608863830566,0.2702704353863243,4.0,49.0,0.0
B,L,"[6, 6]",0.0,3.0,0.5849220752716064,2.1466100215911865,0.5666176859004712,4.0,50.0,0.0
,,"(6, 6)",,,,,,,,
G,D,"[7, 6]",0.0,0.0,0.6794579029083252,4.438143968582153,0.737847578891053,5.0,51.0,0.0
B,L,"[7, 5]",0.0,0.0,0.30928802490234375,1.982914924621582,0.6707496630523444,5.0,52.0,0.0
B,L,"[7, 4]",0.0,0.0,0.4459669589996338,2.0649938583374023,0.6193739597421226,5.0,53.0,0.0
B,L,"[7, 3]",0.0,0.0,0.5166749954223633,1.7745180130004883,0.26063426107028054,5.0,54.0,0.0
R,U,"[6, 3]",0.0,0.0,0.3746621608734131,1.9422080516815186,0.5691427484585985,5.0,55.0,0.0
G,D,"[7, 3]",0.0,0.0,0.27298521995544434,1.7287240028381348,0.46463427118797573,5.0,56.0,0.0
G,D,"[8, 3]",0.0,0.0,0.29836416244506836,1.898380994796753,0.5962425507350921,5.0,57.0,0.0
G,D,"[9, 3]",0.0,0.0,0.39034485816955566,2.1122210025787354,0.7084727878252252,5.0,58.0,0.0
G,D,"[10, 3]",0.0,0.0,0.4212920665740967,2.0419819355010986,0.6334983041245432,5.0,59.0,0.0
G,D,"[11, 3]",0.0,0.0,0.39826107025146484,2.079040050506592,0.6791100354805538,5.0,60.0,0.0
,,"(6, 6)",,,,,,,,
R,U,"[5, 6]",1.0,1.0,0.8496990203857422,4.170430898666382,0.6329083550387319,6.0,61.0,0.0
R,U,"[4, 6]",0.0,1.0,0.8982679843902588,2.3421928882598877,0.4419037029827187,6.0,62.0,0.0
B,L,"[4, 5]",0.0,1.0,0.40411806106567383,1.7191359996795654,0.327762593496883,6.0,63.0,0.0
G,D,"[5, 5]",0.0,1.0,0.726207971572876,2.426074981689453,0.7034094118369147,6.0,64.0,0.0
R,U,"[4, 5]",0.0,1.0,0.6288888454437256,1.8874750137329102,0.2579531144932722,6.0,65.0,0.0
Y,R,"[4, 6]",0.0,1.0,0.4985470771789551,2.151851177215576,0.6593846487243203,6.0,66.0,0.0
B,L,"[4, 5]",0.0,1.0,0.27151989936828613,1.7560060024261475,0.49882260664871375,6.0,67.0,0.0
Y,R,"[4, 6]",0.0,1.0,0.27897119522094727,1.651515007019043,0.3670834719288072,6.0,68.0,0.0
G,D,"[5, 6]",0.0,1.0,0.26775407791137695,1.9180431365966797,0.6513931001447211,6.0,69.0,0.0
R,U,"[4, 6]",0.0,1.0,0.40119004249572754,1.7661230564117432,0.36788388919255016,6.0,70.0,0.0
,,"(6, 6)",,,,,,,,
R,U,"[5, 6]",1.0,1.0,0.6206960678100586,3.601963996887207,0.6860739234933834,7.0,71.0,0.0
Y,R,"[5, 7]",1.0,2.0,0.41643810272216797,1.861203908920288,0.44742491626482694,7.0,72.0,0.0
Y,R,"[5, 8]",1.0,3.0,0.31172704696655273,1.8911359310150146,0.5718172572935551,7.0,73.0,0.0
Y,R,"[5, 9]",0.0,3.0,0.49341392517089844,1.8986890316009521,0.40395378708554697,7.0,74.0,0.0
B,L,"[5, 8]",0.0,3.0,0.2583649158477783,2.0021770000457764,0.7390849964321731,7.0,75.0,0.0
R,U,"[4, 8]",0.0,3.0,0.2556290626525879,1.9458410739898682,0.6848465775834451,7.0,76.0,0.0
G,D,"[5, 8]",0.0,3.0,0.22331500053405762,1.7524919509887695,0.520874010777469,7.0,77.0,0.0
B,L,"[5, 7]",0.0,3.0,0.2393629550933838,1.9385371208190918,0.6925391150986724,7.0,78.0,0.0
G,D,"[6, 7]",0.0,3.0,0.2479569911956787,1.923410177230835,0.6824497825994575,7.0,79.0,0.0
G,D,"[7, 7]",-1.0,3.0,0.06917810440063477,5.415533065795898,0.2816275759981187,7.0,80.0,0.0
,,"(6, 6)",,,,,,,,
R,U,"[5, 6]",1.0,1.0,0.4149200916290283,3.6264641284942627,0.6243929314922456,8.0,81.0,0.0
Y,R,"[5, 7]",1.0,2.0,0.5912520885467529,1.9452800750732422,0.3532771924484725,8.0,82.0,0.0
Y,R,"[5, 8]",1.0,3.0,0.4925098419189453,2.242325782775879,0.7451575223131555,8.0,83.0,0.0
R,U,"[4, 8]",0.0,3.0,0.35921192169189453,1.888456106185913,0.5171158197227439,8.0,84.0,0.0
Y,R,"[4, 9]",1.0,4.0,0.732867956161499,2.2194759845733643,0.48663085003214,8.0,85.0,0.0
G,D,"[5, 9]",-2.0,4.0,1.085265874862671,2.620675802230835,0.5737649969144212,8.0,86.0,0.0
G,D,"[6, 9]",1.0,5.0,0.2844679355621338,2.0129189491271973,0.7364738632772536,8.0,87.0,0.0
G,D,"[7, 9]",0.0,5.0,0.29421186447143555,2.035147190093994,0.7387413376263607,8.0,88.0,0.0
Y,R,"[7, 10]",0.0,5.0,0.14351201057434082,1.5175468921661377,0.3728287069514918,8.0,89.0,0.0
B,L,"[7, 9]",0.0,5.0,0.28580307960510254,1.8466320037841797,0.5692213322893891,8.0,90.0,0.0
,,"(6, 6)",,,,,,,,
R,U,"[5, 6]",1.0,1.0,0.48390889167785645,3.5172390937805176,0.6029270140893586,9.0,91.0,0.0
Y,R,"[5, 7]",1.0,2.0,0.21712183952331543,1.7459609508514404,0.5322558550115383,9.0,92.0,0.0
Y,R,"[5, 8]",1.0,3.0,0.2794201374053955,1.8186030387878418,0.5343312022238313,9.0,93.0,0.0
G,D,"[6, 8]",1.0,4.0,0.30156803131103516,1.9242169857025146,0.6250319810874351,9.0,94.0,0.0
Y,R,"[6, 9]",1.0,5.0,0.2976560592651367,1.8923139572143555,0.6006239240981743,9.0,95.0,0.0
Y,R,"[6, 10]",1.0,6.0,0.3627021312713623,1.6582581996917725,0.29236623930773464,9.0,96.0,0.0
B,L,"[6, 9]",0.0,6.0,0.5397050380706787,2.2448079586029053,0.7201191335883457,9.0,97.0,0.0
Y,R,"[6, 10]",0.0,6.0,0.21678996086120605,1.8749001026153564,0.6617136802003203,9.0,98.0,0.0
R,U,"[5, 10]",1.0,7.0,0.33560800552368164,2.041543960571289,0.7197607748336422,9.0,99.0,0.0
R,U,"[4, 10]",1.0,8.0,0.7860260009765625,2.1512839794158936,0.37132096566588546,9.0,100.0,0.0
,,"(6, 6)",,,,,,,,
R,U,"[5, 6]",1.0,1.0,0.9739809036254883,4.270855188369751,0.5086415365484469,10.0,101.0,0.0
Y,R,"[5, 7]",1.0,2.0,0.2972400188446045,1.9007630348205566,0.60921808297305,10.0,102.0,0.0
Y,R,"[5, 8]",1.0,3.0,0.32276391983032227,1.6282048225402832,0.304485535641185,10.0,103.0,0.0
G,D,"[6, 8]",1.0,4.0,0.34489011764526367,1.8069069385528564,0.4611301829742628,10.0,104.0,0.0
Y,R,"[6, 9]",1.0,5.0,0.3448359966278076,1.9090609550476074,0.5701317863071611,10.0,105.0,0.0
Y,R,"[6, 10]",1.0,6.0,0.2662050724029541,1.7208051681518555,0.45757751337781927,10.0,106.0,0.0
R,U,"[5, 10]",1.0,7.0,0.42978811264038086,1.983048915863037,0.5572158638768362,10.0,107.0,0.0
Y,R,"[5, 11]",0.0,7.0,0.4802210330963135,1.9325368404388428,0.4564189850175235,10.0,108.0,0.0
B,L,"[5, 10]",0.0,7.0,0.31986284255981445,1.7323510646820068,0.4221429335798518,10.0,109.0,0.0
G,D,"[6, 10]",0.0,7.0,0.32952404022216797,2.0386459827423096,0.7104731852888835,10.0,110.0,0.0
,,"(6, 6)",,,,,,,,
R,U,"[5, 6]",1.0,1.0,0.7173449993133545,3.813828945159912,0.5910154161984474,11.0,111.0,0.0
Y,R,"[5, 7]",1.0,2.0,0.21249699592590332,1.7880377769470215,0.5789350836028802,11.0,112.0,0.0
Y,R,"[5, 8]",1.0,3.0,0.19739699363708496,1.7959849834442139,0.5916063704802039,11.0,113.0,0.0
G,D,"[6, 8]",1.0,4.0,0.2711038589477539,1.7949268817901611,0.5364622706439943,11.0,114.0,0.0
Y,R,"[6, 9]",1.0,5.0,0.25708508491516113,1.521385908126831,0.25823107914015186,11.0,115.0,0.0
R,U,"[5, 9]",0.0,5.0,0.45844101905822754,1.9512710571289062,0.49251658777478874,11.0,116.0,0.0
R,U,"[4, 9]",1.0,6.0,0.27663397789001465,1.7010669708251953,0.4269376571564898,11.0,117.0,0.0
R,U,"[3, 9]",1.0,7.0,0.33170390129089355,1.8371920585632324,0.5139340830674906,11.0,118.0,0.0
R,U,"[2, 9]",-2.0,7.0,1.1974308490753174,2.748537063598633,0.5790787656587928,11.0,119.0,0.0
R,U,"[1, 9]",0.0,7.0,0.25541210174560547,1.8524072170257568,0.5813813732860369,11.0,120.0,0.0
,,"(6, 6)",,,,,,,,
R,U,"[5, 6]",1.0,1.0,0.6399941444396973,4.370342969894409,0.5351063790194381,12.0,121.0,0.0
Y,R,"[5, 7]",1.0,2.0,0.5276479721069336,2.2564949989318848,0.7245663691957921,12.0,122.0,0.0
Y,R,"[5, 8]",1.0,3.0,0.21673297882080078,1.7414870262145996,0.53290435531773,12.0,123.0,0.0
Y,R,"[5, 9]",0.0,3.0,0.9626431465148926,2.663801908493042,0.6964527114661903,12.0,124.0,0.0
Y,R,"[5, 10]",1.0,4.0,0.16200709342956543,1.6642591953277588,0.4943533001030621,12.0,125.0,0.0
R,U,"[4, 10]",1.0,5.0,0.3135190010070801,1.7842819690704346,0.4785955929252968,12.0,126.0,0.0
R,U,"[3, 10]",0.0,5.0,0.2981381416320801,1.9516830444335938,0.6633793386747924,12.0,127.0,0.0
R,U,"[2, 10]",0.0,5.0,0.2599141597747803,1.8562390804290771,0.5863561306386358,12.0,128.0,0.0
B,L,"[2, 9]",0.0,5.0,0.5949141979217529,2.2690482139587402,0.6721263065296319,12.0,129.0,0.0
B,L,"[2, 8]",0.0,5.0,0.7292771339416504,2.3076720237731934,0.5799219601180692,12.0,130.0,0.0
,,"(6, 6)",,,,,,,,
R,U,"[5, 6]",1.0,1.0,0.7489237785339355,3.927625894546509,0.4573082252681222,13.0,131.0,0.0
Y,R,"[5, 7]",1.0,2.0,0.2664201259613037,1.5196168422698975,0.26034492958638716,13.0,132.0,0.0
Y,R,"[5, 8]",1.0,3.0,0.4721200466156006,1.8596479892730713,0.4031185160766562,13.0,133.0,0.0
G,D,"[6, 8]",1.0,4.0,0.46252989768981934,2.11080002784729,0.64703730669709,13.0,134.0,0.0
Y,R,"[6, 9]",1.0,5.0,0.3597989082336426,1.684973955154419,0.3155341339821858,13.0,135.0,0.0
R,U,"[5, 9]",0.0,5.0,0.920490026473999,2.3617801666259766,0.44388783611538685,13.0,136.0,0.0
R,U,"[4, 9]",1.0,6.0,0.2664649486541748,1.8622381687164307,0.6058515352622946,13.0,137.0,0.0
R,U,"[3, 9]",1.0,7.0,0.31786394119262695,1.8726940155029297,0.5619741582032174,13.0,138.0,0.0
G,D,"[4, 9]",0.0,7.0,0.7254388332366943,2.3450891971588135,0.6071772746272438,13.0,139.0,0.0
Y,R,"[4, 10]",1.0,8.0,0.46007704734802246,1.7249929904937744,0.26543489193778896,13.0,140.0,0.0
,,"(6, 6)",,,,,,,,
R,U,"[5, 6]",1.0,1.0,0.7493350505828857,4.92264199256897,0.3047486356089462,14.0,141.0,0.0
Y,R,"[5, 7]",1.0,2.0,0.3020660877227783,2.040572166442871,0.7447465230974852,14.0,142.0,0.0
Y,R,"[5, 8]",1.0,3.0,0.2653059959411621,1.7571940422058105,0.5022053013414871,14.0,143.0,0.0
G,D,"[6, 8]",1.0,4.0,0.33102989196777344,1.9782919883728027,0.6474184098525337,14.0,144.0,0.0
Y,R,"[6, 9]",1.0,5.0,0.5096549987792969,2.231790065765381,0.7120903037845918,14.0,145.0,0.0
R,U,"[5, 9]",0.0,5.0,0.8052990436553955,2.1617050170898438,0.3572649038876982,14.0,146.0,0.0
R,U,"[4, 9]",1.0,6.0,0.8182809352874756,2.3549928665161133,0.5454484338541479,14.0,147.0,0.0
R,U,"[3, 9]",1.0,7.0,0.3436391353607178,1.6099598407745361,0.2555685181721019,14.0,148.0,0.0
R,U,"[2, 9]",0.0,7.0,0.5155680179595947,2.1195449829101562,0.6081665652908528,14.0,149.0,0.0
Y,R,"[2, 10]",0.0,7.0,0.3569350242614746,1.8362030982971191,0.4943830899986197,14.0,150.0,0.0
,,"(6, 6)",,,,,,,,
R,U,"[5, 6]",1.0,1.0,0.9619081020355225,4.633669137954712,0.5446075652379581,15.0,151.0,0.0
Y,R,"[5, 7]",1.0,2.0,0.47321105003356934,1.9832279682159424,0.5278258143245669,15.0,152.0,0.0
Y,R,"[5, 8]",1.0,3.0,0.3668358325958252,2.0374770164489746,0.6816885727086675,15.0,153.0,0.0
G,D,"[6, 8]",1.0,4.0,0.33937907218933105,1.841555118560791,0.49001830520954337,15.0,154.0,0.0
Y,R,"[6, 9]",1.0,5.0,0.5305600166320801,1.9001600742340088,0.37363223787107197,15.0,155.0,0.0
Y,R,"[6, 10]",1.0,6.0,0.4408118724822998,2.1144301891326904,0.6711409995480193,15.0,156.0,0.0
R,U,"[5, 10]",1.0,7.0,0.38756895065307617,1.7676129341125488,0.3889917708175362,15.0,157.0,0.0
B,L,"[5, 9]",-2.0,7.0,1.3451898097991943,2.9040679931640625,0.5927230811772691,15.0,158.0,0.0
B,L,"[5, 8]",0.0,7.0,0.1851658821105957,1.7461521625518799,0.5722348496926672,15.0,159.0,0.0
R,U,"[4, 8]",0.0,7.0,0.6641321182250977,2.1970221996307373,0.5359651151291278,15.0,160.0,0.0
,,"(6, 6)",,,,,,,,
R,U,"[5, 6]",-2.0,0.0,1.4003849029541016,4.319342136383057,0.5551092442208344,16.0,161.0,0.0
R,U,"[4, 6]",0.0,0.0,0.2063579559326172,1.4867069721221924,0.2921097149180925,16.0,162.0,0.0
Y,R,"[4, 7]",0.0,0.0,0.44907093048095703,2.1062448024749756,0.6644391196611605,16.0,163.0,0.0
Y,R,"[4, 8]",0.0,0.0,0.12235593795776367,1.3919110298156738,0.27355147998686213,16.0,164.0,0.0
Y,R,"[4, 9]",1.0,1.0,0.3381381034851074,1.7977521419525146,0.4710846042962607,16.0,165.0,0.0
Y,R,"[4, 10]",1.0,2.0,0.4349250793457031,2.028254985809326,0.5991216591929793,16.0,166.0,0.0
R,U,"[3, 10]",-2.0,2.0,1.1046528816223145,2.531277894973755,0.4636523555105189,16.0,167.0,0.0
R,U,"[2, 10]",0.0,2.0,0.23635005950927734,1.5286071300506592,0.29261054241832846,16.0,168.0,0.0
R,U,"[1, 10]",0.0,2.0,0.23487591743469238,1.8521010875701904,0.6276208886167676,16.0,169.0,0.0
R,U,"[2, 10]",-3.0,2.0,0.4276089668273926,2.1371560096740723,0.7145266722756355,16.0,170.0,0.0
,,"(6, 6)",,,,,,,,
R,U,"[5, 6]",1.0,1.0,0.6804759502410889,4.95737099647522,0.522097498152621,17.0,171.0,0.0
Y,R,"[5, 7]",1.0,2.0,0.23661398887634277,1.5729749202728271,0.3450592691710332,17.0,172.0,0.0
Y,R,"[5, 8]",1.0,3.0,0.35177111625671387,1.6691088676452637,0.3308782629898507,17.0,173.0,0.0
G,D,"[6, 8]",1.0,4.0,0.4275400638580322,1.9771769046783447,0.5411987388173065,17.0,174.0,0.0
Y,R,"[6, 9]",1.0,5.0,0.37482500076293945,1.958277940750122,0.5827312102603811,17.0,175.0,0.0
Y,R,"[6, 10]",1.0,6.0,0.28316807746887207,1.6989870071411133,0.41519081661537927,17.0,176.0,0.0
R,U,"[5, 10]",1.0,7.0,0.3400998115539551,2.0155129432678223,0.6637595085013824,17.0,177.0,0.0
R,U,"[4, 10]",1.0,8.0,0.3525371551513672,2.0223188400268555,0.6693510783487894,17.0,178.0,0.0
Y,R,"[4, 11]",0.0,8.0,0.276885986328125,1.9204180240631104,0.6397515228608059,17.0,179.0,0.0
Y,R,"[4, 10]",-3.0,8.0,0.2911238670349121,1.735795021057129,0.44235892304714614,17.0,180.0,0.0
,,"(6, 6)",,,,,,,,
R,U,"[5, 6]",1.0,1.0,0.8539209365844727,4.070076942443848,0.3123736788836139,18.0,181.0,0.0
Y,R,"[5, 7]",1.0,2.0,0.4985949993133545,1.8476719856262207,0.3433275689494752,18.0,182.0,0.0
Y,R,"[5, 8]",1.0,3.0,0.5821638107299805,1.8620610237121582,0.28871925660870423,18.0,183.0,0.0
G,D,"[6, 8]",-2.0,3.0,1.0494239330291748,2.58636212348938,0.574812829471882,18.0,184.0,0.0
G,D,"[7, 8]",0.0,3.0,0.40206003189086914,1.7157208919525146,0.32413188474658516,18.0,185.0,0.0
Y,R,"[7, 9]",0.0,3.0,0.547339916229248,1.826002836227417,0.28346324177691384,18.0,186.0,0.0
Y,R,"[7, 10]",0.0,3.0,0.4090240001678467,2.0544729232788086,0.6375349102643137,18.0,187.0,0.0
R,U,"[6, 10]",-1.0,3.0,0.024532079696655273,5.524921894073486,0.44575941838991984,18.0,188.0,0.0
B,L,"[6, 9]",1.0,4.0,0.35794496536254883,1.8883039951324463,0.5172913384191853,18.0,189.0,0.0
B,L,"[6, 8]",0.0,4.0,0.34830808639526367,1.9918320178985596,0.6422494508825691,18.0,190.0,0.0
,,"(6, 6)",,,,,,,,
R,U,"[5, 6]",1.0,1.0,0.7687690258026123,4.82887601852417,0.27152647429675,19.0,191.0,0.0
Y,R,"[5, 7]",1.0,2.0,0.453326940536499,1.7221980094909668,0.27693272298059407,19.0,192.0,0.0
Y,R,"[5, 8]",1.0,3.0,0.31297898292541504,1.878443956375122,0.5718151611846346,19.0,193.0,0.0
G,D,"[6, 8]",1.0,4.0,0.810960054397583,2.555424928665161,0.7436274688529783,19.0,194.0,0.0
Y,R,"[6, 9]",1.0,5.0,0.33852291107177734,2.061728000640869,0.7220093613509022,19.0,195.0,0.0
Y,R,"[6, 10]",1.0,6.0,0.32485198974609375,1.8942499160766602,0.5666756701712794,19.0,196.0,0.0
R,U,"[5, 10]",1.0,7.0,0.30001401901245117,1.7262840270996094,0.42595047845714673,19.0,197.0,0.0
B,L,"[5, 9]",0.0,7.0,0.5961370468139648,2.2847540378570557,0.6938377006292595,19.0,198.0,0.0
B,L,"[5, 8]",0.0,7.0,0.259443998336792,1.6049621105194092,0.3657701418206351,19.0,199.0,0.0
B,L,"[5, 7]",0.0,7.0,0.3861238956451416,1.7544419765472412,0.37021291092454517,19.0,200.0,0.0
,,"(6, 6)",,,,,,,,
R,U,"[5, 6]",-2.0,0.0,1.076737880706787,4.3998188972473145,0.5696207585448835,20.0,201.0,0.0
Y,R,"[5, 7]",1.0,1.0,0.7731859683990479,2.1773810386657715,0.41383280110215204,20.0,202.0,0.0
Y,R,"[5, 8]",1.0,2.0,0.3717460632324219,2.041356086730957,0.6716040616765548,20.0,203.0,0.0
G,D,"[6, 8]",1.0,3.0,0.25746798515319824,1.6278491020202637,0.3663854673925721,20.0,204.0,0.0
Y,R,"[6, 9]",1.0,4.0,0.3790740966796875,1.8256230354309082,0.4417360516489576,20.0,205.0,0.0
Y,R,"[6, 10]",1.0,5.0,0.3385920524597168,2.0597689151763916,0.7180614149550747,20.0,206.0,0.0
R,U,"[5, 10]",1.0,6.0,0.6566870212554932,1.929304838180542,0.2808968500384998,20.0,207.0,0.0
R,U,"[4, 10]",1.0,7.0,0.42136287689208984,1.8907649517059326,0.4549316157871604,20.0,208.0,0.0
Y,R,"[4, 11]",0.0,7.0,0.6660001277923584,2.3359029293060303,0.6738168344646913,20.0,209.0,0.0
B,L,"[4, 10]",0.0,7.0,0.39682793617248535,1.9476687908172607,0.5549525619197335,20.0,210.0,0.0
,,"(6, 6)",,,,,,,,
R,U,"[5, 6]",1.0,1.0,0.4477391242980957,3.237441062927246,0.4090189132029877,21.0,211.0,0.0
R,U,"[4, 6]",0.0,1.0,0.33129286766052246,1.9971818923950195,0.673114475345993,21.0,212.0,0.0
Y,R,"[4, 7]",0.0,1.0,0.11939501762390137,1.4793059825897217,0.3689182944779075,21.0,213.0,0.0
Y,R,"[4, 8]",0.0,1.0,0.9472508430480957,2.66495418548584,0.71682066001809,21.0,214.0,0.0
Y,R,"[4, 9]",-1.0,1.0,0.032791852951049805,5.507503986358643,0.40784470836196307,21.0,215.0,0.0
R,U,"[3, 9]",1.0,2.0,0.28420495986938477,1.9999220371246338,0.7240348819162705,21.0,216.0,0.0
R,U,"[2, 9]",-1.0,2.0,0.057672977447509766,5.848150968551636,0.7390166635404192,21.0,217.0,0.0
B,L,"[2, 8]",0.0,2.0,0.6911780834197998,2.082202196121216,0.38796998473458444,21.0,218.0,0.0
B,L,"[2, 7]",0.0,2.0,0.4026498794555664,2.0178511142730713,0.6224474246359146,21.0,219.0,0.0
B,L,"[2, 6]",0.0,2.0,0.9531581401824951,2.6719961166381836,0.7274021602589044,21.0,220.0,0.0
,,"(6, 6)",,,,,,,,
R,U,"[5, 6]",1.0,1.0,0.9428529739379883,4.031515121459961,0.7253929434147224,22.0,221.0,0.0
Y,R,"[5, 7]",1.0,2.0,0.33411407470703125,1.9881789684295654,0.6635947021022193,22.0,222.0,0.0
Y,R,"[5, 8]",1.0,3.0,0.3000471591949463,1.7713959217071533,0.4683899462166171,22.0,223.0,0.0
G,D,"[6, 8]",1.0,4.0,0.40044498443603516,1.7692039012908936,0.37123145537386587,22.0,224.0,0.0
Y,R,"[6, 9]",1.0,5.0,0.5667600631713867,2.2936651706695557,0.7310549296921376,22.0,225.0,0.0
Y,R,"[6, 10]",1.0,6.0,0.5056540966033936,1.832197904586792,0.31356396262573066,22.0,226.0,0.0
R,U,"[5, 10]",1.0,7.0,0.6013598442077637,2.0144879817962646,0.41117123532219124,22.0,227.0,0.0
R,U,"[4, 10]",1.0,8.0,0.6313869953155518,2.2264270782470703,0.6040842727702727,22.0,228.0,0.0
B,L,"[4, 9]",1.0,9.0,0.4349370002746582,1.7725281715393066,0.3435250454504478,22.0,229.0,0.0
Y,R,"[4, 10]",0.0,9.0,0.6073658466339111,1.9932701587677002,0.4033049971472184,22.0,230.0,0.0
,,"(6, 6)",,,,,,,,
R,U,"[5, 6]",1.0,1.0,0.6865980625152588,3.8074629306793213,0.4107487811136041,23.0,231.0,0.0
Y,R,"[5, 7]",1.0,2.0,0.4612748622894287,2.10595703125,0.6496576108490428,23.0,232.0,0.0
Y,R,"[5, 8]",1.0,3.0,0.29059386253356934,1.8855431079864502,0.585313816320614,23.0,233.0,0.0
G,D,"[6, 8]",1.0,4.0,0.35121798515319824,1.8357150554656982,0.487753870970087,23.0,234.0,0.0
Y,R,"[6, 9]",1.0,5.0,0.5668940544128418,1.9218368530273438,0.3596645540977686,23.0,235.0,0.0
R,U,"[5, 9]",-2.0,5.0,1.3592801094055176,2.6051888465881348,0.28143625148803525,23.0,236.0,0.0
R,U,"[4, 9]",1.0,6.0,0.6134591102600098,2.193938970565796,0.5751235245569453,23.0,237.0,0.0
R,U,"[3, 9]",1.0,7.0,0.29527997970581055,1.8383939266204834,0.5469328938834599,23.0,238.0,0.0
B,L,"[3, 8]",0.0,7.0,0.2911560535430908,1.9686298370361328,0.6654156981414634,23.0,239.0,0.0
B,L,"[3, 7]",0.0,7.0,0.3025331497192383,1.587453842163086,0.2864216918365128,23.0,240.0,0.0
,,"(6, 6)",,,,,,,,
R,U,"[5, 6]",1.0,1.0,0.9216339588165283,7.300196886062622,0.6196459058129467,24.0,241.0,0.0
Y,R,"[5, 7]",-1.0,1.0,0.05976605415344238,5.789578914642334,0.6590584722281407,24.0,242.0,0.0
Y,R,"[5, 8]",1.0,2.0,0.3847219944000244,1.7457640171051025,0.37187114384904374,24.0,243.0,0.0
G,D,"[6, 8]",1.0,3.0,0.4487578868865967,1.7189369201660156,0.272512234583822,24.0,244.0,0.0
Y,R,"[6, 9]",1.0,4.0,0.4141361713409424,2.0184710025787354,0.6089655106009699,24.0,245.0,0.0
Y,R,"[6, 10]",1.0,5.0,0.8643560409545898,2.2990591526031494,0.4414384059373883,24.0,246.0,0.0
R,U,"[5, 10]",1.0,6.0,0.29034900665283203,1.561795949935913,0.2700464478856342,24.0,247.0,0.0
R,U,"[4, 10]",1.0,7.0,0.40430188179016113,2.1305251121520996,0.7335235342244661,24.0,248.0,0.0
G,D,"[5, 10]",0.0,7.0,0.2282559871673584,1.9557890892028809,0.7224696135096591,24.0,249.0,0.0
B,L,"[5, 9]",0.0,7.0,0.27690696716308594,1.8500428199768066,0.572679074329171,24.0,250.0,0.0
,,"(6, 6)",,,,,,,,
R,U,"[5, 6]",-2.0,0.0,1.5255141258239746,4.599610805511475,0.5723740278106322,25.0,251.0,0.0
R,U,"[4, 6]",0.0,0.0,0.5093109607696533,1.813689947128296,0.3028994380748181,25.0,252.0,0.0
G,D,"[5, 6]",0.0,0.0,0.7994890213012695,2.498528003692627,0.7009881806813161,25.0,253.0,0.0
G,D,"[6, 6]",0.0,0.0,0.2015829086303711,1.4492840766906738,0.2507566014598285,25.0,254.0,0.0
B,L,"[6, 5]",0.0,0.0,0.4245579242706299,2.0672411918640137,0.6342161435935053,25.0,255.0,0.0
Y,R,"[6, 6]",0.0,0.0,0.3208489418029785,1.9111781120300293,0.5954822308464747,25.0,256.0,0.0
Y,R,"[6, 7]",0.0,0.0,0.20216012001037598,1.8936541080474854,0.6889749611581995,25.0,257.0,0.0
Y,R,"[6, 8]",1.0,1.0,0.2868030071258545,2.019008159637451,0.7413556750337635,25.0,258.0,0.0
Y,R,"[6, 9]",1.0,2.0,0.2771608829498291,1.5439131259918213,0.26904283292036474,25.0,259.0,0.0
Y,R,"[6, 10]",1.0,3.0,0.8583099842071533,2.211116075515747,0.3467077668919754,25.0,260.0,0.0
,,"(6, 6)",,,,,,,,
R,U,"[5, 6]",1.0,1.0,0.6390471458435059,4.841859817504883,0.7214842789287754,26.0,261.0,0.0
Y,R,"[5, 7]",1.0,2.0,0.32849597930908203,1.6221859455108643,0.29404662453943736,26.0,262.0,0.0
Y,R,"[5, 8]",1.0,3.0,0.4314568042755127,2.072420835494995,0.6494475109197129,26.0,263.0,0.0
G,D,"[6, 8]",1.0,4.0,0.2760350704193115,1.963244915008545,0.6793080075253408,26.0,264.0,0.0
Y,R,"[6, 9]",1.0,5.0,0.22441482543945312,1.6959929466247559,0.4588389573236438,26.0,265.0,0.0
Y,R,"[6, 10]",1.0,6.0,0.4971439838409424,2.181334972381592,0.6898946015519327,26.0,266.0,0.0
R,U,"[5, 10]",1.0,7.0,0.29407501220703125,1.9676029682159424,0.6742044549477134,26.0,267.0,0.0
R,U,"[4, 10]",1.0,8.0,0.41107702255249023,1.8321490287780762,0.42326227193974003,26.0,268.0,0.0
Y,R,"[4, 11]",0.0,8.0,0.49579310417175293,2.052440881729126,0.5588440115715461,26.0,269.0,0.0
Y,R,"[4, 10]",-3.0,8.0,0.4756650924682617,1.9000887870788574,0.4257261074079727,26.0,270.0,0.0
,,"(6, 6)",,,,,,,,
R,U,"[5, 6]",1.0,1.0,0.8009610176086426,5.043777942657471,0.6357730526486427,27.0,271.0,0.0
Y,R,"[5, 7]",1.0,2.0,0.20656609535217285,1.9027869701385498,0.689104316711511,27.0,272.0,0.0
Y,R,"[5, 8]",1.0,3.0,0.29762697219848633,1.8844549655914307,0.5897401632927414,27.0,273.0,0.0
G,D,"[6, 8]",1.0,4.0,0.29323601722717285,1.660742998123169,0.3674342860452126,27.0,274.0,0.0
Y,R,"[6, 9]",1.0,5.0,0.46556997299194336,2.025557041168213,0.5593963786156279,27.0,275.0,0.0
Y,R,"[6, 10]",1.0,6.0,0.23890995979309082,1.850924015045166,0.6102832517280297,27.0,276.0,0.0
R,U,"[5, 10]",1.0,7.0,0.7141580581665039,2.368468999862671,0.6619012071238647,27.0,277.0,0.0
R,U,"[4, 10]",1.0,8.0,0.21253705024719238,1.4932708740234375,0.2723504248217846,27.0,278.0,0.0
G,D,"[5, 10]",0.0,8.0,0.5502369403839111,2.2760109901428223,0.7311718812050401,27.0,279.0,0.0
Y,R,"[5, 11]",0.0,8.0,0.2308201789855957,1.6201488971710205,0.385013278529455,27.0,280.0,0.0
,,"(6, 6)",,,,,,,,
R,U,"[5, 6]",1.0,1.0,0.9688119888305664,3.626746892929077,0.44499939857500465,28.0,281.0,0.0
Y,R,"[5, 7]",1.0,2.0,0.28450608253479004,1.9695658683776855,0.6978123341187983,28.0,282.0,0.0
Y,R,"[5, 8]",1.0,3.0,0.2081601619720459,1.5833220481872559,0.36453047463261706,28.0,283.0,0.0
G,D,"[6, 8]",1.0,4.0,0.39008617401123047,2.0563759803771973,0.6541461001922187,28.0,284.0,0.0
Y,R,"[6, 9]",1.0,5.0,0.24576616287231445,1.9775209426879883,0.7313200849428609,28.0,285.0,0.0
Y,R,"[6, 10]",1.0,6.0,0.3874070644378662,1.8280069828033447,0.4429303017889249,28.0,286.0,0.0
R,U,"[5, 10]",1.0,7.0,0.35515594482421875,2.040156126022339,0.699531520996421,28.0,287.0,0.0
R,U,"[4, 10]",1.0,8.0,0.1408710479736328,1.4182400703430176,0.26820948080908225,28.0,288.0,0.0
Y,R,"[4, 11]",0.0,8.0,0.4719970226287842,2.0357511043548584,0.5703006988135023,28.0,289.0,0.0
Y,R,"[4, 10]",-3.0,8.0,0.24889588356018066,1.5788099765777588,0.33266471317866714,28.0,290.0,0.0
,,"(6, 6)",,,,,,,,
R,U,"[5, 6]",1.0,1.0,0.6020619869232178,3.525096893310547,0.27443997197974185,29.0,291.0,0.0
Y,R,"[5, 7]",1.0,2.0,0.31866002082824707,1.7665119171142578,0.4573403293351109,29.0,292.0,0.0
Y,R,"[5, 8]",1.0,3.0,0.27500414848327637,1.797652006149292,0.5216337902898291,29.0,293.0,0.0
G,D,"[6, 8]",1.0,4.0,0.24454402923583984,1.6938560009002686,0.44888809374262023,29.0,294.0,0.0
Y,R,"[6, 9]",1.0,5.0,0.3189709186553955,1.9314239025115967,0.6133612188615439,29.0,295.0,0.0
Y,R,"[6, 10]",1.0,6.0,0.20956182479858398,1.5607569217681885,0.3411131330752816,29.0,296.0,0.0
R,U,"[5, 10]",1.0,7.0,0.2476060390472412,1.5053081512451172,0.26318013339904045,29.0,297.0,0.0
R,U,"[4, 10]",1.0,8.0,0.684377908706665,2.208177089691162,0.5210830224860652,29.0,298.0,0.0
R,U,"[3, 10]",0.0,8.0,0.9128601551055908,2.4786620140075684,0.5663429261381598,29.0,299.0,0.0
Y,R,"[3, 11]",0.0,8.0,0.29056811332702637,1.9344768524169922,0.6340498997601001,29.0,300.0,0.0
,,"(6, 6)",,,,,,,,
R,U,"[5, 6]",1.0,1.0,0.6457090377807617,3.9963910579681396,0.5304588465463432,30.0,301.0,0.0
Y,R,"[5, 7]",1.0,2.0,0.2124638557434082,1.9644699096679688,0.7446184748649654,30.0,302.0,0.0
Y,R,"[5, 8]",1.0,3.0,0.23619699478149414,1.543276071548462,0.3217265544016572,30.0,303.0,0.0
G,D,"[6, 8]",1.0,4.0,0.4255380630493164,2.0573890209198,0.628740037389754,30.0,304.0,0.0
Y,R,"[6, 9]",1.0,5.0,0.26462292671203613,1.8901238441467285,0.6187797580591716,30.0,305.0,0.0
Y,R,"[6, 10]",1.0,6.0,0.2592639923095703,1.9582629203796387,0.6936298221897523,30.0,306.0,0.0
R,U,"[5, 10]",1.0,7.0,0.17213082313537598,1.476897954940796,0.304312006980294,30.0,307.0,0.0
R,U,"[4, 10]",1.0,8.0,0.4437868595123291,2.142338991165161,0.6962401114261624,30.0,308.0,0.0
B,L,"[4, 9]",1.0,9.0,0.24576807022094727,1.8890600204467773,0.6353317318591762,30.0,309.0,0.0
Y,R,"[4, 10]",0.0,9.0,0.3274538516998291,1.813612937927246,0.4824069584922076,30.0,310.0,0.0
,,"(6, 6)",,,,,,,,
R,U,"[5, 6]",1.0,1.0,0.8207828998565674,5.821971893310547,0.40445445257734075,31.0,311.0,0.0
Y,R,"[5, 7]",1.0,2.0,0.3314249515533447,1.6329119205474854,0.3040803458940578,31.0,312.0,0.0
Y,R,"[5, 8]",1.0,3.0,0.3336808681488037,1.625722885131836,0.2964237980916826,31.0,313.0,0.0
G,D,"[6, 8]",1.0,4.0,0.5766592025756836,2.2430739402770996,0.6558482288497396,31.0,314.0,0.0
Y,R,"[6, 9]",1.0,5.0,0.2623279094696045,1.7512671947479248,0.49056255701392376,31.0,315.0,0.0
Y,R,"[6, 10]",1.0,6.0,0.3470458984375,1.9256110191345215,0.5827059829212127,31.0,316.0,0.0
R,U,"[5, 10]",1.0,7.0,0.19765591621398926,1.9115571975708008,0.7108109101367515,31.0,317.0,0.0
R,U,"[4, 10]",1.0,8.0,0.22274112701416016,1.473966121673584,0.25172395269619846,31.0,318.0,0.0
B,L,"[4, 9]",1.0,9.0,0.4692537784576416,2.184140920639038,0.7187618250071985,31.0,319.0,0.0
R,U,"[3, 9]",1.0,10.0,0.2000119686126709,1.4807898998260498,0.283399305261445,31.0,320.0,0.0
,,"(6, 6)",,,,,,,,
R,U,"[5, 6]",1.0,1.0,0.7815608978271484,4.4217400550842285,0.7212102619299392,32.0,321.0,0.0
R,U,"[4, 6]",0.0,1.0,0.22389888763427734,1.940382957458496,0.7116672891234399,32.0,322.0,0.0
Y,R,"[4, 7]",0.0,1.0,0.23517298698425293,1.6573548316955566,0.4358329055635081,32.0,323.0,0.0
Y,R,"[4, 8]",0.0,1.0,0.34203600883483887,1.7720320224761963,0.42453986559773493,32.0,324.0,0.0
Y,R,"[4, 9]",1.0,2.0,0.27724313735961914,1.6025028228759766,0.32717545963986755,32.0,325.0,0.0
Y,R,"[4, 10]",1.0,3.0,0.38318300247192383,1.7831978797912598,0.41027286602911467,32.0,326.0,0.0
R,U,"[3, 10]",0.0,3.0,0.30921292304992676,1.5926439762115479,0.28638032908479893,32.0,327.0,0.0
R,U,"[2, 10]",0.0,3.0,0.34188103675842285,1.9818029403686523,0.6343304717632965,32.0,328.0,0.0
B,L,"[2, 9]",0.0,3.0,0.20148086547851562,1.5859789848327637,0.38725695828431755,32.0,329.0,0.0
Y,R,"[2, 10]",0.0,3.0,0.23823881149291992,1.608773946762085,0.3793398037950398,32.0,330.0,0.0
,,"(6, 6)",,,,,,,,
R,U,"[5, 6]",1.0,1.0,0.4789540767669678,2.9827001094818115,0.5619160786397179,33.0,331.0,0.0
Y,R,"[5, 7]",1.0,2.0,0.2146139144897461,1.5652821063995361,0.3440842113425987,33.0,332.0,0.0
Y,R,"[5, 8]",1.0,3.0,0.3912968635559082,1.9773039817810059,0.5877128787187802,33.0,333.0,0.0
G,D,"[6, 8]",1.0,4.0,0.25259900093078613,1.9163858890533447,0.6708230841991885,33.0,334.0,0.0
Y,R,"[6, 9]",1.0,5.0,0.27158403396606445,1.9093308448791504,0.6467493670257431,33.0,335.0,0.0
Y,R,"[6, 10]",1.0,6.0,0.2696340084075928,1.995378017425537,0.7253261397153201,33.0,336.0,0.0
R,U,"[5, 10]",1.0,7.0,0.27304983139038086,1.934473991394043,0.6598430518480514,33.0,337.0,0.0
R,U,"[4, 10]",1.0,8.0,0.3958919048309326,1.7749581336975098,0.38505051772019916,33.0,338.0,0.0
B,L,"[4, 9]",1.0,9.0,0.3423631191253662,1.9774320125579834,0.6287851261335087,33.0,339.0,0.0
R,U,"[3, 9]",1.0,10.0,0.27704715728759766,1.6840929985046387,0.3966208618552331,33.0,340.0,0.0
,,"(6, 6)",,,,,,,,
R,U,"[5, 6]",1.0,1.0,0.8285171985626221,4.314934015274048,0.7276939941169471,34.0,341.0,0.0
Y,R,"[5, 7]",1.0,2.0,0.1616358757019043,1.6423611640930176,0.4869242908542163,34.0,342.0,0.0
Y,R,"[5, 8]",1.0,3.0,0.31056904792785645,1.864645004272461,0.5515121652494407,34.0,343.0,0.0
G,D,"[6, 8]",1.0,4.0,0.37796998023986816,1.9006319046020508,0.5188872567067078,34.0,344.0,0.0
Y,R,"[6, 9]",1.0,5.0,0.3349330425262451,2.0543341636657715,0.7229423146079611,34.0,345.0,0.0
Y,R,"[6, 10]",1.0,6.0,0.21294212341308594,1.6135401725769043,0.40345043853801416,34.0,346.0,0.0
R,U,"[5, 10]",1.0,7.0,0.6172540187835693,2.157942056655884,0.5445920540381237,34.0,347.0,0.0
R,U,"[4, 10]",1.0,8.0,0.260242223739624,1.8001761436462402,0.5447087397581314,34.0,348.0,0.0
B,L,"[4, 9]",1.0,9.0,0.28351807594299316,1.6488420963287354,0.37702461404201726,34.0,349.0,0.0
R,U,"[3, 9]",1.0,10.0,0.4802401065826416,1.9242889881134033,0.45121572934210014,34.0,350.0,0.0
,,"(6, 6)",,,,,,,,
R,U,"[5, 6]",1.0,1.0,0.6815309524536133,3.172522783279419,0.47363916927031896,35.0,351.0,0.0
R,U,"[4, 6]",0.0,1.0,0.3181271553039551,1.7156970500946045,0.40608125152649716,35.0,352.0,0.0
Y,R,"[4, 7]",0.0,1.0,0.3085050582885742,1.5782251358032227,0.26774170423203475,35.0,353.0,0.0
Y,R,"[4, 8]",0.0,1.0,0.5771770477294922,2.200171947479248,0.6175334499306921,35.0,354.0,0.0
Y,R,"[4, 9]",1.0,2.0,0.23111915588378906,1.5945589542388916,0.3623496372020524,35.0,355.0,0.0
Y,R,"[4, 10]",1.0,3.0,0.39216089248657227,1.7691490650177002,0.364815330879237,35.0,356.0,0.0
R,U,"[3, 10]",0.0,3.0,0.3634979724884033,1.791409969329834,0.42275804542430306,35.0,357.0,0.0
R,U,"[2, 10]",0.0,3.0,0.216156005859375,1.4653668403625488,0.25499413241050367,35.0,358.0,0.0
B,L,"[2, 9]",0.0,3.0,0.3223140239715576,1.8190340995788574,0.5069364004251184,35.0,359.0,0.0
R,U,"[1, 9]",0.0,3.0,0.24002599716186523,1.6964411735534668,0.4535622566993541,35.0,360.0,0.0
,,"(6, 6)",,,,,,,,
R,U,"[5, 6]",1.0,1.0,0.5012021064758301,2.9854819774627686,0.2723958235133791,36.0,361.0,0.0
Y,R,"[5, 7]",1.0,2.0,0.3753969669342041,1.6502208709716797,0.27262207818899714,36.0,362.0,0.0
Y,R,"[5, 8]",1.0,3.0,0.43845391273498535,2.078752040863037,0.6343701963941148,36.0,363.0,0.0
G,D,"[6, 8]",-1.0,3.0,0.0820169448852539,5.550939083099365,0.3855312906050973,36.0,364.0,0.0
Y,R,"[6, 9]",1.0,4.0,0.27593994140625,1.8545739650726318,0.5732270829461756,36.0,365.0,0.0
Y,R,"[6, 10]",1.0,5.0,0.22595000267028809,1.8264310359954834,0.5995575461518563,36.0,366.0,0.0
R,U,"[5, 10]",1.0,6.0,0.2416248321533203,1.9274919033050537,0.676878628083234,36.0,367.0,0.0
R,U,"[4, 10]",1.0,7.0,0.24289798736572266,1.6367690563201904,0.3973275610327725,36.0,368.0,0.0
B,L,"[4, 9]",1.0,8.0,0.5069839954376221,2.207927942276001,0.6881624591526871,36.0,369.0,0.0
R,U,"[3, 9]",1.0,9.0,0.28995203971862793,2.0089190006256104,0.713751987167274,36.0,370.0,0.0
,,"(6, 6)",,,,,,,,
R,U,"[5, 6]",1.0,1.0,0.6703929901123047,3.6889538764953613,0.46957302600664996,37.0,371.0,0.0
Y,R,"[5, 7]",1.0,2.0,0.3190748691558838,1.8610711097717285,0.5472655378013667,37.0,372.0,0.0
Y,R,"[5, 8]",1.0,3.0,0.21516084671020508,1.699031114578247,0.4796145951026855,37.0,373.0,0.0
G,D,"[6, 8]",1.0,4.0,0.23818588256835938,1.74021315574646,0.5031292265237939,37.0,374.0,0.0
Y,R,"[6, 9]",1.0,5.0,0.32881689071655273,1.9047789573669434,0.5745307921364692,37.0,375.0,0.0
Y,R,"[6, 10]",1.0,6.0,0.19181203842163086,1.446371078491211,0.25452582142720503,37.0,376.0,0.0
R,U,"[5, 10]",1.0,7.0,0.42680907249450684,1.7883751392364502,0.35938419139173894,37.0,377.0,0.0
R,U,"[4, 10]",1.0,8.0,0.4194648265838623,1.9584810733795166,0.5509341840591306,37.0,378.0,0.0
B,L,"[4, 9]",1.0,9.0,0.28082990646362305,1.7782421112060547,0.4959561491183242,37.0,379.0,0.0
R,U,"[3, 9]",1.0,10.0,0.23551511764526367,1.5251810550689697,0.28786670442259665,37.0,380.0,0.0
,,"(6, 6)",,,,,,,,
R,U,"[5, 6]",1.0,1.0,0.5350220203399658,2.874455213546753,0.2957408557585463,38.0,381.0,0.0
R,U,"[4, 6]",0.0,1.0,0.235443115234375,1.836453914642334,0.5985133860427697,38.0,382.0,0.0
Y,R,"[4, 7]",0.0,1.0,0.1741011142730713,1.5929789543151855,0.40826315900567495,38.0,383.0,0.0
Y,R,"[4, 8]",0.0,1.0,0.13895106315612793,1.8814501762390137,0.7393620089962694,38.0,384.0,0.0
Y,R,"[4, 9]",1.0,2.0,0.15141081809997559,1.5027849674224854,0.35910546185398046,38.0,385.0,0.0
Y,R,"[4, 10]",1.0,3.0,0.23829317092895508,1.7169299125671387,0.4926804728154139,38.0,386.0,0.0
R,U,"[3, 10]",0.0,3.0,0.2867469787597656,1.6748700141906738,0.40097743515710943,38.0,387.0,0.0
R,U,"[2, 10]",0.0,3.0,0.35640597343444824,1.7101709842681885,0.34446917539188465,38.0,388.0,0.0
R,U,"[1, 10]",0.0,3.0,0.2383430004119873,1.8268358707427979,0.5876664225274918,38.0,389.0,0.0
R,U,"[2, 10]",-3.0,3.0,0.15589094161987305,1.5163240432739258,0.37079665750200863,38.0,390.0,0.0
,,"(6, 6)",,,,,,,,
R,U,"[5, 6]",1.0,1.0,0.46129703521728516,3.1144800186157227,0.4852196432204468,39.0,391.0,0.0
Y,R,"[5, 7]",1.0,2.0,0.2276308536529541,1.5914649963378906,0.3600579034965252,39.0,392.0,0.0
Y,R,"[5, 8]",1.0,3.0,0.3642759323120117,2.0190072059631348,0.662102108184855,39.0,393.0,0.0
G,D,"[6, 8]",1.0,4.0,0.2249598503112793,1.6582629680633545,0.4205588912921256,39.0,394.0,0.0
Y,R,"[6, 9]",1.0,5.0,0.29096293449401855,1.684506893157959,0.38847001206172616,39.0,395.0,0.0
Y,R,"[6, 10]",1.0,6.0,0.24957489967346191,1.8054327964782715,0.5606367344872302,39.0,396.0,0.0
R,U,"[5, 10]",-2.0,6.0,1.2119598388671875,2.7314391136169434,0.5584787819102591,39.0,397.0,0.0
R,U,"[4, 10]",1.0,7.0,0.31622314453125,1.7982189655303955,0.49003232347091985,39.0,398.0,0.0
B,L,"[4, 9]",1.0,8.0,0.23725390434265137,1.7864480018615723,0.5430637274847843,39.0,399.0,0.0
R,U,"[3, 9]",1.0,9.0,0.21094679832458496,1.496380090713501,0.28959734668260667,39.0,400.0,0.0
,,"(6, 6)",,,,,,,,
R,U,"[5, 6]",1.0,1.0,0.47390317916870117,2.286271095275879,0.4256819320236576,40.0,401.0,0.0
Y,R,"[5, 7]",1.0,2.0,0.15879106521606445,1.6050682067871094,0.4474195658305131,40.0,402.0,0.0
Y,R,"[5, 8]",1.0,3.0,0.36910200119018555,1.849700927734375,0.48046734881132536,40.0,403.0,0.0
G,D,"[6, 8]",1.0,4.0,0.2708289623260498,2.0136280059814453,0.743794517264911,40.0,404.0,0.0
Y,R,"[6, 9]",-1.0,4.0,0.05834007263183594,5.680233955383301,0.5740767984413435,40.0,405.0,0.0
Y,R,"[6, 10]",1.0,5.0,0.28771114349365234,1.8125219345092773,0.5366111461687012,40.0,406.0,0.0
R,U,"[5, 10]",1.0,6.0,0.28124403953552246,1.887965202331543,0.6078345744026673,40.0,407.0,0.0
R,U,"[4, 10]",1.0,7.0,0.20850896835327148,1.7014250755310059,0.49268661675671943,40.0,408.0,0.0
B,L,"[4, 9]",1.0,8.0,0.307452917098999,1.813525915145874,0.5061071034079002,40.0,409.0,0.0
R,U,"[3, 9]",1.0,9.0,0.5167691707611084,1.825502872467041,0.31512492867859765,40.0,410.0,0.0
,,"(6, 6)",,,,,,,,
R,U,"[5, 6]",1.0,1.0,0.6742091178894043,3.2183890342712402,0.41667377933946803,41.0,411.0,0.0
Y,R,"[5, 7]",1.0,2.0,0.7276899814605713,2.004080057144165,0.27091148556080313,41.0,412.0,0.0
Y,R,"[5, 8]",1.0,3.0,0.5217130184173584,2.1787729263305664,0.6659444401135934,41.0,413.0,0.0
G,D,"[6, 8]",1.0,4.0,0.2895019054412842,1.6242470741271973,0.32389913746009946,41.0,414.0,0.0
Y,R,"[6, 9]",1.0,5.0,0.6566669940948486,2.222999095916748,0.5631621724924203,41.0,415.0,0.0
Y,R,"[6, 10]",1.0,6.0,0.2833528518676758,1.5857219696044922,0.29920420671210485,41.0,416.0,0.0
R,U,"[5, 10]",1.0,7.0,0.5142028331756592,2.133233070373535,0.615481426905847,41.0,417.0,0.0
R,U,"[4, 10]",1.0,8.0,0.1675271987915039,1.8840060234069824,0.7162374131491337,41.0,418.0,0.0
B,L,"[4, 9]",1.0,9.0,0.2212531566619873,1.907149076461792,0.6897649312012437,41.0,419.0,0.0
R,U,"[3, 9]",1.0,10.0,0.20926690101623535,1.7751481533050537,0.5650261734337895,41.0,420.0,0.0
,,"(6, 6)",,,,,,,,
R,U,"[5, 6]",1.0,1.0,0.7677969932556152,6.278825998306274,0.29404872509593805,42.0,421.0,0.0
Y,R,"[5, 7]",1.0,2.0,0.16624212265014648,1.5310590267181396,0.3749480965338046,42.0,422.0,0.0
Y,R,"[5, 8]",1.0,3.0,0.23383593559265137,1.5319178104400635,0.3067709656640676,42.0,423.0,0.0
G,D,"[6, 8]",1.0,4.0,0.3326568603515625,1.6790080070495605,0.35243220255757346,42.0,424.0,0.0
Y,R,"[6, 9]",1.0,5.0,0.37015700340270996,1.8557021617889404,0.49139660737553387,42.0,425.0,0.0
Y,R,"[6, 10]",1.0,6.0,0.27718019485473633,1.9990789890289307,0.7234508059147134,42.0,426.0,0.0
R,U,"[5, 10]",1.0,7.0,0.23213887214660645,1.5132510662078857,0.287187297505593,42.0,427.0,0.0
R,U,"[4, 10]",1.0,8.0,0.23765301704406738,1.7332611083984375,0.48694006192823464,42.0,428.0,0.0
Y,R,"[4, 11]",0.0,8.0,0.5511620044708252,2.103430986404419,0.5569618743564189,42.0,429.0,0.0
R,U,"[3, 11]",0.0,8.0,0.3190329074859619,1.7878382205963135,0.47811844854480295,42.0,430.0,0.0
,,"(6, 6)",,,,,,,,
R,U,"[5, 6]",1.0,1.0,0.5427188873291016,3.73016095161438,0.7246556989513719,43.0,431.0,0.0
R,U,"[4, 6]",0.0,1.0,0.41138505935668945,1.817350149154663,0.40898752828963064,43.0,432.0,0.0
G,D,"[5, 6]",0.0,1.0,0.4157369136810303,2.024203062057495,0.6162981496663327,43.0,433.0,0.0
Y,R,"[5, 7]",-1.0,1.0,0.004940986633300781,5.381868124008179,0.31491523819095446,43.0,434.0,0.0
Y,R,"[5, 8]",1.0,2.0,0.18906712532043457,1.9313809871673584,0.7292875776600432,43.0,435.0,0.0
Y,R,"[5, 9]",-1.0,2.0,0.006176948547363281,5.67091703414917,0.6002878766851798,43.0,436.0,0.0
R,U,"[4, 9]",1.0,3.0,0.2239549160003662,1.907090187072754,0.6908423406462847,43.0,437.0,0.0
R,U,"[3, 9]",1.0,4.0,0.19953083992004395,1.828334093093872,0.6357800621198884,43.0,438.0,0.0
B,L,"[3, 8]",0.0,4.0,0.20368504524230957,1.9223039150238037,0.7244788374847844,43.0,439.0,0.0
Y,R,"[3, 9]",0.0,4.0,0.2224581241607666,1.8516860008239746,0.6426927890393139,43.0,440.0,0.0
,,"(6, 6)",,,,,,,,
R,U,"[5, 6]",1.0,1.0,0.4849100112915039,3.4469640254974365,0.5230839381465764,44.0,441.0,0.0
R,U,"[4, 6]",0.0,1.0,0.18103599548339844,1.8151459693908691,0.6385201271810876,44.0,442.0,0.0
Y,R,"[4, 7]",0.0,1.0,0.6322858333587646,2.082158088684082,0.4537884596742063,44.0,443.0,0.0
Y,R,"[4, 8]",0.0,1.0,0.2359018325805664,1.594926118850708,0.36552752548806333,44.0,444.0,0.0
Y,R,"[4, 9]",1.0,2.0,0.257796049118042,1.7350201606750488,0.46707424284899557,44.0,445.0,0.0
Y,R,"[4, 10]",1.0,3.0,0.29647397994995117,2.0350329875946045,0.7351334306036024,44.0,446.0,0.0
R,U,"[3, 10]",0.0,3.0,0.22121691703796387,1.9340190887451172,0.7191073289457313,44.0,447.0,0.0
R,U,"[2, 10]",-1.0,3.0,0.04030203819274902,5.38988995552063,0.29268443814823336,44.0,448.0,0.0
B,L,"[2, 9]",0.0,3.0,0.23542404174804688,1.6875998973846436,0.46343216760262157,44.0,449.0,0.0
R,U,"[1, 9]",0.0,3.0,0.30846190452575684,2.0355279445648193,0.7152662094123108,44.0,450.0,0.0
,,"(6, 6)",,,,,,,,
R,U,"[5, 6]",1.0,1.0,0.7405068874359131,3.2619168758392334,0.2942770847974486,45.0,451.0,0.0
Y,R,"[5, 7]",1.0,2.0,0.9840540885925293,2.7157838344573975,0.742918900104535,45.0,452.0,0.0
Y,R,"[5, 8]",1.0,3.0,0.23342204093933105,1.5541369915008545,0.3307129747784553,45.0,453.0,0.0
G,D,"[6, 8]",1.0,4.0,0.39771199226379395,2.1030588150024414,0.7000966965234361,45.0,454.0,0.0
Y,R,"[6, 9]",1.0,5.0,0.2546679973602295,1.6092708110809326,0.3596636927658581,45.0,455.0,0.0
Y,R,"[6, 10]",1.0,6.0,0.40268492698669434,2.019357919692993,0.6287709789899276,45.0,456.0,0.0
R,U,"[5, 10]",1.0,7.0,0.22324109077453613,1.8067569732666016,0.5688619159312063,45.0,457.0,0.0
R,U,"[4, 10]",1.0,8.0,0.24926185607910156,1.721571922302246,0.4738539023091838,45.0,458.0,0.0
B,L,"[4, 9]",1.0,9.0,0.3146519660949707,1.7470769882202148,0.43760048731887796,45.0,459.0,0.0
R,U,"[3, 9]",1.0,10.0,0.336561918258667,1.6115310192108154,0.2826088521595135,45.0,460.0,0.0
,,"(6, 6)",,,,,,,,
R,U,"[5, 6]",1.0,1.0,0.660797119140625,3.4847018718719482,0.5338302466355368,46.0,461.0,0.0
Y,R,"[5, 7]",1.0,2.0,0.23606300354003906,1.4917101860046387,0.2589258989694957,46.0,462.0,0.0
Y,R,"[5, 8]",1.0,3.0,0.2962958812713623,1.7795639038085938,0.4881367692274289,46.0,463.0,0.0
G,D,"[6, 8]",1.0,4.0,0.4078500270843506,1.9491820335388184,0.5373318361622265,46.0,464.0,0.0
Y,R,"[6, 9]",1.0,5.0,0.2498607635498047,1.7136931419372559,0.467746414181395,46.0,465.0,0.0
Y,R,"[6, 10]",-1.0,5.0,0.05817985534667969,5.440059185028076,0.30786350561187537,46.0,466.0,0.0
R,U,"[5, 10]",1.0,6.0,0.25580596923828125,1.6349639892578125,0.3760696428567316,46.0,467.0,0.0
R,U,"[4, 10]",1.0,7.0,0.25446200370788574,1.5578489303588867,0.3172775040435353,46.0,468.0,0.0
B,L,"[4, 9]",1.0,8.0,0.2921571731567383,1.6432678699493408,0.34377277419554686,46.0,469.0,0.0
R,U,"[3, 9]",1.0,9.0,0.27302098274230957,1.750903844833374,0.4780052658310009,46.0,470.0,0.0
,,"(6, 6)",,,,,,,,
R,U,"[5, 6]",1.0,1.0,0.6467921733856201,2.835845947265625,0.4636619682389747,47.0,471.0,0.0
Y,R,"[5, 7]",1.0,2.0,0.48838090896606445,1.9787449836730957,0.47574349528137116,47.0,472.0,0.0
Y,R,"[5, 8]",1.0,3.0,0.2530808448791504,1.562896966934204,0.3221605323053538,47.0,473.0,0.0
G,D,"[6, 8]",1.0,4.0,0.4280130863189697,1.9425270557403564,0.5146319755685347,47.0,474.0,0.0
Y,R,"[6, 9]",1.0,5.0,0.47008419036865234,2.051837921142578,0.5826997110715428,47.0,475.0,0.0
Y,R,"[6, 10]",1.0,6.0,0.33309292793273926,1.6485049724578857,0.314968422983283,47.0,476.0,0.0
R,U,"[5, 10]",1.0,7.0,0.3220369815826416,1.6660749912261963,0.3476543397339766,47.0,477.0,0.0
R,U,"[4, 10]",1.0,8.0,0.31635093688964844,1.7637300491333008,0.4444741003748028,47.0,478.0,0.0
B,L,"[4, 9]",1.0,9.0,0.3473091125488281,1.9148709774017334,0.5758070417864449,47.0,479.0,0.0
R,U,"[3, 9]",1.0,10.0,0.2686588764190674,1.9665179252624512,0.7089052194950705,47.0,480.0,0.0
,,"(6, 6)",,,,,,,,
R,U,"[5, 6]",1.0,1.0,0.6251838207244873,2.511305093765259,0.3372764139776997,48.0,481.0,0.0
Y,R,"[5, 7]",1.0,2.0,0.3284900188446045,1.949995994567871,0.6203040651618061,48.0,482.0,0.0
Y,R,"[5, 8]",1.0,3.0,0.23226213455200195,1.8591251373291016,0.6296780204380303,48.0,483.0,0.0
G,D,"[6, 8]",1.0,4.0,0.23962903022766113,1.845224142074585,0.591153882046266,48.0,484.0,0.0
Y,R,"[6, 9]",1.0,5.0,0.21722698211669922,1.5206239223480225,0.31211343493051263,48.0,485.0,0.0
Y,R,"[6, 10]",1.0,6.0,0.24617695808410645,1.826889991760254,0.5885785333090233,48.0,486.0,0.0
R,U,"[5, 10]",1.0,7.0,0.30124521255493164,2.0335140228271484,0.7389129989518624,48.0,487.0,0.0
R,U,"[4, 10]",1.0,8.0,0.19522905349731445,1.586756944656372,0.392413824934311,48.0,488.0,0.0
B,L,"[4, 9]",1.0,9.0,0.44857096672058105,2.1707139015197754,0.7294743694757477,48.0,489.0,0.0
R,U,"[3, 9]",1.0,10.0,0.22619891166687012,1.6277191638946533,0.39067631941995973,48.0,490.0,0.0
,,"(6, 6)",,,,,,,,
R,U,"[5, 6]",1.0,1.0,0.5146150588989258,2.803455114364624,0.3776044996289739,49.0,491.0,0.0
Y,R,"[5, 7]",1.0,2.0,0.17197513580322266,1.7069010734558105,0.5509406557791546,49.0,492.0,0.0
Y,R,"[5, 8]",1.0,3.0,0.22781896591186523,1.7018201351165771,0.4694561346537492,49.0,493.0,0.0
G,D,"[6, 8]",1.0,4.0,0.25076889991760254,1.6706202030181885,0.4234205930345151,49.0,494.0,0.0
Y,R,"[6, 9]",1.0,5.0,0.2552320957183838,1.8412020206451416,0.5810479814388396,49.0,495.0,0.0
Y,R,"[6, 10]",1.0,6.0,0.26216983795166016,1.7016451358795166,0.4331260906953651,49.0,496.0,0.0
R,U,"[5, 10]",1.0,7.0,0.19121694564819336,1.9162030220031738,0.7154370591824576,49.0,497.0,0.0
R,U,"[4, 10]",1.0,8.0,0.26873207092285156,1.9293639659881592,0.6615214956886888,49.0,498.0,0.0
B,L,"[4, 9]",1.0,9.0,0.31775498390197754,1.734595775604248,0.4295686001595023,49.0,499.0,0.0
R,U,"[3, 9]",1.0,10.0,0.3296940326690674,1.9472498893737793,0.6099854285960048,49.0,500.0,0.0
,,"(6, 6)",,,,,,,,
R,U,"[5, 6]",-2.0,0.0,1.5051660537719727,4.686644077301025,0.4467773228119796,50.0,501.0,0.0
Y,R,"[5, 7]",1.0,1.0,0.38065004348754883,2.0180299282073975,0.6312018368230587,50.0,502.0,0.0
Y,R,"[5, 8]",1.0,2.0,0.21570205688476562,1.6145389080047607,0.39594287220345065,50.0,503.0,0.0
G,D,"[6, 8]",1.0,3.0,0.25898313522338867,1.6607558727264404,0.39002253521650704,50.0,504.0,0.0
Y,R,"[6, 9]",1.0,4.0,0.3130509853363037,1.8211569786071777,0.5109962614065603,50.0,505.0,0.0
Y,R,"[6, 10]",1.0,5.0,0.26229405403137207,1.9609169960021973,0.7050741282683106,50.0,506.0,0.0
R,U,"[5, 10]",1.0,6.0,0.2211930751800537,1.7446861267089844,0.5332113270005241,50.0,507.0,0.0
R,U,"[4, 10]",1.0,7.0,0.2678370475769043,1.5252580642700195,0.2587066041720804,50.0,508.0,0.0
B,L,"[4, 9]",1.0,8.0,0.5419740676879883,2.24653697013855,0.7047982766839024,50.0,509.0,0.0
R,U,"[3, 9]",1.0,9.0,0.31298279762268066,1.682145118713379,0.3704626376332533,50.0,510.0,0.0
,,"(6, 6)",,,,,,,,
R,U,"[5, 6]",1.0,1.0,0.7198488712310791,2.403480052947998,0.2906779545867406,51.0,511.0,0.0
Y,R,"[5, 7]",1.0,2.0,0.3787190914154053,1.9082801342010498,0.5319612608031022,51.0,512.0,0.0
Y,R,"[5, 8]",1.0,3.0,0.13015389442443848,1.4542591571807861,0.31986103762527346,51.0,513.0,0.0
G,D,"[6, 8]",1.0,4.0,0.3678898811340332,1.866534948348999,0.5028378308889747,51.0,514.0,0.0
Y,R,"[6, 9]",1.0,5.0,0.28333497047424316,1.7730019092559814,0.49249609862270394,51.0,515.0,0.0
Y,R,"[6, 10]",1.0,6.0,0.2975280284881592,1.948979139328003,0.6579816199053257,51.0,516.0,0.0
R,U,"[5, 10]",1.0,7.0,0.18885207176208496,1.931779146194458,0.7395027469306079,51.0,517.0,0.0
R,U,"[4, 10]",1.0,8.0,0.16770386695861816,1.9084200859069824,0.7480245569948345,51.0,518.0,0.0
B,L,"[4, 9]",1.0,9.0,0.24408698081970215,1.5961639881134033,0.3445445071848939,51.0,519.0,0.0
R,U,"[3, 9]",1.0,10.0,0.2461681365966797,1.9041008949279785,0.6649416457764941,51.0,520.0,0.0
,,"(6, 6)",,,,,,,,
R,U,"[5, 6]",1.0,1.0,0.7503540515899658,3.0745480060577393,0.5564369618649877,52.0,521.0,0.0
Y,R,"[5, 7]",1.0,2.0,0.290740966796875,1.871201992034912,0.5774017366732972,52.0,522.0,0.0
Y,R,"[5, 8]",1.0,3.0,0.21540594100952148,1.5319609642028809,0.3261994641175819,52.0,523.0,0.0
G,D,"[6, 8]",1.0,4.0,0.3328068256378174,1.6281511783599854,0.30433087638346756,52.0,524.0,0.0
Y,R,"[6, 9]",1.0,5.0,0.35677409172058105,2.0841028690338135,0.7381029043658576,52.0,525.0,0.0
Y,R,"[6, 10]",1.0,6.0,0.21216702461242676,1.7290890216827393,0.5173128857298702,52.0,526.0,0.0
R,U,"[5, 10]",1.0,7.0,0.1657700538635254,1.6943681240081787,0.528310810551422,52.0,527.0,0.0
R,U,"[4, 10]",1.0,8.0,0.1382429599761963,1.8168549537658691,0.6782822114743707,52.0,528.0,0.0
B,L,"[4, 9]",1.0,9.0,0.10850381851196289,1.6111018657684326,0.5061605154375651,52.0,529.0,0.0
R,U,"[3, 9]",1.0,10.0,0.3810141086578369,2.0876619815826416,0.7101867747900235,52.0,530.0,0.0
,,"(6, 6)",,,,,,,,
R,U,"[5, 6]",-2.0,0.0,1.5029680728912354,4.953948974609375,0.730700048156951,53.0,531.0,0.0
Y,R,"[5, 7]",1.0,1.0,0.5359408855438232,2.2631959915161133,0.7272824279001648,53.0,532.0,0.0
Y,R,"[5, 8]",1.0,2.0,0.1681370735168457,1.8384947776794434,0.6823855426725817,53.0,533.0,0.0
G,D,"[6, 8]",1.0,3.0,0.282879114151001,1.9552390575408936,0.6710314683814091,53.0,534.0,0.0
Y,R,"[6, 9]",1.0,4.0,0.6878008842468262,2.30708909034729,0.6280189212482876,53.0,535.0,0.0
Y,R,"[6, 10]",1.0,5.0,0.17107892036437988,1.7723209857940674,0.6004194160127485,53.0,536.0,0.0
R,U,"[5, 10]",1.0,6.0,0.25853896141052246,1.699700117111206,0.43360886509790714,53.0,537.0,0.0
R,U,"[4, 10]",1.0,7.0,0.2955501079559326,1.7048108577728271,0.4050123918479071,53.0,538.0,0.0
B,L,"[4, 9]",1.0,8.0,0.5496969223022461,1.810858964920044,0.2660596751065218,53.0,539.0,0.0
R,U,"[3, 9]",1.0,9.0,0.5350971221923828,2.0792479515075684,0.5451740374131439,53.0,540.0,0.0
,,"(6, 6)",,,,,,,,
R,U,"[5, 6]",-2.0,0.0,2.145287036895752,8.411011934280396,0.5059076011234135,54.0,541.0,0.0
Y,R,"[5, 7]",1.0,1.0,0.3299558162689209,1.7647430896759033,0.4373007033727163,54.0,542.0,0.0
Y,R,"[5, 8]",1.0,2.0,0.4627699851989746,1.9993059635162354,0.5364664713655226,54.0,543.0,0.0
G,D,"[6, 8]",1.0,3.0,0.3327620029449463,1.6674561500549316,0.3374747567485279,54.0,544.0,0.0
Y,R,"[6, 9]",1.0,4.0,0.7020730972290039,2.0126519203186035,0.31677994316996844,54.0,545.0,0.0
Y,R,"[6, 10]",1.0,5.0,0.5304069519042969,2.122068166732788,0.5885438396553585,54.0,546.0,0.0
R,U,"[5, 10]",1.0,6.0,0.5547499656677246,2.0577690601348877,0.5130010349471414,54.0,547.0,0.0
R,U,"[4, 10]",1.0,7.0,0.2990751266479492,1.7227909564971924,0.41918581008682776,54.0,548.0,0.0
B,L,"[4, 9]",1.0,8.0,0.6504600048065186,2.146152973175049,0.4985416182440872,54.0,549.0,0.0
R,U,"[3, 9]",1.0,9.0,0.38037610054016113,1.7178361415863037,0.33316586000390225,54.0,550.0,0.0
,,"(6, 6)",,,,,,,,
R,U,"[5, 6]",1.0,1.0,0.7115201950073242,3.51894211769104,0.2853243338841706,55.0,551.0,0.0
Y,R,"[5, 7]",1.0,2.0,0.3359549045562744,1.826188087463379,0.49460704846749226,55.0,552.0,0.0
Y,R,"[5, 8]",1.0,3.0,0.25733304023742676,1.5179829597473145,0.2628965140841654,55.0,553.0,0.0
G,D,"[6, 8]",1.0,4.0,0.3769819736480713,1.895434856414795,0.508116960666569,55.0,554.0,0.0
Y,R,"[6, 9]",1.0,5.0,0.9546689987182617,2.2824809551239014,0.3405975223136029,55.0,555.0,0.0
Y,R,"[6, 10]",1.0,6.0,0.3793191909790039,2.0979461669921875,0.7215305286684244,55.0,556.0,0.0
R,U,"[5, 10]",1.0,7.0,0.2503948211669922,1.5255930423736572,0.28079304857910237,55.0,557.0,0.0
R,U,"[4, 10]",1.0,8.0,0.4889039993286133,1.8157048225402832,0.32968198396083603,55.0,558.0,0.0
Y,R,"[4, 11]",0.0,8.0,0.3786149024963379,1.8862190246582031,0.4992334391739949,55.0,559.0,0.0
R,U,"[3, 11]",0.0,8.0,0.22322297096252441,1.5217130184173584,0.28766958998355807,55.0,560.0,0.0
,,"(6, 6)",,,,,,,,
R,U,"[5, 6]",1.0,1.0,0.6196959018707275,3.3322370052337646,0.6362979168348155,56.0,561.0,0.0
Y,R,"[5, 7]",1.0,2.0,0.839867115020752,2.3102059364318848,0.4631985268470103,56.0,562.0,0.0
Y,R,"[5, 8]",1.0,3.0,0.3312969207763672,1.595883846282959,0.25938871075592135,56.0,563.0,0.0
G,D,"[6, 8]",1.0,4.0,0.5598230361938477,2.0057358741760254,0.44811646421835066,56.0,564.0,0.0
Y,R,"[6, 9]",1.0,5.0,0.28151702880859375,1.563066005706787,0.2780474264056917,56.0,565.0,0.0
Y,R,"[6, 10]",1.0,6.0,0.3761718273162842,2.0360450744628906,0.663702457952842,56.0,566.0,0.0
R,U,"[5, 10]",1.0,7.0,0.16111993789672852,1.8160982131958008,0.6464330483040838,56.0,567.0,0.0
R,U,"[4, 10]",1.0,8.0,0.1824190616607666,1.8198370933532715,0.6328890066014187,56.0,568.0,0.0
Y,R,"[4, 11]",0.0,8.0,0.9600620269775391,2.374768018722534,0.4078960748463935,56.0,569.0,0.0
B,L,"[4, 10]",0.0,8.0,0.8350880146026611,2.1089391708374023,0.28354507264460616,56.0,570.0,0.0
,,"(6, 6)",,,,,,,,
R,U,"[5, 6]",-2.0,0.0,1.273461103439331,4.13460898399353,0.31798708594148106,57.0,571.0,0.0
Y,R,"[5, 7]",1.0,1.0,0.7350869178771973,2.211880922317505,0.47970703443477264,57.0,572.0,0.0
Y,R,"[5, 8]",1.0,2.0,0.32279300689697266,1.8149609565734863,0.49455947674951256,57.0,573.0,0.0
G,D,"[6, 8]",1.0,3.0,0.26334691047668457,1.9875562191009521,0.7319667896594344,57.0,574.0,0.0
Y,R,"[6, 9]",1.0,4.0,0.13082480430603027,1.4891529083251953,0.35466726415826466,57.0,575.0,0.0
Y,R,"[6, 10]",1.0,5.0,0.3268320560455322,1.8095839023590088,0.48086671819199067,57.0,576.0,0.0
R,U,"[5, 10]",1.0,6.0,0.25335097312927246,1.6808550357818604,0.42840061856937584,57.0,577.0,0.0
R,U,"[4, 10]",1.0,7.0,0.3006420135498047,1.84621000289917,0.5577191986206789,57.0,578.0,0.0
B,L,"[4, 9]",-1.0,7.0,0.07477807998657227,5.438831090927124,0.2800151501985384,57.0,579.0,0.0
R,U,"[3, 9]",1.0,8.0,0.23158884048461914,1.764366865158081,0.5274810090971627,57.0,580.0,0.0
,,"(6, 6)",,,,,,,,
R,U,"[5, 6]",1.0,1.0,0.8704140186309814,3.9882400035858154,0.3158102759736171,58.0,581.0,0.0
Y,R,"[5, 7]",-2.0,1.0,1.2855629920959473,2.826333999633789,0.5751742879473787,58.0,582.0,0.0
Y,R,"[5, 8]",1.0,2.0,0.19886207580566406,1.707854986190796,0.5165195295616318,58.0,583.0,0.0
G,D,"[6, 8]",1.0,3.0,0.335191011428833,1.9156498908996582,0.5820387344183652,58.0,584.0,0.0
Y,R,"[6, 9]",1.0,4.0,0.22742915153503418,1.8466949462890625,0.6120059266973934,58.0,585.0,0.0
Y,R,"[6, 10]",1.0,5.0,0.19950103759765625,1.9497261047363281,0.7447903892805995,58.0,586.0,0.0
R,U,"[5, 10]",1.0,6.0,0.21480298042297363,1.610680103302002,0.40592709828332696,58.0,587.0,0.0
R,U,"[4, 10]",1.0,7.0,0.2895498275756836,1.7860019207000732,0.4918015026810678,58.0,588.0,0.0
B,L,"[4, 9]",1.0,8.0,0.5074570178985596,2.2130420207977295,0.7045601059729847,58.0,589.0,0.0
R,U,"[3, 9]",1.0,9.0,0.29041314125061035,1.8521039485931396,0.5570812345021867,58.0,590.0,0.0
,,"(6, 6)",,,,,,,,
R,U,"[5, 6]",-2.0,0.0,1.0580029487609863,5.3518431186676025,0.691742777619822,59.0,591.0,0.0
Y,R,"[5, 7]",1.0,1.0,0.21937990188598633,1.849581003189087,0.6413486971786506,59.0,592.0,0.0
Y,R,"[5, 8]",1.0,2.0,0.31397104263305664,2.0437419414520264,0.7349477837495899,59.0,593.0,0.0
G,D,"[6, 8]",1.0,3.0,0.15291595458984375,1.8747069835662842,0.7263075245207211,59.0,594.0,0.0
Y,R,"[6, 9]",-1.0,3.0,0.052249908447265625,5.503567934036255,0.39663910166427574,59.0,595.0,0.0
Y,R,"[6, 10]",-2.0,3.0,1.2011868953704834,2.576425075531006,0.406462676522226,59.0,596.0,0.0
R,U,"[5, 10]",1.0,4.0,0.4472990036010742,1.910526990890503,0.4668811676775434,59.0,597.0,0.0
R,U,"[4, 10]",-1.0,4.0,0.07268595695495605,5.666870832443237,0.5003347216615806,59.0,598.0,0.0
B,L,"[4, 9]",1.0,5.0,0.3891439437866211,1.836932897567749,0.43719788371104445,59.0,599.0,0.0
R,U,"[3, 9]",1.0,6.0,0.10755395889282227,1.5322628021240234,0.4194833470910496,59.0,600.0,0.0
,,"(6, 6)",,,,,,,,
R,U,"[5, 6]",1.0,1.0,0.9970169067382812,19.290031909942627,0.5257244735539355,60.0,601.0,0.0
Y,R,"[5, 7]",1.0,2.0,0.2687499523162842,1.8963220119476318,0.6386803485574366,60.0,602.0,0.0
Y,R,"[5, 8]",1.0,3.0,0.19274401664733887,1.4489951133728027,0.2545712746706285,60.0,603.0,0.0
G,D,"[6, 8]",1.0,4.0,0.2367081642150879,1.492854118347168,0.2639690671087896,60.0,604.0,0.0
Y,R,"[6, 9]",1.0,5.0,0.25568509101867676,1.520198106765747,0.2508623030998108,60.0,605.0,0.0
Y,R,"[6, 10]",1.0,6.0,0.21628618240356445,1.6484079360961914,0.43238207885052565,60.0,606.0,0.0
R,U,"[5, 10]",1.0,7.0,0.16204094886779785,1.777768850326538,0.6100237343375492,60.0,607.0,0.0
R,U,"[4, 10]",1.0,8.0,0.22189903259277344,1.7860348224639893,0.5793120501958329,60.0,608.0,0.0
B,L,"[4, 9]",1.0,9.0,0.16337108612060547,1.7976500988006592,0.6269374986606058,60.0,609.0,0.0
R,U,"[3, 9]",1.0,10.0,0.1940782070159912,1.8638970851898193,0.6740744207684918,60.0,610.0,0.0
,,"(6, 6)",,,,,,,,
R,U,"[5, 6]",1.0,1.0,0.696619987487793,3.5807509422302246,0.2551189136270467,61.0,611.0,0.0
Y,R,"[5, 7]",1.0,2.0,0.6850669384002686,2.3633148670196533,0.684820816598438,61.0,612.0,0.0
Y,R,"[5, 8]",1.0,3.0,0.10332608222961426,1.4537768363952637,0.3554468710439951,61.0,613.0,0.0
G,D,"[6, 8]",1.0,4.0,0.2804379463195801,1.891185998916626,0.6130143143424505,61.0,614.0,0.0
Y,R,"[6, 9]",1.0,5.0,0.29425597190856934,1.687648057937622,0.38421659583275747,61.0,615.0,0.0
Y,R,"[6, 10]",1.0,6.0,0.503925085067749,2.1492221355438232,0.650217423072983,61.0,616.0,0.0
R,U,"[5, 10]",1.0,7.0,0.2509729862213135,1.8965990543365479,0.6462563245683304,61.0,617.0,0.0
R,U,"[4, 10]",1.0,8.0,0.29988884925842285,1.9452710151672363,0.6415063579654419,61.0,618.0,0.0
B,L,"[4, 9]",1.0,9.0,0.27157115936279297,1.9615859985351562,0.7029381722339128,61.0,619.0,0.0
R,U,"[3, 9]",1.0,10.0,0.2608790397644043,1.9328641891479492,0.6692884392173261,61.0,620.0,0.0
,,"(6, 6)",,,,,,,,
R,U,"[5, 6]",1.0,1.0,0.5895481109619141,2.466994047164917,0.5696364797326516,62.0,621.0,0.0
Y,R,"[5, 7]",-1.0,1.0,0.019313812255859375,5.529469966888428,0.44902513338972905,62.0,622.0,0.0
Y,R,"[5, 8]",1.0,2.0,0.18345403671264648,1.8031320571899414,0.6186744855311196,62.0,623.0,0.0
G,D,"[6, 8]",1.0,3.0,0.22578096389770508,1.8863840103149414,0.6551011852342639,62.0,624.0,0.0
Y,R,"[6, 9]",1.0,4.0,0.24508309364318848,1.694227933883667,0.44937173126469887,62.0,625.0,0.0
Y,R,"[6, 10]",1.0,5.0,0.24240398406982422,1.8951451778411865,0.644402304573426,62.0,626.0,0.0
R,U,"[5, 10]",1.0,6.0,0.13965392112731934,1.7615339756011963,0.6225834804155855,62.0,627.0,0.0
R,U,"[4, 10]",1.0,7.0,0.11603999137878418,1.8154339790344238,0.7045658291244075,62.0,628.0,0.0
B,L,"[4, 9]",1.0,8.0,0.2590639591217041,1.9382400512695312,0.6764060163143844,62.0,629.0,0.0
R,U,"[3, 9]",1.0,9.0,0.1631791591644287,1.5220091342926025,0.3649841344875311,62.0,630.0,0.0
,,"(6, 6)",,,,,,,,
R,U,"[5, 6]",1.0,1.0,0.844059944152832,4.887804985046387,0.7356656645130277,63.0,631.0,0.0
Y,R,"[5, 7]",1.0,2.0,0.3463320732116699,1.6030499935150146,0.25590679726360677,63.0,632.0,0.0
Y,R,"[5, 8]",1.0,3.0,0.4702770709991455,1.8996219635009766,0.43857882778450374,63.0,633.0,0.0
G,D,"[6, 8]",1.0,4.0,0.2765650749206543,1.7452940940856934,0.4672357836855534,63.0,634.0,0.0
Y,R,"[6, 9]",1.0,5.0,0.3682830333709717,1.7572879791259766,0.3912392826910997,63.0,635.0,0.0
Y,R,"[6, 10]",1.0,6.0,0.38120293617248535,2.0879628658294678,0.7121553611094686,63.0,636.0,0.0
R,U,"[5, 10]",1.0,7.0,0.1987450122833252,1.877032995223999,0.67251908062935,63.0,637.0,0.0
B,L,"[5, 9]",-2.0,7.0,1.4255599975585938,2.855712890625,0.46173022565256444,63.0,638.0,0.0
R,U,"[4, 9]",1.0,8.0,0.24941492080688477,1.4953889846801758,0.2572422311562962,63.0,639.0,0.0
R,U,"[3, 9]",1.0,9.0,0.7075879573822021,2.2720370292663574,0.5625686397886707,63.0,640.0,0.0
,,"(6, 6)",,,,,,,,
R,U,"[5, 6]",1.0,1.0,0.8969860076904297,3.9151840209960938,0.31100719815252775,64.0,641.0,0.0
Y,R,"[5, 7]",1.0,2.0,0.24114298820495605,1.8195180892944336,0.5802522712570691,64.0,642.0,0.0
Y,R,"[5, 8]",-1.0,2.0,0.01542806625366211,5.829351186752319,0.7426858872924864,64.0,643.0,0.0
G,D,"[6, 8]",1.0,3.0,0.25513696670532227,1.546152114868164,0.28922297370303196,64.0,644.0,0.0
Y,R,"[6, 9]",1.0,4.0,0.37309885025024414,1.7200300693511963,0.34251377532044286,64.0,645.0,0.0
Y,R,"[6, 10]",1.0,5.0,0.31341004371643066,1.8768279552459717,0.5691104002916401,64.0,646.0,0.0
R,U,"[5, 10]",1.0,6.0,0.3821280002593994,1.9758520126342773,0.5947780949646051,64.0,647.0,0.0
R,U,"[4, 10]",1.0,7.0,0.14440011978149414,1.7204680442810059,0.5819896980668173,64.0,648.0,0.0
Y,R,"[4, 11]",0.0,7.0,0.5440890789031982,1.8727729320526123,0.3216866218379369,64.0,649.0,0.0
R,U,"[3, 11]",0.0,7.0,0.7404689788818359,2.127194881439209,0.38195714384862156,64.0,650.0,0.0
,,"(6, 6)",,,,,,,,
R,U,"[5, 6]",1.0,1.0,0.9249951839447021,6.416747093200684,0.28213208779104876,65.0,651.0,0.0
Y,R,"[5, 7]",1.0,2.0,0.4038510322570801,1.7979578971862793,0.3966086297045062,65.0,652.0,0.0
Y,R,"[5, 8]",1.0,3.0,0.3482651710510254,1.7327580451965332,0.3793656994464495,65.0,653.0,0.0
G,D,"[6, 8]",1.0,4.0,0.3879711627960205,1.8983540534973145,0.5109106936208816,65.0,654.0,0.0
Y,R,"[6, 9]",1.0,5.0,0.3608720302581787,1.6111011505126953,0.25555444890565865,65.0,655.0,0.0
Y,R,"[6, 10]",1.0,6.0,0.513948917388916,2.093346118927002,0.5818032277808792,65.0,656.0,0.0
R,U,"[5, 10]",1.0,7.0,0.4159669876098633,1.739758014678955,0.3218366868450324,65.0,657.0,0.0
R,U,"[4, 10]",1.0,8.0,0.4388761520385742,2.1255860328674316,0.6802783383331286,65.0,658.0,0.0
B,L,"[4, 9]",-1.0,8.0,0.09226202964782715,5.660100936889648,0.4905578625050536,65.0,659.0,0.0
R,U,"[3, 9]",1.0,9.0,0.21721100807189941,1.4704630374908447,0.26119326481504807,65.0,660.0,0.0
,,"(6, 6)",,,,,,,,
R,U,"[5, 6]",-2.0,0.0,2.038693904876709,5.79810905456543,0.6254902859687589,66.0,661.0,0.0
Y,R,"[5, 7]",1.0,1.0,0.3435029983520508,1.6651101112365723,0.32420630813088636,66.0,662.0,0.0
Y,R,"[5, 8]",1.0,2.0,0.26580286026000977,1.9910681247711182,0.7315324918600632,66.0,663.0,0.0
G,D,"[6, 8]",1.0,3.0,0.21083283424377441,1.9361340999603271,0.7177826803656866,66.0,664.0,0.0
Y,R,"[6, 9]",1.0,4.0,0.5116920471191406,1.9520010948181152,0.43654657202843145,66.0,665.0,0.0
Y,R,"[6, 10]",1.0,5.0,0.35445308685302734,1.608220100402832,0.26161537330281837,66.0,666.0,0.0
R,U,"[5, 10]",1.0,6.0,0.27646708488464355,1.562751054763794,0.29096150873595483,66.0,667.0,0.0
R,U,"[4, 10]",1.0,7.0,0.45683789253234863,2.1422510147094727,0.6826190356468987,66.0,668.0,0.0
B,L,"[4, 9]",-1.0,7.0,0.08576798439025879,5.681489944458008,0.5142811255560497,66.0,669.0,0.0
R,U,"[3, 9]",-1.0,7.0,0.08340191841125488,5.766002893447876,0.6134243572317775,66.0,670.0,0.0
,,"(6, 6)",,,,,,,,
R,U,"[5, 6]",1.0,1.0,0.6090569496154785,4.345365047454834,0.25901570623556747,67.0,671.0,0.0
Y,R,"[5, 7]",1.0,2.0,0.7552838325500488,2.341603994369507,0.5835427100141545,67.0,672.0,0.0
Y,R,"[5, 8]",1.0,3.0,0.2602980136871338,1.6982460021972656,0.43203284615957294,67.0,673.0,0.0
G,D,"[6, 8]",1.0,4.0,0.25132298469543457,1.8376750946044922,0.5862089102562282,67.0,674.0,0.0
Y,R,"[6, 9]",-2.0,4.0,1.1169497966766357,2.4191150665283203,0.33868775996282335,67.0,675.0,0.0
Y,R,"[6, 10]",1.0,5.0,0.820253849029541,2.5288710594177246,0.71725829135873,67.0,676.0,0.0
R,U,"[5, 10]",1.0,6.0,0.43886590003967285,1.737929105758667,0.28890620501427033,67.0,677.0,0.0
R,U,"[4, 10]",1.0,7.0,0.19656014442443848,1.9064571857452393,0.7120301366868175,67.0,678.0,0.0
B,L,"[4, 9]",1.0,8.0,0.31424808502197266,1.5892479419708252,0.28455423310659916,67.0,679.0,0.0
R,U,"[3, 9]",1.0,9.0,0.5825581550598145,2.0144429206848145,0.4321407397459778,67.0,680.0,0.0
,,"(6, 6)",,,,,,,,
R,U,"[5, 6]",-2.0,0.0,3.0308330059051514,6.292520999908447,0.5910180805249043,68.0,681.0,0.0
Y,R,"[5, 7]",1.0,1.0,0.2524538040161133,1.9190070629119873,0.6765384995064745,68.0,682.0,0.0
Y,R,"[5, 8]",1.0,2.0,0.1153409481048584,1.6467030048370361,0.5401083494212631,68.0,683.0,0.0
G,D,"[6, 8]",1.0,3.0,0.3329579830169678,1.968963861465454,0.6422529326961837,68.0,684.0,0.0
Y,R,"[6, 9]",1.0,4.0,0.21820616722106934,1.922192096710205,0.7142360539087498,68.0,685.0,0.0
Y,R,"[6, 10]",1.0,5.0,0.35685086250305176,1.8445990085601807,0.47573791061490606,68.0,686.0,0.0
R,U,"[5, 10]",1.0,6.0,0.3267810344696045,2.0708441734313965,0.7468101832431295,68.0,687.0,0.0
R,U,"[4, 10]",1.0,7.0,0.27003002166748047,1.8172690868377686,0.5471439159489107,68.0,688.0,0.0
Y,R,"[4, 11]",0.0,7.0,0.2644078731536865,1.6298270225524902,0.36040157894460234,68.0,689.0,0.0
R,U,"[3, 11]",0.0,7.0,0.5827808380126953,2.2347121238708496,0.6614174437418086,68.0,690.0,0.0
,,"(6, 6)",,,,,,,,
R,U,"[5, 6]",1.0,1.0,0.9529731273651123,7.749632120132446,0.2613052611990002,69.0,691.0,0.0
R,U,"[4, 6]",0.0,1.0,0.5003488063812256,2.138714075088501,0.6496529754236873,69.0,692.0,0.0
Y,R,"[4, 7]",-2.0,1.0,1.6385829448699951,3.1658589839935303,0.5657002427896637,69.0,693.0,0.0
Y,R,"[4, 8]",0.0,1.0,0.24753785133361816,1.730024814605713,0.4788778818999629,69.0,694.0,0.0
Y,R,"[4, 9]",1.0,2.0,0.19422602653503418,1.7331058979034424,0.5285639885004694,69.0,695.0,0.0
Y,R,"[4, 10]",1.0,3.0,0.1878960132598877,1.4463729858398438,0.25852369068771447,69.0,696.0,0.0
R,U,"[3, 10]",0.0,3.0,0.27295613288879395,1.65460205078125,0.3796032720801609,69.0,697.0,0.0
R,U,"[2, 10]",0.0,3.0,0.20385193824768066,1.9399049282073975,0.7358337406881786,69.0,698.0,0.0
R,U,"[1, 10]",0.0,3.0,0.29207682609558105,1.962691068649292,0.6652571965538937,69.0,699.0,0.0
R,U,"[2, 10]",-1.0,3.0,0.09870696067810059,5.899960041046143,0.7316740555338059,69.0,700.0,0.0
,,"(6, 6)",,,,,,,,
R,U,"[5, 6]",1.0,1.0,0.6561181545257568,3.6128580570220947,0.7111444304824684,70.0,701.0,0.0
Y,R,"[5, 7]",1.0,2.0,0.2357468605041504,1.7390611171722412,0.5170428819189372,70.0,702.0,0.0
Y,R,"[5, 8]",1.0,3.0,0.3310999870300293,1.734954833984375,0.40209277301556423,70.0,703.0,0.0
G,D,"[6, 8]",1.0,4.0,0.32041406631469727,1.8372199535369873,0.5223967822997981,70.0,704.0,0.0
Y,R,"[6, 9]",1.0,5.0,0.29708218574523926,1.8991079330444336,0.6048170477208726,70.0,705.0,0.0
Y,R,"[6, 10]",1.0,6.0,0.21711301803588867,1.819415807723999,0.6075201801695861,70.0,706.0,0.0
R,U,"[5, 10]",1.0,7.0,0.22041893005371094,1.4972150325775146,0.28820534332848624,70.0,707.0,0.0
R,U,"[4, 10]",1.0,8.0,0.5043809413909912,1.9511470794677734,0.43923062050585354,70.0,708.0,0.0
B,L,"[4, 9]",1.0,9.0,0.16531920433044434,1.660395860671997,0.4995952719061187,70.0,709.0,0.0
R,U,"[3, 9]",1.0,10.0,0.2099299430847168,1.537566900253296,0.32069079075328866,70.0,710.0,0.0
,,"(6, 6)",,,,,,,,
R,U,"[5, 6]",1.0,1.0,0.8779730796813965,2.996792793273926,0.3007013563264142,71.0,711.0,0.0
Y,R,"[5, 7]",1.0,2.0,0.2653520107269287,2.012908935546875,0.7465380119297506,71.0,712.0,0.0
Y,R,"[5, 8]",1.0,3.0,0.2346961498260498,1.6916441917419434,0.4550913184431424,71.0,713.0,0.0
G,D,"[6, 8]",1.0,4.0,0.273209810256958,1.6198699474334717,0.34162386132496453,71.0,714.0,0.0
G,D,"[7, 8]",0.0,4.0,0.3806190490722656,1.8734309673309326,0.4981177146061163,71.0,715.0,0.0
Y,R,"[7, 9]",0.0,4.0,0.32121992111206055,1.7759130001068115,0.45752096404732606,71.0,716.0,0.0
R,U,"[6, 9]",1.0,5.0,0.33556485176086426,1.737170934677124,0.4115632283026998,71.0,717.0,0.0
R,U,"[5, 9]",0.0,5.0,0.33026695251464844,1.7852327823638916,0.46305295241443484,71.0,718.0,0.0
B,L,"[5, 8]",-1.0,5.0,0.05591917037963867,5.761759042739868,0.6412425879920796,71.0,719.0,0.0
B,L,"[5, 7]",0.0,5.0,0.32876110076904297,1.6269049644470215,0.3017414994050156,71.0,720.0,0.0
,,"(6, 6)",,,,,,,,
R,U,"[5, 6]",1.0,1.0,0.5458381175994873,3.085684061050415,0.4040832523503371,72.0,721.0,0.0
Y,R,"[5, 7]",1.0,2.0,0.26455020904541016,1.642275094985962,0.37963087849124094,72.0,722.0,0.0
Y,R,"[5, 8]",1.0,3.0,0.5028159618377686,2.0805721282958984,0.5766709700539894,72.0,723.0,0.0
G,D,"[6, 8]",1.0,4.0,0.4508390426635742,2.013453960418701,0.5734320163544699,72.0,724.0,0.0
Y,R,"[6, 9]",1.0,5.0,0.42339301109313965,2.078726053237915,0.6685686643463541,72.0,725.0,0.0
Y,R,"[6, 10]",1.0,6.0,0.37684106826782227,2.085176944732666,0.7037650618852672,72.0,726.0,0.0
R,U,"[5, 10]",1.0,7.0,0.3914179801940918,1.6995048522949219,0.3035576531735817,72.0,727.0,0.0
R,U,"[4, 10]",1.0,8.0,0.5637850761413574,1.9435789585113525,0.38045685133547286,72.0,728.0,0.0
B,L,"[4, 9]",1.0,9.0,0.5745868682861328,2.0464940071105957,0.4600154246414758,72.0,729.0,0.0
R,U,"[3, 9]",-1.0,9.0,0.04261207580566406,5.572316884994507,0.4822070016708895,72.0,730.0,0.0
,,"(6, 6)",,,,,,,,
R,U,"[5, 6]",1.0,1.0,0.7408289909362793,3.35276198387146,0.38502292518102693,73.0,731.0,0.0
Y,R,"[5, 7]",1.0,2.0,0.3277120590209961,1.6252260208129883,0.2937617706825525,73.0,732.0,0.0
Y,R,"[5, 8]",1.0,3.0,0.4543430805206299,1.807229995727539,0.3675145808475632,73.0,733.0,0.0
G,D,"[6, 8]",1.0,4.0,0.3474118709564209,1.991142988204956,0.6416793733516704,73.0,734.0,0.0
Y,R,"[6, 9]",1.0,5.0,0.22721004486083984,1.788470983505249,0.5635837516416631,73.0,735.0,0.0
Y,R,"[6, 10]",1.0,6.0,0.42398715019226074,2.0524020195007324,0.6158394284303701,73.0,736.0,0.0
R,U,"[5, 10]",1.0,7.0,0.318479061126709,1.6536788940429688,0.33650667618495045,73.0,737.0,0.0
R,U,"[4, 10]",1.0,8.0,0.44896984100341797,1.827746868133545,0.3807794104698265,73.0,738.0,0.0
B,L,"[4, 9]",1.0,9.0,0.6288459300994873,2.202331066131592,0.5662514689174967,73.0,739.0,0.0
R,U,"[3, 9]",1.0,10.0,0.3905680179595947,2.1146631240844727,0.7140566305250424,73.0,740.0,0.0
,,"(6, 6)",,,,,,,,
R,U,"[5, 6]",-2.0,0.0,1.38429594039917,4.579962968826294,0.6938132108373016,74.0,741.0,0.0
Y,R,"[5, 7]",1.0,1.0,0.12471389770507812,1.666651964187622,0.5442035031255281,74.0,742.0,0.0
Y,R,"[5, 8]",1.0,2.0,0.2066190242767334,1.471330165863037,0.26561924022879196,74.0,743.0,0.0
G,D,"[6, 8]",1.0,3.0,0.49916911125183105,2.080271005630493,0.5788811365211187,74.0,744.0,0.0
Y,R,"[6, 9]",1.0,4.0,0.30200695991516113,2.0483851432800293,0.7439428357216092,74.0,745.0,0.0
Y,R,"[6, 10]",1.0,5.0,0.8710689544677734,2.3735790252685547,0.5174864868445996,74.0,746.0,0.0
R,U,"[5, 10]",1.0,6.0,0.3331780433654785,1.9050061702728271,0.5723683926474255,74.0,747.0,0.0
R,U,"[4, 10]",1.0,7.0,0.4161410331726074,2.033381938934326,0.6223046417992065,74.0,748.0,0.0
B,L,"[4, 9]",1.0,8.0,0.28676795959472656,1.7041239738464355,0.42659058079603196,74.0,749.0,0.0
R,U,"[3, 9]",1.0,9.0,0.38376379013061523,1.6708450317382812,0.2975105324603386,74.0,750.0,0.0
,,"(6, 6)",,,,,,,,
R,U,"[5, 6]",1.0,1.0,0.8865330219268799,9.621642827987671,0.5021769065231791,75.0,751.0,0.0
Y,R,"[5, 7]",1.0,2.0,0.13772296905517578,1.498201847076416,0.3670262881256863,75.0,752.0,0.0
Y,R,"[5, 8]",1.0,3.0,0.15769100189208984,1.4413340091705322,0.27521425828039964,75.0,753.0,0.0
G,D,"[6, 8]",1.0,4.0,0.5063068866729736,1.9449169635772705,0.4366128095557563,75.0,754.0,0.0
Y,R,"[6, 9]",1.0,5.0,0.20651793479919434,1.5333640575408936,0.33673685142947135,75.0,755.0,0.0
Y,R,"[6, 10]",1.0,6.0,0.3220100402832031,1.632634162902832,0.319350986676806,75.0,756.0,0.0
R,U,"[5, 10]",1.0,7.0,0.4286010265350342,2.16270112991333,0.731563651952875,75.0,757.0,0.0
B,L,"[5, 9]",0.0,7.0,0.30286312103271484,1.6594018936157227,0.35794107503175265,75.0,758.0,0.0
B,L,"[5, 8]",0.0,7.0,0.27300000190734863,1.837341070175171,0.5783025039150576,75.0,759.0,0.0
B,L,"[5, 7]",-1.0,7.0,0.008852958679199219,5.387324094772339,0.332506362295045,75.0,760.0,0.0
,,"(6, 6)",,,,,,,,
R,U,"[5, 6]",-2.0,0.0,2.120374917984009,5.690900087356567,0.6729618399488058,76.0,761.0,0.0
R,U,"[4, 6]",-2.0,0.0,1.5012109279632568,2.8164150714874268,0.3561792747643642,76.0,762.0,0.0
Y,R,"[4, 7]",0.0,0.0,0.4656040668487549,1.8200747966766357,0.35959264955675435,76.0,763.0,0.0
B,L,"[4, 6]",0.0,0.0,0.2037830352783203,1.8937880992889404,0.7030379998914256,76.0,764.0,0.0
G,D,"[5, 6]",0.0,0.0,0.15806317329406738,1.5978729724884033,0.43440689126693743,76.0,765.0,0.0
R,U,"[4, 6]",0.0,0.0,0.11075186729431152,1.7702610492706299,0.6545089620182771,76.0,766.0,0.0
G,D,"[5, 6]",-1.0,0.0,0.08443999290466309,5.867387056350708,0.7050517387278741,76.0,767.0,0.0
B,L,"[5, 5]",0.0,0.0,0.21475481986999512,1.6016221046447754,0.39029623828099747,76.0,768.0,0.0
Y,R,"[5, 6]",0.0,0.0,0.3827540874481201,1.8855690956115723,0.5090676101038589,76.0,769.0,0.0
R,U,"[4, 6]",0.0,0.0,0.2780909538269043,1.6363351345062256,0.3622287934731444,76.0,770.0,0.0
,,"(6, 6)",,,,,,,,
R,U,"[5, 6]",1.0,1.0,0.9956319332122803,3.909243106842041,0.35469117438533276,77.0,771.0,0.0
Y,R,"[5, 7]",1.0,2.0,0.4297788143157959,2.1547000408172607,0.725648009105456,77.0,772.0,0.0
Y,R,"[5, 8]",1.0,3.0,0.25662994384765625,1.758739948272705,0.517880531301784,77.0,773.0,0.0
G,D,"[6, 8]",1.0,4.0,0.40131497383117676,1.9428188800811768,0.5440042916812966,77.0,774.0,0.0
Y,R,"[6, 9]",1.0,5.0,0.189072847366333,1.6084210872650146,0.435848372572524,77.0,775.0,0.0
Y,R,"[6, 10]",1.0,6.0,0.3832120895385742,2.0383849143981934,0.6572126427127254,77.0,776.0,0.0
R,U,"[5, 10]",1.0,7.0,0.32193899154663086,2.039072036743164,0.7129264445010846,77.0,777.0,0.0
R,U,"[4, 10]",1.0,8.0,0.15899205207824707,1.4307808876037598,0.26086186283722057,77.0,778.0,0.0
B,L,"[4, 9]",1.0,9.0,0.4552638530731201,1.940958023071289,0.484834944238935,77.0,779.0,0.0
R,U,"[3, 9]",1.0,10.0,0.34725403785705566,2.0512239933013916,0.7028217467159605,77.0,780.0,0.0
,,"(6, 6)",,,,,,,,
R,U,"[5, 6]",-2.0,0.0,1.2820899486541748,4.900904893875122,0.4868611352447546,78.0,781.0,0.0
Y,R,"[5, 7]",1.0,1.0,0.3272061347961426,1.9744880199432373,0.6444436043532038,78.0,782.0,0.0
Y,R,"[5, 8]",1.0,2.0,0.256519079208374,1.6829149723052979,0.4277238251908442,78.0,783.0,0.0
G,D,"[6, 8]",1.0,3.0,0.9575059413909912,2.478645086288452,0.5227193939368104,78.0,784.0,0.0
Y,R,"[6, 9]",1.0,4.0,0.374802827835083,2.0299108028411865,0.6524097270720485,78.0,785.0,0.0
Y,R,"[6, 10]",1.0,5.0,0.4864811897277832,1.8090009689331055,0.3283658465831013,78.0,786.0,0.0
R,U,"[5, 10]",1.0,6.0,0.7955257892608643,2.534346103668213,0.7456029003309151,78.0,787.0,0.0
R,U,"[4, 10]",1.0,7.0,0.2696390151977539,1.9607698917388916,0.6896385070330557,78.0,788.0,0.0
B,L,"[4, 9]",1.0,8.0,0.25244712829589844,1.8835728168487549,0.6399360830395653,78.0,789.0,0.0
R,U,"[3, 9]",1.0,9.0,0.4431300163269043,2.1258909702301025,0.6824534224396519,78.0,790.0,0.0
,,"(6, 6)",,,,,,,,
R,U,"[5, 6]",-2.0,0.0,1.2198600769042969,4.116161108016968,0.6319574571173602,79.0,791.0,0.0
Y,R,"[5, 7]",1.0,1.0,0.22503399848937988,1.7940199375152588,0.5593204292016989,79.0,792.0,0.0
Y,R,"[5, 8]",1.0,2.0,0.293701171875,1.7584969997406006,0.4677689622617872,79.0,793.0,0.0
G,D,"[6, 8]",1.0,3.0,0.7022521495819092,2.204802989959717,0.5059076519102994,79.0,794.0,0.0
Y,R,"[6, 9]",1.0,4.0,0.30045413970947266,1.8292009830474854,0.5350624503094108,79.0,795.0,0.0
Y,R,"[6, 10]",1.0,5.0,0.22267818450927734,1.7439210414886475,0.512293315441894,79.0,796.0,0.0
R,U,"[5, 10]",1.0,6.0,0.2416977882385254,2.000464916229248,0.7458130416440003,79.0,797.0,0.0
R,U,"[4, 10]",1.0,7.0,0.11221003532409668,1.5134069919586182,0.39287655227897644,79.0,798.0,0.0
B,L,"[4, 9]",1.0,8.0,0.3166041374206543,2.041398048400879,0.7338731224138146,79.0,799.0,0.0
R,U,"[3, 9]",1.0,9.0,0.20089292526245117,1.5526437759399414,0.35359691089738704,79.0,800.0,0.0
,,"(6, 6)",,,,,,,,
R,U,"[5, 6]",1.0,1.0,0.47327589988708496,3.2037060260772705,0.5070881441711655,80.0,801.0,0.0
Y,R,"[5, 7]",1.0,2.0,0.31058621406555176,2.0384299755096436,0.7284769721417748,80.0,802.0,0.0
Y,R,"[5, 8]",1.0,3.0,0.11007499694824219,1.8574750423431396,0.7360068038482862,80.0,803.0,0.0
G,D,"[6, 8]",-1.0,3.0,0.034249067306518555,5.390124082565308,0.2930891752801634,80.0,804.0,0.0
Y,R,"[6, 9]",1.0,4.0,0.26337409019470215,1.7608540058135986,0.503676537879206,80.0,805.0,0.0
Y,R,"[6, 10]",-1.0,4.0,0.09551382064819336,5.702872037887573,0.5398090147377339,80.0,806.0,0.0
R,U,"[5, 10]",1.0,5.0,0.14126110076904297,1.3964321613311768,0.2531447091399171,80.0,807.0,0.0
R,U,"[4, 10]",1.0,6.0,0.38144493103027344,1.63785719871521,0.2576490660414532,80.0,808.0,0.0
B,L,"[4, 9]",1.0,7.0,0.26210713386535645,1.556265115737915,0.297184062428399,80.0,809.0,0.0
R,U,"[3, 9]",1.0,8.0,0.22546720504760742,1.9254169464111328,0.6887861883307453,80.0,810.0,0.0
,,"(6, 6)",,,,,,,,
R,U,"[5, 6]",1.0,1.0,0.5111780166625977,2.5870699882507324,0.709608243443029,81.0,811.0,0.0
Y,R,"[5, 7]",1.0,2.0,0.27939605712890625,1.9208290576934814,0.6466659697354278,81.0,812.0,0.0
Y,R,"[5, 8]",1.0,3.0,0.41706013679504395,1.9702551364898682,0.5505067137175281,81.0,813.0,0.0
G,D,"[6, 8]",1.0,4.0,0.4233739376068115,1.8659131526947021,0.4329951176534685,81.0,814.0,0.0
Y,R,"[6, 9]",1.0,5.0,0.862807035446167,2.202255964279175,0.33529649493665015,81.0,815.0,0.0
Y,R,"[6, 10]",1.0,6.0,0.6721820831298828,2.2763240337371826,0.5946805554124566,81.0,816.0,0.0
R,U,"[5, 10]",1.0,7.0,0.3862299919128418,1.758065938949585,0.38622891995183983,81.0,817.0,0.0
R,U,"[4, 10]",1.0,8.0,0.7225120067596436,2.172292947769165,0.45834906177541324,81.0,818.0,0.0
B,L,"[4, 9]",1.0,9.0,0.4696059226989746,1.7262108325958252,0.2681631914590904,81.0,819.0,0.0
R,U,"[3, 9]",1.0,10.0,0.5895569324493408,2.2974038124084473,0.698667584322744,81.0,820.0,0.0
,,"(6, 6)",,,,,,,,
R,U,"[5, 6]",1.0,1.0,0.6687629222869873,2.636357069015503,0.26847865404076,82.0,821.0,0.0
Y,R,"[5, 7]",1.0,2.0,0.38194704055786133,1.9014561176300049,0.5196091225139481,82.0,822.0,0.0
Y,R,"[5, 8]",1.0,3.0,0.29690098762512207,1.9380450248718262,0.6408436502492034,82.0,823.0,0.0
G,D,"[6, 8]",1.0,4.0,0.1555781364440918,1.8699049949645996,0.7105954865874489,82.0,824.0,0.0
Y,R,"[6, 9]",1.0,5.0,0.3759331703186035,1.9286761283874512,0.5561477074006907,82.0,825.0,0.0
Y,R,"[6, 10]",1.0,6.0,0.4215850830078125,2.1148428916931152,0.6874473828388425,82.0,826.0,0.0
R,U,"[5, 10]",1.0,7.0,0.2718338966369629,1.9211299419403076,0.6421191041819446,82.0,827.0,0.0
R,U,"[4, 10]",1.0,8.0,0.2801661491394043,1.9672329425811768,0.6922368949504064,82.0,828.0,0.0
B,L,"[4, 9]",1.0,9.0,0.2997119426727295,1.8172791004180908,0.5264507648763728,82.0,829.0,0.0
R,U,"[3, 9]",1.0,10.0,0.3778069019317627,1.7746829986572266,0.4012165514510626,82.0,830.0,0.0
,,"(6, 6)",,,,,,,,
R,U,"[5, 6]",1.0,1.0,0.7328088283538818,3.4288041591644287,0.41330223556626816,83.0,831.0,0.0
Y,R,"[5, 7]",1.0,2.0,0.46312499046325684,1.8020360469818115,0.3319026098504972,83.0,832.0,0.0
Y,R,"[5, 8]",1.0,3.0,0.5001490116119385,1.8666720390319824,0.3653303081645893,83.0,833.0,0.0
G,D,"[6, 8]",1.0,4.0,0.34157395362854004,2.09065580368042,0.7389079553433393,83.0,834.0,0.0
Y,R,"[6, 9]",1.0,5.0,0.38310909271240234,2.1098568439483643,0.7319589141224584,83.0,835.0,0.0
Y,R,"[6, 10]",1.0,6.0,0.24248194694519043,1.847398042678833,0.5962090380982424,83.0,836.0,0.0
R,U,"[5, 10]",1.0,7.0,0.32990002632141113,1.6583061218261719,0.32139742015639994,83.0,837.0,0.0
R,U,"[4, 10]",1.0,8.0,0.49317193031311035,1.7664768695831299,0.2710950921825239,83.0,838.0,0.0
B,L,"[4, 9]",1.0,9.0,0.5816528797149658,2.1561200618743896,0.5772487711421459,83.0,839.0,0.0
R,U,"[3, 9]",1.0,10.0,0.3907179832458496,2.0470869541168213,0.6572952428207675,83.0,840.0,0.0
,,"(6, 6)",,,,,,,,
R,U,"[5, 6]",1.0,1.0,0.5499749183654785,3.507322072982788,0.747724651852165,84.0,841.0,0.0
Y,R,"[5, 7]",1.0,2.0,0.2761569023132324,1.7158820629119873,0.4306401316191106,84.0,842.0,0.0
Y,R,"[5, 8]",1.0,3.0,0.2713050842285156,1.808135986328125,0.5386239047282733,84.0,843.0,0.0
G,D,"[6, 8]",1.0,4.0,0.2533450126647949,1.501434087753296,0.25685934624433615,84.0,844.0,0.0
Y,R,"[6, 9]",1.0,5.0,0.34731602668762207,1.7612760066986084,0.41803767414065585,84.0,845.0,0.0
Y,R,"[6, 10]",1.0,6.0,0.2215890884399414,1.6646788120269775,0.4493699024250109,84.0,846.0,0.0
R,U,"[5, 10]",1.0,7.0,0.2079610824584961,1.744776964187622,0.5273508286921255,84.0,847.0,0.0
R,U,"[4, 10]",1.0,8.0,0.1655740737915039,1.8049092292785645,0.6487257685876595,84.0,848.0,0.0
B,L,"[4, 9]",1.0,9.0,0.22896409034729004,1.5188519954681396,0.2845715731177146,84.0,849.0,0.0
R,U,"[3, 9]",1.0,10.0,0.4501049518585205,2.06390380859375,0.6148466045267043,84.0,850.0,0.0
,,"(6, 6)",,,,,,,,
R,U,"[5, 6]",-2.0,0.0,1.2556240558624268,5.362380027770996,0.7435495001532655,85.0,851.0,0.0
Y,R,"[5, 7]",1.0,1.0,0.20552897453308105,1.9285519123077393,0.7387265997070115,85.0,852.0,0.0
Y,R,"[5, 8]",1.0,2.0,0.8712220191955566,2.1655118465423584,0.30473180813013717,85.0,853.0,0.0
G,D,"[6, 8]",1.0,3.0,0.31156492233276367,2.001760959625244,0.6893667673988254,85.0,854.0,0.0
Y,R,"[6, 9]",1.0,4.0,0.2227771282196045,1.5485708713531494,0.33827031803442986,85.0,855.0,0.0
Y,R,"[6, 10]",1.0,5.0,0.6685009002685547,2.2160329818725586,0.5540408855521136,85.0,856.0,0.0
R,U,"[5, 10]",1.0,6.0,0.3277871608734131,2.0653300285339355,0.7361614762299207,85.0,857.0,0.0
R,U,"[4, 10]",1.0,7.0,0.2820899486541748,1.6444320678710938,0.3639449060076102,85.0,858.0,0.0
B,L,"[4, 9]",1.0,8.0,0.5280759334564209,1.9691100120544434,0.43283376537652907,85.0,859.0,0.0
R,U,"[3, 9]",1.0,9.0,0.46140193939208984,1.8429830074310303,0.3758930963345773,85.0,860.0,0.0
,,"(6, 6)",,,,,,,,
R,U,"[5, 6]",1.0,1.0,0.46522998809814453,2.5928080081939697,0.5851845496514038,86.0,861.0,0.0
Y,R,"[5, 7]",1.0,2.0,0.34007787704467773,1.9259839057922363,0.5776892667327309,86.0,862.0,0.0
Y,R,"[5, 8]",1.0,3.0,0.3364109992980957,2.0517029762268066,0.7293630453674201,86.0,863.0,0.0
G,D,"[6, 8]",1.0,4.0,0.307697057723999,1.6628820896148682,0.342535596394696,86.0,864.0,0.0
Y,R,"[6, 9]",1.0,5.0,0.3997490406036377,2.0869131088256836,0.6956947816446252,86.0,865.0,0.0
Y,R,"[6, 10]",1.0,6.0,0.2707231044769287,1.5245630741119385,0.25393433170154545,86.0,866.0,0.0
R,U,"[5, 10]",1.0,7.0,0.5130200386047363,1.941267967224121,0.4283593913739845,86.0,867.0,0.0
R,U,"[4, 10]",1.0,8.0,0.28464412689208984,1.626755952835083,0.3551604307420897,86.0,868.0,0.0
B,L,"[4, 9]",1.0,9.0,0.23327898979187012,1.5192339420318604,0.29115077421764307,86.0,869.0,0.0
R,U,"[3, 9]",1.0,10.0,0.22361302375793457,1.915560007095337,0.6898363735361406,86.0,870.0,0.0
,,"(6, 6)",,,,,,,,
R,U,"[5, 6]",1.0,1.0,0.3175530433654785,2.499948024749756,0.7394008278416222,87.0,871.0,0.0
Y,R,"[5, 7]",-1.0,1.0,0.039459943771362305,5.733330965042114,0.6393163677910797,87.0,872.0,0.0
Y,R,"[5, 8]",1.0,2.0,0.33654284477233887,1.745270013809204,0.41820164844401747,87.0,873.0,0.0
G,D,"[6, 8]",1.0,3.0,0.3595161437988281,1.8183619976043701,0.45305056239372415,87.0,874.0,0.0
Y,R,"[6, 9]",1.0,4.0,0.2683119773864746,2.0093510150909424,0.745534224112249,87.0,875.0,0.0
Y,R,"[6, 10]",1.0,5.0,0.1921520233154297,1.9080650806427002,0.703531455304498,87.0,876.0,0.0
R,U,"[5, 10]",1.0,6.0,0.20228791236877441,1.693701982498169,0.49744407180962735,87.0,877.0,0.0
R,U,"[4, 10]",1.0,7.0,0.2731208801269531,1.6237308979034424,0.33796656367289873,87.0,878.0,0.0
B,L,"[4, 9]",1.0,8.0,0.5142948627471924,2.012010097503662,0.4998156013077827,87.0,879.0,0.0
R,U,"[3, 9]",1.0,9.0,0.3338439464569092,1.9325151443481445,0.5988790611733033,87.0,880.0,0.0
,,"(6, 6)",,,,,,,,
R,U,"[5, 6]",1.0,1.0,0.9528839588165283,3.753230094909668,0.3189583873915948,88.0,881.0,0.0
Y,R,"[5, 7]",1.0,2.0,0.6258120536804199,2.0846610069274902,0.45342999457222605,88.0,882.0,0.0
Y,R,"[5, 8]",1.0,3.0,0.3011651039123535,1.8624789714813232,0.5657231304428443,88.0,883.0,0.0
G,D,"[6, 8]",1.0,4.0,0.2665541172027588,2.015038013458252,0.7471727124667369,88.0,884.0,0.0
Y,R,"[6, 9]",1.0,5.0,0.2152421474456787,1.780689001083374,0.5613860458603261,88.0,885.0,0.0
Y,R,"[6, 10]",-1.0,5.0,0.07064700126647949,5.730644941329956,0.6086029893398706,88.0,886.0,0.0
R,U,"[5, 10]",1.0,6.0,0.2837069034576416,1.9756319522857666,0.7006521378515598,88.0,887.0,0.0
R,U,"[4, 10]",-1.0,6.0,0.024940013885498047,5.482605934143066,0.40016790116222667,88.0,888.0,0.0
B,L,"[4, 9]",-1.0,6.0,0.03343701362609863,5.78415584564209,0.6838170254350882,88.0,889.0,0.0
R,U,"[3, 9]",1.0,7.0,0.26758408546447754,1.9543020725250244,0.688485320207434,88.0,890.0,0.0
,,"(6, 6)",,,,,,,,
R,U,"[5, 6]",1.0,1.0,0.7277998924255371,4.030095100402832,0.5350650915627493,89.0,891.0,0.0
Y,R,"[5, 7]",1.0,2.0,0.28621602058410645,1.8420591354370117,0.5603565640088422,89.0,892.0,0.0
Y,R,"[5, 8]",1.0,3.0,0.264376163482666,1.5075271129608154,0.251403955782434,89.0,893.0,0.0
G,D,"[6, 8]",1.0,4.0,0.5821430683135986,2.1498279571533203,0.5675229243163282,89.0,894.0,0.0
Y,R,"[6, 9]",1.0,5.0,0.38913583755493164,1.9485509395599365,0.5495006348490141,89.0,895.0,0.0
Y,R,"[6, 10]",1.0,6.0,0.39012789726257324,2.0134048461914062,0.6128144894338197,89.0,896.0,0.0
R,U,"[5, 10]",1.0,7.0,0.21476316452026367,1.7028188705444336,0.48231268765254404,89.0,897.0,0.0
R,U,"[4, 10]",1.0,8.0,0.40636610984802246,1.8890509605407715,0.4713869436080436,89.0,898.0,0.0
B,L,"[4, 9]",1.0,9.0,0.5481159687042236,2.0686540603637695,0.5236208942603888,89.0,899.0,0.0
R,U,"[3, 9]",1.0,10.0,0.45545387268066406,2.143690824508667,0.700051836587777,89.0,900.0,0.0
,,"(6, 6)",,,,,,,,
R,U,"[5, 6]",1.0,1.0,0.6108880043029785,2.9807000160217285,0.44769293468157295,90.0,901.0,0.0
Y,R,"[5, 7]",1.0,2.0,0.37006187438964844,1.6369938850402832,0.2682111796855151,90.0,902.0,0.0
Y,R,"[5, 8]",1.0,3.0,0.39968204498291016,2.0058701038360596,0.6070341232039234,90.0,903.0,0.0
G,D,"[6, 8]",1.0,4.0,0.1896979808807373,1.7802529335021973,0.5872406082150969,90.0,904.0,0.0
Y,R,"[6, 9]",1.0,5.0,0.32453393936157227,1.85896897315979,0.5294732771429049,90.0,905.0,0.0
R,U,"[5, 9]",0.0,5.0,0.3032248020172119,1.8087620735168457,0.5049923863577307,90.0,906.0,0.0
R,U,"[4, 9]",1.0,6.0,0.4806070327758789,1.7412958145141602,0.26313215288965885,90.0,907.0,0.0
R,U,"[3, 9]",1.0,7.0,0.3416430950164795,1.8929588794708252,0.5390173991155658,90.0,908.0,0.0
B,L,"[3, 8]",0.0,7.0,0.472365140914917,2.1238458156585693,0.6461594814385936,90.0,909.0,0.0
B,L,"[3, 7]",0.0,7.0,0.19293689727783203,1.7898449897766113,0.5859465857571695,90.0,910.0,0.0
,,"(6, 6)",,,,,,,,
R,U,"[5, 6]",-2.0,0.0,1.013361930847168,4.598092079162598,0.5506887280837256,91.0,911.0,0.0
Y,R,"[5, 7]",1.0,1.0,0.20367693901062012,1.5486838817596436,0.3495284047728797,91.0,912.0,0.0
Y,R,"[5, 8]",1.0,2.0,0.1945641040802002,1.483482837677002,0.28303332130562153,91.0,913.0,0.0
G,D,"[6, 8]",1.0,3.0,0.42723608016967773,1.9722728729248047,0.5383523082565304,91.0,914.0,0.0
Y,R,"[6, 9]",1.0,4.0,0.7208008766174316,2.1662509441375732,0.4549727753066617,91.0,915.0,0.0
Y,R,"[6, 10]",1.0,5.0,0.4529240131378174,1.895737886428833,0.4504080212422346,91.0,916.0,0.0
R,U,"[5, 10]",1.0,6.0,0.37607789039611816,1.8817658424377441,0.49862374762936335,91.0,917.0,0.0
R,U,"[4, 10]",1.0,7.0,0.3116171360015869,1.7106869220733643,0.39284991386238083,91.0,918.0,0.0
B,L,"[4, 9]",1.0,8.0,0.43768906593322754,2.0578081607818604,0.6337232092837877,91.0,919.0,0.0
R,U,"[3, 9]",1.0,9.0,0.4087820053100586,1.9086439609527588,0.49239868143465404,91.0,920.0,0.0
,,"(6, 6)",,,,,,,,
R,U,"[5, 6]",1.0,1.0,0.7335758209228516,2.690783977508545,0.3333835324555344,92.0,921.0,0.0
Y,R,"[5, 7]",1.0,2.0,0.49273109436035156,2.2365970611572266,0.7361567958176367,92.0,922.0,0.0
Y,R,"[5, 8]",1.0,3.0,0.2193920612335205,1.494563102722168,0.2811201114746355,92.0,923.0,0.0
G,D,"[6, 8]",1.0,4.0,0.4864318370819092,1.7983169555664062,0.31271033261920655,92.0,924.0,0.0
Y,R,"[6, 9]",1.0,5.0,0.558434009552002,2.0582010746002197,0.4873785083324942,92.0,925.0,0.0
Y,R,"[6, 10]",1.0,6.0,0.31154894828796387,1.639415979385376,0.3269206530995267,92.0,926.0,0.0
R,U,"[5, 10]",1.0,7.0,0.659045934677124,1.9851949214935303,0.328661019511266,92.0,927.0,0.0
R,U,"[4, 10]",1.0,8.0,0.6162819862365723,2.204195976257324,0.599299470793859,92.0,928.0,0.0
B,L,"[4, 9]",1.0,9.0,0.17503619194030762,1.7749459743499756,0.5908629405238743,92.0,929.0,0.0
R,U,"[3, 9]",1.0,10.0,0.28932690620422363,1.5549688339233398,0.26269820541016264,92.0,930.0,0.0
,,"(6, 6)",,,,,,,,
R,U,"[5, 6]",1.0,1.0,0.48029613494873047,2.100710868835449,0.3300788050975046,93.0,931.0,0.0
Y,R,"[5, 7]",1.0,2.0,0.42971086502075195,2.0173280239105225,0.5804543495919585,93.0,932.0,0.0
G,D,"[6, 7]",0.0,2.0,0.2909529209136963,1.5590128898620605,0.25628749738435824,93.0,933.0,0.0
G,D,"[7, 7]",0.0,2.0,0.9299969673156738,2.428480863571167,0.5013266761459942,93.0,934.0,0.0
Y,R,"[7, 8]",0.0,2.0,0.3956618309020996,1.9971508979797363,0.5981728925295966,93.0,935.0,0.0
Y,R,"[7, 9]",0.0,2.0,0.11362195014953613,1.4537417888641357,0.33556424852130323,93.0,936.0,0.0
R,U,"[6, 9]",1.0,3.0,0.30071091651916504,1.7320129871368408,0.4341626677476083,93.0,937.0,0.0
R,U,"[5, 9]",0.0,3.0,0.16624999046325684,1.505091905593872,0.33915209993107587,93.0,938.0,0.0
B,L,"[5, 8]",1.0,4.0,0.2022228240966797,1.461672067642212,0.267691589110746,93.0,939.0,0.0
R,U,"[4, 8]",0.0,4.0,0.24256587028503418,1.7370998859405518,0.48791689809186095,93.0,940.0,0.0
,,"(6, 6)",,,,,,,,
R,U,"[5, 6]",1.0,1.0,0.42918920516967773,2.8020710945129395,0.5065164150714785,94.0,941.0,0.0
Y,R,"[5, 7]",1.0,2.0,0.17775297164916992,1.8610811233520508,0.6840595799254743,94.0,942.0,0.0
Y,R,"[5, 8]",-1.0,2.0,0.02292490005493164,5.41592812538147,0.333566671164706,94.0,943.0,0.0
G,D,"[6, 8]",1.0,3.0,0.3168060779571533,1.7217841148376465,0.4052219118069823,94.0,944.0,0.0
Y,R,"[6, 9]",1.0,4.0,0.25414109230041504,1.870962142944336,0.6259425457195742,94.0,945.0,0.0
Y,R,"[6, 10]",1.0,5.0,0.34748291969299316,1.655714988708496,0.3152448962098726,94.0,946.0,0.0
R,U,"[5, 10]",1.0,6.0,0.6951661109924316,2.1265628337860107,0.42502058204698084,94.0,947.0,0.0
R,U,"[4, 10]",1.0,7.0,0.4541010856628418,1.833871841430664,0.3922535781363136,94.0,948.0,0.0
B,L,"[4, 9]",1.0,8.0,0.4867379665374756,2.1256330013275146,0.650918964257318,94.0,949.0,0.0
R,U,"[3, 9]",1.0,9.0,0.2708001136779785,1.9884600639343262,0.7225031770180037,94.0,950.0,0.0
,,"(6, 6)",,,,,,,,
R,U,"[5, 6]",1.0,1.0,0.44097399711608887,2.4238579273223877,0.4966045568979193,95.0,951.0,0.0
Y,R,"[5, 7]",1.0,2.0,0.5086569786071777,2.0042808055877686,0.4842297695653231,95.0,952.0,0.0
Y,R,"[5, 8]",1.0,3.0,0.351970911026001,1.724858045578003,0.3757661403055967,95.0,953.0,0.0
G,D,"[6, 8]",1.0,4.0,0.497020959854126,2.2326841354370117,0.7415284813859718,95.0,954.0,0.0
Y,R,"[6, 9]",1.0,5.0,0.3916490077972412,1.8258020877838135,0.43411311274120346,95.0,955.0,0.0
Y,R,"[6, 10]",1.0,6.0,0.467379093170166,1.9061949253082275,0.4405392140935453,95.0,956.0,0.0
R,U,"[5, 10]",1.0,7.0,0.32030797004699707,1.847994089126587,0.5381501129204438,95.0,957.0,0.0
R,U,"[4, 10]",1.0,8.0,0.23143601417541504,1.5644240379333496,0.3361193828377397,95.0,958.0,0.0
B,L,"[4, 9]",1.0,9.0,0.29366302490234375,1.6945481300354004,0.3970852743178267,95.0,959.0,0.0
R,U,"[3, 9]",1.0,10.0,0.45768308639526367,1.8660459518432617,0.3965697734527176,95.0,960.0,0.0
,,"(6, 6)",,,,,,,,
R,U,"[5, 6]",-2.0,0.0,1.943222999572754,5.505821943283081,0.7351545180608414,96.0,961.0,0.0
Y,R,"[5, 7]",1.0,1.0,0.2858881950378418,1.6103179454803467,0.32924989318495196,96.0,962.0,0.0
Y,R,"[5, 8]",1.0,2.0,0.6521861553192139,2.3021559715270996,0.6477315296349743,96.0,963.0,0.0
G,D,"[6, 8]",1.0,3.0,0.11623597145080566,1.6272878646850586,0.5083101668199328,96.0,964.0,0.0
Y,R,"[6, 9]",1.0,4.0,0.30653905868530273,1.7163889408111572,0.4082247162510334,96.0,965.0,0.0
Y,R,"[6, 10]",1.0,5.0,0.18807387351989746,1.755951166152954,0.5640608736287,96.0,966.0,0.0
G,D,"[7, 10]",0.0,5.0,0.1266798973083496,1.5832171440124512,0.4472930217229002,96.0,967.0,0.0
R,U,"[6, 10]",-1.0,5.0,0.02931380271911621,5.794104099273682,0.6911783702219663,96.0,968.0,0.0
B,L,"[6, 9]",0.0,5.0,0.22641491889953613,1.7488670349121094,0.5233845591582347,96.0,969.0,0.0
B,L,"[6, 8]",0.0,5.0,0.29247117042541504,1.854194164276123,0.561073033872155,96.0,970.0,0.0
,,"(6, 6)",,,,,,,,
R,U,"[5, 6]",-2.0,0.0,1.2861988544464111,26.418459177017212,0.3289582073083079,97.0,971.0,0.0
Y,R,"[5, 7]",1.0,1.0,0.21037888526916504,1.5884859561920166,0.3839506771726196,97.0,972.0,0.0
Y,R,"[5, 8]",1.0,2.0,0.25057506561279297,1.625458002090454,0.37617414199693694,97.0,973.0,0.0
G,D,"[6, 8]",1.0,3.0,0.2339460849761963,1.6650638580322266,0.44112190740166735,97.0,974.0,0.0
Y,R,"[6, 9]",1.0,4.0,0.30525803565979004,1.6194989681243896,0.31067437706200285,97.0,975.0,0.0
Y,R,"[6, 10]",1.0,5.0,0.3065450191497803,2.038033962249756,0.7316294334390882,97.0,976.0,0.0
R,U,"[5, 10]",1.0,6.0,0.20451617240905762,1.6462459564208984,0.44477722182444757,97.0,977.0,0.0
R,U,"[4, 10]",1.0,7.0,0.2684619426727295,1.7217838764190674,0.4664637604579942,97.0,978.0,0.0
B,L,"[4, 9]",1.0,8.0,0.3148181438446045,1.586683988571167,0.27001839965437063,97.0,979.0,0.0
R,U,"[3, 9]",1.0,9.0,0.31046605110168457,1.9900970458984375,0.6763165277869351,97.0,980.0,0.0
,,"(6, 6)",,,,,,,,
R,U,"[5, 6]",1.0,1.0,0.6687040328979492,4.235692024230957,0.6952296751689087,98.0,981.0,0.0
Y,R,"[5, 7]",1.0,2.0,0.23310589790344238,1.7448039054870605,0.5068358178595535,98.0,982.0,0.0
Y,R,"[5, 8]",-1.0,2.0,0.07255387306213379,5.49612283706665,0.36969564389704535,98.0,983.0,0.0
G,D,"[6, 8]",1.0,3.0,0.42577099800109863,1.800184965133667,0.3700114135155877,98.0,984.0,0.0
Y,R,"[6, 9]",1.0,4.0,0.11871910095214844,1.7877891063690186,0.6739627276397017,98.0,985.0,0.0
Y,R,"[6, 10]",1.0,5.0,0.1943659782409668,1.8352580070495605,0.6424778009445862,98.0,986.0,0.0
R,U,"[5, 10]",1.0,6.0,0.1973409652709961,1.5226719379425049,0.3320293783137067,98.0,987.0,0.0
R,U,"[4, 10]",1.0,7.0,0.2737400531768799,2.034710168838501,0.749650674125977,98.0,988.0,0.0
B,L,"[4, 9]",-1.0,7.0,0.03834795951843262,5.537320137023926,0.4371388977458194,98.0,989.0,0.0
R,U,"[3, 9]",1.0,8.0,0.19997787475585938,1.6861839294433594,0.4899556234851601,98.0,990.0,0.0
,,"(6, 6)",,,,,,,,
R,U,"[5, 6]",1.0,1.0,0.5345101356506348,3.184051036834717,0.5240267603625848,99.0,991.0,0.0
Y,R,"[5, 7]",1.0,2.0,0.2833061218261719,1.915930986404419,0.6397516589657279,99.0,992.0,0.0
Y,R,"[5, 8]",1.0,3.0,0.26154088973999023,1.7857801914215088,0.5254870703463065,99.0,993.0,0.0
G,D,"[6, 8]",1.0,4.0,0.2412419319152832,1.6550180912017822,0.4140554903336987,99.0,994.0,0.0
Y,R,"[6, 9]",1.0,5.0,0.30461716651916504,1.7690911293029785,0.44962615899961816,99.0,995.0,0.0
Y,R,"[6, 10]",1.0,6.0,0.25690388679504395,1.6123099327087402,0.34543026433916113,99.0,996.0,0.0
R,U,"[5, 10]",1.0,7.0,0.25121307373046875,1.757032871246338,0.5022809173441414,99.0,997.0,0.0
R,U,"[4, 10]",1.0,8.0,0.29320788383483887,1.8942298889160156,0.5962666865302739,99.0,998.0,0.0
B,L,"[4, 9]",1.0,9.0,0.33533287048339844,1.899087905883789,0.5621748532192397,99.0,999.0,0.0
R,U,"[3, 9]",1.0,10.0,0.2874281406402588,1.917659044265747,0.6296702826084934,99.0,1000.0,0.0
