button_choice,action_choice,coordinate_choice,reward,cumulative_reward,rt,total_trial_time,iti,block_n,trial_n,trial_type
G,D,"[7, 6]",-2.0,0.0,2.0068159103393555,3.6169800758361816,0.5681846168755916,0.0,1.0,0.0
B,L,"[7, 5]",0.0,0.0,0.6760809421539307,2.3563671112060547,0.6738957601001497,0.0,2.0,0.0
Y,R,"[7, 6]",0.0,0.0,0.7103211879730225,2.015310049057007,0.30605271687202384,0.0,3.0,0.0
G,D,"[8, 6]",0.0,0.0,0.7851190567016602,2.1130151748657227,0.33573814696760707,0.0,4.0,0.0
G,D,"[9, 6]",0.0,0.0,0.7846260070800781,2.500697135925293,0.7192171535576324,0.0,5.0,0.0
B,L,"[9, 5]",0.0,0.0,0.5934860706329346,2.306605100631714,0.7091563405717689,0.0,6.0,0.0
R,U,"[8, 5]",0.0,0.0,0.6353349685668945,2.0292041301727295,0.4053014304386675,0.0,7.0,0.0
B,L,"[8, 4]",-2.0,0.0,1.3050270080566406,2.831308126449585,0.4864506721106497,0.0,8.0,0.0
B,L,"[8, 3]",0.0,0.0,0.6563010215759277,2.3597490787506104,0.6960366140930088,0.0,9.0,0.0
G,D,"[9, 3]",0.0,0.0,0.29685282707214355,1.570284128189087,0.26662558935962316,0.0,10.0,0.0
,,"(6, 6)",,,,,,0.0,,
B,L,"[6, 5]",0.0,0.0,0.6481361389160156,7.94936990737915,0.4819956632384972,,11.0,0.0
G,D,"[7, 5]",0.0,0.0,0.3430061340332031,1.8256099224090576,0.47420943917721364,1.0,12.0,0.0
B,L,"[7, 4]",0.0,0.0,0.2693750858306885,1.9822189807891846,0.7063564696145783,1.0,13.0,0.0
R,U,"[6, 4]",0.0,0.0,0.1626269817352295,1.6174290180206299,0.4573625112829811,1.0,14.0,0.0
Y,R,"[6, 5]",0.0,0.0,0.1887359619140625,1.7925641536712646,0.5994468023122654,1.0,15.0,0.0
G,D,"[7, 5]",0.0,0.0,0.36826300621032715,1.855762004852295,0.488824512813946,1.0,16.0,0.0
Y,R,"[7, 6]",0.0,0.0,0.3794741630554199,1.7039461135864258,0.3259264671904345,1.0,17.0,0.0
G,D,"[8, 6]",0.0,0.0,0.3712289333343506,1.9247040748596191,0.5504587339200284,1.0,18.0,0.0
R,U,"[7, 6]",0.0,0.0,0.409160852432251,1.8457860946655273,0.4295788327557378,1.0,19.0,0.0
B,L,"[7, 5]",0.0,0.0,0.31282687187194824,1.7199151515960693,0.39951640487613027,1.0,20.0,0.0
,,"(6, 6)",,,,,,1.0,,
Y,R,"[6, 7]",0.0,0.0,0.5410070419311523,7.3911261558532715,0.4737678397099397,,21.0,0.0
R,U,"[5, 7]",1.0,1.0,0.20271992683410645,1.5705111026763916,0.3608103361595032,2.0,22.0,0.0
B,L,"[5, 6]",1.0,2.0,0.37401890754699707,1.9928481578826904,0.6201117802963079,2.0,23.0,0.0
G,D,"[6, 6]",0.0,2.0,0.1968848705291748,1.6635279655456543,0.4670667959126465,2.0,24.0,0.0
R,U,"[5, 6]",0.0,2.0,0.3181788921356201,1.616537094116211,0.30048114890293864,2.0,25.0,0.0
Y,R,"[5, 7]",0.0,2.0,0.2648952007293701,1.856062889099121,0.589575325415989,2.0,26.0,0.0
G,D,"[6, 7]",0.0,2.0,0.2476820945739746,1.5439279079437256,0.3001434414557827,2.0,27.0,0.0
B,L,"[6, 6]",0.0,2.0,0.3208801746368408,1.7625269889831543,0.42922493269591055,2.0,28.0,0.0
R,U,"[5, 6]",0.0,2.0,0.396791934967041,2.0760610103607178,0.6718754183207434,2.0,29.0,0.0
Y,R,"[5, 7]",0.0,2.0,0.39225006103515625,1.857757806777954,0.4629659508016009,2.0,30.0,0.0
,,"(6, 6)",,,,,,2.0,,
R,U,"[5, 6]",1.0,1.0,0.8893721103668213,6.758195877075195,0.6373056231798859,,31.0,0.0
B,L,"[5, 5]",0.0,1.0,0.22283387184143066,1.6196458339691162,0.4071524075447476,3.0,32.0,0.0
Y,R,"[5, 6]",0.0,1.0,0.3827371597290039,1.7348878383636475,0.35894040060496035,3.0,33.0,0.0
R,U,"[4, 6]",0.0,1.0,0.39348697662353516,2.0910139083862305,0.6995436149049467,3.0,34.0,0.0
B,L,"[4, 5]",0.0,1.0,0.23127102851867676,1.858764886856079,0.6248175834787515,3.0,35.0,0.0
G,D,"[5, 5]",0.0,1.0,0.16936993598937988,1.8190789222717285,0.6438061501510157,3.0,36.0,0.0
R,U,"[4, 5]",0.0,1.0,0.2615501880645752,1.5783019065856934,0.32265549457792364,3.0,37.0,0.0
Y,R,"[4, 6]",0.0,1.0,0.7002270221710205,2.3649771213531494,0.6704302637200372,3.0,38.0,0.0
G,D,"[5, 6]",0.0,1.0,0.6522159576416016,2.0180461406707764,0.35526944267974453,3.0,39.0,0.0
B,L,"[5, 5]",0.0,1.0,0.41280698776245117,1.7208530902862549,0.3094475451888473,3.0,40.0,0.0
,,"(6, 6)",,,,,,3.0,,
B,L,"[6, 5]",0.0,0.0,0.791888952255249,5.538535833358765,0.5309676154675509,,41.0,0.0
R,U,"[5, 5]",0.0,0.0,0.467972993850708,2.020479917526245,0.5510966362088356,4.0,42.0,0.0
G,D,"[6, 5]",0.0,0.0,0.1952838897705078,1.6639528274536133,0.46540076350315657,4.0,43.0,0.0
B,L,"[6, 4]",0.0,0.0,0.7769529819488525,2.4454288482666016,0.6605035948580533,4.0,44.0,0.0
G,D,"[7, 4]",0.0,0.0,0.27347707748413086,1.7543649673461914,0.48170051152673155,4.0,45.0,0.0
Y,R,"[7, 5]",0.0,0.0,0.45057106018066406,2.110642194747925,0.658666598774831,4.0,46.0,0.0
R,U,"[6, 5]",0.0,0.0,0.6585860252380371,2.1542000770568848,0.49622984405493975,4.0,47.0,0.0
B,L,"[6, 4]",0.0,0.0,0.25983691215515137,1.9531610012054443,0.682469539174035,4.0,48.0,0.0
G,D,"[7, 4]",0.0,0.0,0.40180110931396484,1.9099857807159424,0.5091146388194903,4.0,49.0,0.0
G,D,"[8, 4]",0.0,0.0,0.2647829055786133,1.8901870250701904,0.6324712390879097,4.0,50.0,0.0
,,"(6, 6)",,,,,,4.0,,
R,U,"[5, 6]",1.0,1.0,0.5532259941101074,5.396033048629761,0.49541726738146846,,51.0,0.0
G,D,"[6, 6]",0.0,1.0,0.37447690963745117,1.7259111404418945,0.3547707761595976,5.0,52.0,0.0
G,D,"[7, 6]",0.0,1.0,0.7366859912872314,2.337454080581665,0.591673548906656,5.0,53.0,0.0
Y,R,"[7, 7]",0.0,1.0,0.2516040802001953,1.6045739650726318,0.36315307625672505,5.0,54.0,0.0
R,U,"[6, 7]",0.0,1.0,0.39988112449645996,2.139887809753418,0.7358283266151869,5.0,55.0,0.0
B,L,"[6, 6]",0.0,1.0,0.1635298728942871,1.626296043395996,0.4623805100688617,5.0,56.0,0.0
G,D,"[7, 6]",0.0,1.0,0.24921488761901855,1.8560760021209717,0.6015680070563512,5.0,57.0,0.0
R,U,"[6, 6]",0.0,1.0,0.7081661224365234,2.2947771549224854,0.5796587943710203,5.0,58.0,0.0
Y,R,"[6, 7]",0.0,1.0,0.33217811584472656,1.7907371520996094,0.4536323798158823,5.0,59.0,0.0
R,U,"[5, 7]",1.0,2.0,0.4685380458831787,2.1583759784698486,0.6785271356908789,5.0,60.0,0.0
,,"(6, 6)",,,,,,5.0,,
R,U,"[5, 6]",1.0,1.0,0.6744060516357422,6.1917970180511475,0.686888832103588,,61.0,0.0
Y,R,"[5, 7]",1.0,2.0,0.31435394287109375,1.9633488655090332,0.6499501947673617,6.0,62.0,0.0
G,D,"[6, 7]",0.0,2.0,0.17902302742004395,1.8875339031219482,0.7041783752740274,6.0,63.0,0.0
R,U,"[5, 7]",0.0,2.0,0.25027012825012207,1.7420461177825928,0.4965425919605355,6.0,64.0,0.0
B,L,"[5, 6]",0.0,2.0,0.2035369873046875,1.720870018005371,0.5004360849414091,6.0,65.0,0.0
R,U,"[4, 6]",0.0,2.0,0.21079802513122559,1.5825459957122803,0.366457942015606,6.0,66.0,0.0
Y,R,"[4, 7]",0.0,2.0,0.22453784942626953,1.6789062023162842,0.4451414367391564,6.0,67.0,0.0
G,D,"[5, 7]",0.0,2.0,0.2868509292602539,1.641037940979004,0.3695970382977946,6.0,68.0,0.0
B,L,"[5, 6]",0.0,2.0,0.292111873626709,2.0317881107330322,0.7342808289445728,6.0,69.0,0.0
Y,R,"[5, 7]",0.0,2.0,0.3844420909881592,2.108350992202759,0.7258027960685989,6.0,70.0,0.0
,,"(6, 6)",,,,,,6.0,,
R,U,"[5, 6]",1.0,1.0,0.5467329025268555,4.0035719871521,0.5795615110485026,,71.0,0.0
G,D,"[6, 6]",0.0,1.0,0.16757893562316895,1.8664920330047607,0.6959097201236448,7.0,72.0,0.0
Y,R,"[6, 7]",0.0,1.0,0.568903923034668,2.25498104095459,0.6840359375263547,7.0,73.0,0.0
B,L,"[6, 6]",0.0,1.0,0.2268669605255127,1.7688720226287842,0.5362777468116371,7.0,74.0,0.0
R,U,"[5, 6]",0.0,1.0,0.5554690361022949,2.276811122894287,0.7295698063097097,7.0,75.0,0.0
G,D,"[6, 6]",0.0,1.0,0.5908679962158203,2.3307271003723145,0.7268108362181616,7.0,76.0,0.0
B,L,"[6, 5]",-2.0,1.0,1.213170051574707,2.705972194671631,0.46630537194892646,7.0,77.0,0.0
B,L,"[6, 4]",0.0,1.0,0.2974369525909424,1.7728540897369385,0.47268530195965236,7.0,78.0,0.0
R,U,"[5, 4]",0.0,1.0,0.285275936126709,1.897278070449829,0.6194772503549264,7.0,79.0,0.0
Y,R,"[5, 5]",0.0,1.0,0.2701859474182129,1.6841859817504883,0.40399889152908397,7.0,80.0,0.0
,,"(6, 6)",,,,,,7.0,,
R,U,"[5, 6]",1.0,1.0,0.43201684951782227,3.968780994415283,0.5058100404735735,,81.0,0.0
Y,R,"[5, 7]",1.0,2.0,0.26068687438964844,1.5716679096221924,0.3110555448436594,8.0,82.0,0.0
B,L,"[5, 6]",0.0,2.0,0.4320850372314453,1.8716108798980713,0.448921277383739,8.0,83.0,0.0
G,D,"[6, 6]",0.0,2.0,0.3414750099182129,1.739995002746582,0.38890946428374057,8.0,84.0,0.0
R,U,"[5, 6]",0.0,2.0,0.5072100162506104,1.8752601146697998,0.3642571139246115,8.0,85.0,0.0
B,L,"[5, 5]",0.0,2.0,0.6568198204040527,1.951941967010498,0.2995269163671052,8.0,86.0,0.0
Y,R,"[5, 6]",0.0,2.0,0.4268069267272949,2.132966995239258,0.6988579059971438,8.0,87.0,0.0
G,D,"[6, 6]",0.0,2.0,0.15454387664794922,1.9006860256195068,0.7492696949328026,8.0,88.0,0.0
R,U,"[5, 6]",0.0,2.0,0.32257986068725586,1.7950758934020996,0.46139795324714417,8.0,89.0,0.0
R,U,"[4, 6]",0.0,2.0,0.4360978603363037,1.809385061264038,0.3538584167752263,8.0,90.0,0.0
,,"(6, 6)",,,,,,8.0,,
R,U,"[5, 6]",1.0,1.0,0.569221019744873,6.081073045730591,0.3016599721459783,,91.0,0.0
B,L,"[5, 5]",0.0,1.0,0.761322021484375,2.3769359588623047,0.6113605252413125,9.0,92.0,0.0
G,D,"[6, 5]",0.0,1.0,0.28467297554016113,1.5361998081207275,0.2646636727759817,9.0,93.0,0.0
R,U,"[5, 5]",0.0,1.0,0.20438098907470703,1.6451520919799805,0.42630924548295435,9.0,94.0,0.0
Y,R,"[5, 6]",0.0,1.0,0.20593023300170898,1.9258711338043213,0.718343302715051,9.0,95.0,0.0
B,L,"[5, 5]",0.0,1.0,0.20264816284179688,1.7946100234985352,0.5798433562400183,9.0,96.0,0.0
G,D,"[6, 5]",0.0,1.0,0.19851899147033691,1.8386261463165283,0.6348810019303628,9.0,97.0,0.0
B,L,"[6, 4]",0.0,1.0,0.48012495040893555,1.7913939952850342,0.30982824882569665,9.0,98.0,0.0
Y,R,"[6, 5]",0.0,1.0,0.48994898796081543,1.987828016281128,0.49737075328946595,9.0,99.0,0.0
Y,R,"[6, 6]",0.0,1.0,0.21612000465393066,1.7382190227508545,0.5189908180386347,9.0,100.0,0.0
,,"(6, 6)",,,,,,9.0,,
R,U,"[5, 6]",1.0,1.0,0.5933430194854736,5.467066049575806,0.30263070930580205,,101.0,0.0
G,D,"[6, 6]",0.0,1.0,0.29966282844543457,1.9897079467773438,0.6918353579731222,10.0,102.0,0.0
R,U,"[5, 6]",0.0,1.0,0.2672398090362549,1.6780891418457031,0.42036393432763963,10.0,103.0,0.0
B,L,"[5, 5]",0.0,1.0,0.49297285079956055,2.0880050659179688,0.6080687119353091,10.0,104.0,0.0
Y,R,"[5, 6]",0.0,1.0,0.6525428295135498,2.199437141418457,0.5573888297353975,10.0,105.0,0.0
R,U,"[4, 6]",0.0,1.0,0.6795098781585693,2.3360681533813477,0.6604582448289354,10.0,106.0,0.0
G,D,"[5, 6]",0.0,1.0,0.505511999130249,1.8096489906311035,0.3198834510718899,10.0,107.0,0.0
B,L,"[5, 5]",-2.0,1.0,1.4375641345977783,3.197690963745117,0.7010949542750691,10.0,108.0,0.0
Y,R,"[5, 6]",0.0,1.0,0.3563709259033203,2.020148992538452,0.6538916580396376,10.0,109.0,0.0
G,D,"[6, 6]",0.0,1.0,0.4895949363708496,2.0671160221099854,0.5710588838732569,10.0,110.0,0.0
,,"(6, 6)",,,,,,10.0,,
R,U,"[5, 6]",1.0,1.0,0.8137838840484619,4.624399900436401,0.478895181317174,,111.0,0.0
Y,R,"[5, 7]",1.0,2.0,0.23945093154907227,1.947429895401001,0.7092980965062322,11.0,112.0,0.0
G,D,"[6, 7]",0.0,2.0,0.3562488555908203,1.9829411506652832,0.6255698441424355,11.0,113.0,0.0
Y,R,"[6, 8]",1.0,3.0,0.8299109935760498,2.2045509815216064,0.38035803639341514,11.0,114.0,0.0
R,U,"[5, 8]",1.0,4.0,0.6953778266906738,2.3916549682617188,0.688168244301381,11.0,115.0,0.0
Y,R,"[5, 9]",0.0,4.0,0.2719271183013916,1.5952208042144775,0.31702320862055555,11.0,116.0,0.0
B,L,"[5, 8]",0.0,4.0,0.3467240333557129,2.0460309982299805,0.6958947536359488,11.0,117.0,0.0
R,U,"[4, 8]",0.0,4.0,0.21672606468200684,1.729104995727539,0.5085225642664704,11.0,118.0,0.0
G,D,"[5, 8]",0.0,4.0,0.20404815673828125,1.8385589122772217,0.6302219971013594,11.0,119.0,0.0
Y,R,"[5, 9]",0.0,4.0,0.25494813919067383,1.6714298725128174,0.40174527142440913,11.0,120.0,0.0
,,"(6, 6)",,,,,,11.0,,
R,U,"[5, 6]",1.0,1.0,0.5954399108886719,3.864163875579834,0.5490420192765593,,121.0,0.0
Y,R,"[5, 7]",1.0,2.0,0.22996091842651367,1.5999188423156738,0.365683246549627,12.0,122.0,0.0
R,U,"[4, 7]",0.0,2.0,0.2365710735321045,1.7660949230194092,0.5147643770233297,12.0,123.0,0.0
G,D,"[5, 7]",0.0,2.0,0.14385414123535156,1.8720338344573975,0.7200945602585843,12.0,124.0,0.0
Y,R,"[5, 8]",-1.0,2.0,0.016431808471679688,5.692385911941528,0.5457705767150922,12.0,125.0,0.0
Y,R,"[5, 9]",0.0,2.0,0.37614011764526367,2.0163440704345703,0.6288726830384191,12.0,126.0,0.0
G,D,"[6, 9]",1.0,3.0,0.25923609733581543,1.691776990890503,0.43741394831956126,12.0,127.0,0.0
B,L,"[6, 8]",1.0,4.0,0.308804988861084,2.007535934448242,0.6945689331775567,12.0,128.0,0.0
R,U,"[5, 8]",0.0,4.0,0.208082914352417,1.8993990421295166,0.6937344610889421,12.0,129.0,0.0
G,D,"[6, 8]",0.0,4.0,0.3324098587036133,1.8273379802703857,0.5044075781527682,12.0,130.0,0.0
,,"(6, 6)",,,,,,12.0,,
R,U,"[5, 6]",1.0,1.0,0.5787739753723145,6.467160940170288,0.2551821394814255,,131.0,0.0
Y,R,"[5, 7]",1.0,2.0,0.2728590965270996,1.7376270294189453,0.4591019734318625,13.0,132.0,0.0
G,D,"[6, 7]",0.0,2.0,0.17461609840393066,1.4753170013427734,0.30127159243470597,13.0,133.0,0.0
B,L,"[6, 6]",0.0,2.0,0.2431178092956543,1.94942307472229,0.7001895387702544,13.0,134.0,0.0
Y,R,"[6, 7]",0.0,2.0,0.15918588638305664,1.6712539196014404,0.504824494155072,13.0,135.0,0.0
R,U,"[5, 7]",0.0,2.0,0.24554085731506348,1.9359800815582275,0.6906227802385202,13.0,136.0,0.0
Y,R,"[5, 8]",1.0,3.0,0.20546483993530273,1.5880110263824463,0.3790426991278622,13.0,137.0,0.0
R,U,"[4, 8]",0.0,3.0,0.37174105644226074,1.7005150318145752,0.34609167232847154,13.0,138.0,0.0
G,D,"[5, 8]",0.0,3.0,0.3780500888824463,2.0708439350128174,0.6830701672698072,13.0,139.0,0.0
B,L,"[5, 7]",0.0,3.0,0.3702402114868164,2.0384809970855713,0.655149794542857,13.0,140.0,0.0
,,"(6, 6)",,,,,,13.0,,
R,U,"[5, 6]",1.0,1.0,0.6882221698760986,4.96272611618042,0.2511360235161544,,141.0,0.0
Y,R,"[5, 7]",1.0,2.0,0.2882080078125,1.778986930847168,0.47985391230023444,14.0,142.0,0.0
R,U,"[4, 7]",0.0,2.0,0.5088469982147217,2.165371894836426,0.6451230672031698,14.0,143.0,0.0
B,L,"[4, 6]",0.0,2.0,0.19088315963745117,1.6104378700256348,0.42231056832332303,14.0,144.0,0.0
G,D,"[5, 6]",0.0,2.0,0.2335958480834961,1.748534917831421,0.520914664863369,14.0,145.0,0.0
Y,R,"[5, 7]",0.0,2.0,0.22081899642944336,1.8450419902801514,0.6321731903383081,14.0,146.0,0.0
Y,R,"[5, 8]",1.0,3.0,0.5000619888305664,1.8838181495666504,0.3663619960165651,14.0,147.0,0.0
R,U,"[4, 8]",0.0,3.0,0.4068291187286377,1.6955609321594238,0.278443030506664,14.0,148.0,0.0
G,D,"[5, 8]",0.0,3.0,0.42439699172973633,1.8515009880065918,0.4297280697933028,14.0,149.0,0.0
Y,R,"[5, 9]",0.0,3.0,0.3895711898803711,1.8452739715576172,0.4583557656754619,14.0,150.0,0.0
,,"(6, 6)",,,,,,14.0,,
R,U,"[5, 6]",1.0,1.0,0.7146270275115967,4.105851888656616,0.2974749369341925,,151.0,0.0
Y,R,"[5, 7]",1.0,2.0,0.3305649757385254,2.0644478797912598,0.6948029290462057,15.0,152.0,0.0
B,L,"[5, 6]",0.0,2.0,0.22676706314086914,1.9140799045562744,0.692099881360515,15.0,153.0,0.0
Y,R,"[5, 7]",0.0,2.0,0.29286909103393555,1.8928282260894775,0.6017073498832847,15.0,154.0,0.0
Y,R,"[5, 8]",1.0,3.0,0.2508101463317871,1.6990830898284912,0.43419834289840115,15.0,155.0,0.0
G,D,"[6, 8]",1.0,4.0,0.9567310810089111,2.4972240924835205,0.5312415627998783,15.0,156.0,0.0
R,U,"[5, 8]",0.0,4.0,0.5952448844909668,2.2199158668518066,0.6181156208052908,15.0,157.0,0.0
B,L,"[5, 7]",0.0,4.0,0.6813130378723145,2.1861860752105713,0.5038527050593273,15.0,158.0,0.0
Y,R,"[5, 8]",0.0,4.0,0.33341002464294434,1.666243076324463,0.33711993030902165,15.0,159.0,0.0
Y,R,"[5, 9]",0.0,4.0,0.33872485160827637,2.0872538089752197,0.7405201625331742,15.0,160.0,0.0
,,"(6, 6)",,,,,,15.0,,
R,U,"[5, 6]",1.0,1.0,0.8616981506347656,4.866962909698486,0.37421092091422636,,161.0,0.0
Y,R,"[5, 7]",1.0,2.0,0.26793503761291504,1.7857449054718018,0.5098504830488005,16.0,162.0,0.0
G,D,"[6, 7]",0.0,2.0,0.21663308143615723,1.8921849727630615,0.6851522370014664,16.0,163.0,0.0
R,U,"[5, 7]",0.0,2.0,0.33553290367126465,1.7221040725708008,0.39095855574773614,16.0,164.0,0.0
Y,R,"[5, 8]",1.0,3.0,0.35386085510253906,1.641296148300171,0.2823590850195567,16.0,165.0,0.0
B,L,"[5, 7]",0.0,3.0,0.3333449363708496,1.6023709774017334,0.2679730620803579,16.0,166.0,0.0
Y,R,"[5, 8]",0.0,3.0,0.9406371116638184,2.433695077896118,0.48465691363398994,16.0,167.0,0.0
R,U,"[4, 8]",0.0,3.0,0.36139893531799316,2.019278049468994,0.6536334438245767,16.0,168.0,0.0
G,D,"[5, 8]",0.0,3.0,0.2096869945526123,1.7931489944458008,0.580084237504451,16.0,169.0,0.0
G,D,"[6, 8]",1.0,4.0,0.25974297523498535,1.7286829948425293,0.45875052966957675,16.0,170.0,0.0
,,"(6, 6)",,,,,,16.0,,
R,U,"[5, 6]",1.0,1.0,0.7047610282897949,5.088854074478149,0.6978408300993577,,171.0,0.0
Y,R,"[5, 7]",1.0,2.0,0.24316906929016113,1.8121821880340576,0.5595158575336294,17.0,172.0,0.0
G,D,"[6, 7]",0.0,2.0,0.2999289035797119,1.9489829540252686,0.6583947700225183,17.0,173.0,0.0
G,D,"[7, 7]",0.0,2.0,0.7798800468444824,2.102185010910034,0.32747134947853285,17.0,174.0,0.0
Y,R,"[7, 8]",0.0,2.0,0.43278002738952637,2.0797691345214844,0.656863441873528,17.0,175.0,0.0
B,L,"[7, 7]",0.0,2.0,0.16647982597351074,1.7421481609344482,0.5825146427838978,17.0,176.0,0.0
R,U,"[6, 7]",0.0,2.0,0.15439605712890625,1.7253270149230957,0.5575589314000493,17.0,177.0,0.0
R,U,"[5, 7]",0.0,2.0,0.2348308563232422,1.6916368007659912,0.4494941026955721,17.0,178.0,0.0
Y,R,"[5, 8]",1.0,3.0,0.28670787811279297,1.7159709930419922,0.4154887828409826,17.0,179.0,0.0
G,D,"[6, 8]",-2.0,3.0,1.0040462017059326,2.4285430908203125,0.39384683250112607,17.0,180.0,0.0
,,"(6, 6)",,,,,,17.0,,
R,U,"[5, 6]",1.0,1.0,0.7458338737487793,4.476953029632568,0.35371520590480693,,181.0,0.0
Y,R,"[5, 7]",1.0,2.0,0.24319195747375488,1.6157808303833008,0.3696974771488904,18.0,182.0,0.0
G,D,"[6, 7]",0.0,2.0,0.7262899875640869,2.4631237983703613,0.7322400981708836,18.0,183.0,0.0
R,U,"[5, 7]",0.0,2.0,0.2624080181121826,1.5793581008911133,0.31200084435342446,18.0,184.0,0.0
Y,R,"[5, 8]",1.0,3.0,0.32085299491882324,1.9074699878692627,0.6025893165909799,18.0,185.0,0.0
B,L,"[5, 7]",0.0,3.0,0.4980168342590332,1.8280060291290283,0.3309186661817551,18.0,186.0,0.0
G,D,"[6, 7]",0.0,3.0,0.46075010299682617,1.815809965133667,0.34664708733749255,18.0,187.0,0.0
G,D,"[7, 7]",0.0,3.0,0.39322590827941895,1.7843348979949951,0.38061334817026465,18.0,188.0,0.0
G,D,"[8, 7]",0.0,3.0,0.527656078338623,2.2368290424346924,0.700435160183795,18.0,189.0,0.0
B,L,"[8, 6]",0.0,3.0,0.9045848846435547,2.3594748973846436,0.44347482712394215,18.0,190.0,0.0
,,"(6, 6)",,,,,,18.0,,
R,U,"[5, 6]",1.0,1.0,0.5873498916625977,4.181553840637207,0.5418476500820917,,191.0,0.0
Y,R,"[5, 7]",1.0,2.0,0.21701383590698242,1.6910088062286377,0.46601354381081667,19.0,192.0,0.0
B,L,"[5, 6]",0.0,2.0,0.2198929786682129,1.97837495803833,0.7438094357062306,19.0,193.0,0.0
R,U,"[4, 6]",0.0,2.0,0.6481540203094482,2.0431067943573,0.40378056181014915,19.0,194.0,0.0
G,D,"[5, 6]",0.0,2.0,0.20081400871276855,1.5249810218811035,0.3289861873080112,19.0,195.0,0.0
Y,R,"[5, 7]",0.0,2.0,0.3178219795227051,1.577045202255249,0.27246920989536944,19.0,196.0,0.0
Y,R,"[5, 8]",1.0,3.0,0.2832369804382324,1.5501110553741455,0.272735840616992,19.0,197.0,0.0
Y,R,"[5, 9]",0.0,3.0,0.8671348094940186,2.3846189975738525,0.5238171226407444,19.0,198.0,0.0
G,D,"[6, 9]",1.0,4.0,0.26805996894836426,1.8453810214996338,0.5687954197462968,19.0,199.0,0.0
B,L,"[6, 8]",1.0,5.0,0.38669800758361816,1.988739013671875,0.5909188346248269,19.0,200.0,0.0
,,"(6, 6)",,,,,,19.0,,
R,U,"[5, 6]",1.0,1.0,0.7664270401000977,7.058849811553955,0.2996641859965646,,201.0,0.0
Y,R,"[5, 7]",1.0,2.0,0.23158597946166992,1.915644884109497,0.6650028874903061,20.0,202.0,0.0
R,U,"[4, 7]",0.0,2.0,0.19281911849975586,1.7276008129119873,0.5260675768546104,20.0,203.0,0.0
Y,R,"[4, 8]",0.0,2.0,0.5401718616485596,2.1304409503936768,0.6062406432025108,20.0,204.0,0.0
Y,R,"[4, 9]",1.0,3.0,0.1779179573059082,1.5725388526916504,0.39572234354575314,20.0,205.0,0.0
G,D,"[5, 9]",0.0,3.0,0.1822209358215332,1.694166898727417,0.5230720185951461,20.0,206.0,0.0
B,L,"[5, 8]",1.0,4.0,0.18316006660461426,1.507908821105957,0.3310243089112898,20.0,207.0,0.0
G,D,"[6, 8]",1.0,5.0,0.2943601608276367,1.708622932434082,0.406269801262697,20.0,208.0,0.0
R,U,"[5, 8]",0.0,5.0,0.23249197006225586,1.9006597995758057,0.6735050126910548,20.0,209.0,0.0
R,U,"[4, 8]",0.0,5.0,0.4355189800262451,1.959439992904663,0.5326143469251599,20.0,210.0,0.0
,,"(6, 6)",,,,,,20.0,,
R,U,"[5, 6]",1.0,1.0,0.7086789608001709,4.737157106399536,0.7028140859911489,,211.0,0.0
Y,R,"[5, 7]",1.0,2.0,0.19301986694335938,1.467911958694458,0.2710274422678553,21.0,212.0,0.0
G,D,"[6, 7]",0.0,2.0,0.33837413787841797,1.736778974533081,0.4076412321202371,21.0,213.0,0.0
G,D,"[7, 7]",0.0,2.0,0.18917202949523926,1.5673799514770508,0.3917709968620129,21.0,214.0,0.0
G,D,"[8, 7]",0.0,2.0,0.5267798900604248,2.0647640228271484,0.5395722541015237,21.0,215.0,0.0
Y,R,"[8, 8]",0.0,2.0,0.2617909908294678,1.5914521217346191,0.331401418207511,21.0,216.0,0.0
B,L,"[8, 7]",0.0,2.0,0.200361967086792,1.6460330486297607,0.4439945177256741,21.0,217.0,0.0
R,U,"[7, 7]",0.0,2.0,0.2314128875732422,1.643763780593872,0.420857835557891,21.0,218.0,0.0
Y,R,"[7, 8]",0.0,2.0,0.39989399909973145,1.9319589138031006,0.5359826770929799,21.0,219.0,0.0
R,U,"[6, 8]",1.0,3.0,0.647089958190918,2.3768069744110107,0.7291773009757923,21.0,220.0,0.0
,,"(6, 6)",,,,,,21.0,,
R,U,"[5, 6]",1.0,1.0,0.5796949863433838,4.256245851516724,0.6020932033968669,,221.0,0.0
Y,R,"[5, 7]",1.0,2.0,0.19370818138122559,1.9184339046478271,0.7205095688226459,22.0,222.0,0.0
R,U,"[4, 7]",0.0,2.0,0.2638819217681885,1.7138919830322266,0.4509583155190919,22.0,223.0,0.0
G,D,"[5, 7]",0.0,2.0,0.17715191841125488,1.498764991760254,0.31672222705155156,22.0,224.0,0.0
G,D,"[6, 7]",0.0,2.0,0.2561638355255127,1.9428951740264893,0.6758613813105155,22.0,225.0,0.0
Y,R,"[6, 8]",1.0,3.0,0.2768089771270752,1.958406925201416,0.6844327960966072,22.0,226.0,0.0
G,D,"[7, 8]",-1.0,3.0,0.06469488143920898,5.889806032180786,0.6904232435435345,22.0,227.0,0.0
G,D,"[8, 8]",0.0,3.0,0.5087330341339111,1.840811014175415,0.3315106137550312,22.0,228.0,0.0
B,L,"[8, 7]",0.0,3.0,0.43163490295410156,1.8320889472961426,0.39674839391914696,22.0,229.0,0.0
B,L,"[8, 6]",0.0,3.0,0.23125815391540527,1.633772850036621,0.3969980899176818,22.0,230.0,0.0
,,"(6, 6)",,,,,,22.0,,
R,U,"[5, 6]",1.0,1.0,0.809272050857544,4.0340118408203125,0.5309305828907956,,231.0,0.0
Y,R,"[5, 7]",1.0,2.0,0.2337779998779297,1.9565508365631104,0.7038939409884505,23.0,232.0,0.0
G,D,"[6, 7]",0.0,2.0,0.1892080307006836,1.7518398761749268,0.5560352374904827,23.0,233.0,0.0
G,D,"[7, 7]",0.0,2.0,0.3436880111694336,1.7974588871002197,0.4533232044915099,23.0,234.0,0.0
Y,R,"[7, 8]",0.0,2.0,0.4013068675994873,1.7655808925628662,0.3688211784751032,23.0,235.0,0.0
B,L,"[7, 7]",0.0,2.0,0.1386580467224121,1.893531084060669,0.7453763492837072,23.0,236.0,0.0
R,U,"[6, 7]",0.0,2.0,0.2615170478820801,1.7172479629516602,0.4629582084356308,23.0,237.0,0.0
R,U,"[5, 7]",0.0,2.0,0.7859780788421631,2.25382399559021,0.44981347723342124,23.0,238.0,0.0
Y,R,"[5, 8]",1.0,3.0,0.4190530776977539,2.1088039875030518,0.6752095212079525,23.0,239.0,0.0
G,D,"[6, 8]",1.0,4.0,0.506004810333252,1.8312110900878906,0.32317408992448454,23.0,240.0,0.0
,,"(6, 6)",,,,,,23.0,,
R,U,"[5, 6]",1.0,1.0,0.9665219783782959,8.18883490562439,0.2953573644012258,,241.0,0.0
Y,R,"[5, 7]",1.0,2.0,0.5645010471343994,2.055647850036621,0.5005484734908694,24.0,242.0,0.0
G,D,"[6, 7]",0.0,2.0,0.3854398727416992,1.7664690017700195,0.38387373817566256,24.0,243.0,0.0
B,L,"[6, 6]",0.0,2.0,0.49178194999694824,1.7829530239105225,0.2833277798298902,24.0,244.0,0.0
Y,R,"[6, 7]",0.0,2.0,0.3583798408508301,1.7823820114135742,0.41551719764429146,24.0,245.0,0.0
Y,R,"[6, 8]",1.0,3.0,0.1901249885559082,1.6476809978485107,0.4465685599763349,24.0,246.0,0.0
G,D,"[7, 8]",0.0,3.0,0.21897292137145996,1.7508010864257812,0.5139484510150912,24.0,247.0,0.0
B,L,"[7, 7]",0.0,3.0,0.30894899368286133,1.971411943435669,0.651696413430753,24.0,248.0,0.0
R,U,"[6, 7]",-1.0,3.0,0.0889730453491211,5.718977928161621,0.48741825692440316,24.0,249.0,0.0
Y,R,"[6, 8]",0.0,3.0,0.743459939956665,2.294947862625122,0.5490320927138064,24.0,250.0,0.0
,,"(6, 6)",,,,,,24.0,,
R,U,"[5, 6]",-2.0,0.0,1.039858102798462,5.252717971801758,0.5513154748573127,,251.0,0.0
R,U,"[4, 6]",0.0,0.0,0.4734067916870117,1.768934965133667,0.2871339842862679,25.0,252.0,0.0
Y,R,"[4, 7]",0.0,0.0,0.33256983757019043,2.0060529708862305,0.6760485463158628,25.0,253.0,0.0
B,L,"[4, 6]",0.0,0.0,0.17370295524597168,1.7362079620361328,0.5624311683597014,25.0,254.0,0.0
Y,R,"[4, 7]",0.0,0.0,0.181779146194458,1.9294631481170654,0.7416469352937993,25.0,255.0,0.0
R,U,"[3, 7]",0.0,0.0,0.20903396606445312,1.9163780212402344,0.7080280172984702,25.0,256.0,0.0
G,D,"[4, 7]",0.0,0.0,0.2494969367980957,1.6004948616027832,0.3588116940213452,25.0,257.0,0.0
B,L,"[4, 6]",0.0,0.0,0.4086000919342041,1.9588649272918701,0.5509104886183211,25.0,258.0,0.0
B,L,"[4, 5]",0.0,0.0,0.32467079162597656,1.8874051570892334,0.5548297884937143,25.0,259.0,0.0
G,D,"[5, 5]",0.0,0.0,0.2146291732788086,1.7225651741027832,0.5106316207814019,25.0,260.0,0.0
,,"(6, 6)",,,,,,25.0,,
R,U,"[5, 6]",1.0,1.0,0.8921661376953125,5.396721124649048,0.4573052581372738,,261.0,0.0
Y,R,"[5, 7]",1.0,2.0,0.23746800422668457,1.7930760383605957,0.5502750081181613,26.0,262.0,0.0
Y,R,"[5, 8]",1.0,3.0,0.28464198112487793,1.5793910026550293,0.27963923982283545,26.0,263.0,0.0
G,D,"[6, 8]",1.0,4.0,0.44318389892578125,1.906507968902588,0.4528708973800936,26.0,264.0,0.0
B,L,"[6, 7]",0.0,4.0,0.6431269645690918,2.1931979656219482,0.5458223450577867,26.0,265.0,0.0
R,U,"[5, 7]",0.0,4.0,0.3621039390563965,1.6815719604492188,0.31088826301096006,26.0,266.0,0.0
Y,R,"[5, 8]",0.0,4.0,0.35640406608581543,1.8254108428955078,0.4693564821314837,26.0,267.0,0.0
G,D,"[6, 8]",0.0,4.0,0.518967866897583,2.0182650089263916,0.5042515589606689,26.0,268.0,0.0
G,D,"[7, 8]",0.0,4.0,0.2325761318206787,1.9525270462036133,0.7229650755823095,26.0,269.0,0.0
R,U,"[6, 8]",0.0,4.0,0.20722103118896484,1.7692618370056152,0.5590707108082064,26.0,270.0,0.0
,,"(6, 6)",,,,,,26.0,,
R,U,"[5, 6]",1.0,1.0,0.5887811183929443,4.76578688621521,0.5915590349520031,,271.0,0.0
Y,R,"[5, 7]",1.0,2.0,0.2571280002593994,1.5426068305969238,0.284144775960481,27.0,272.0,0.0
Y,R,"[5, 8]",1.0,3.0,0.5026731491088867,2.2346620559692383,0.7185604594743321,27.0,273.0,0.0
G,D,"[6, 8]",1.0,4.0,0.28449010848999023,2.0207149982452393,0.7224112981250557,27.0,274.0,0.0
Y,R,"[6, 9]",1.0,5.0,0.814749002456665,2.534320116043091,0.7232625822460453,27.0,275.0,0.0
R,U,"[5, 9]",0.0,5.0,0.312349796295166,1.9374980926513672,0.6272911810134703,27.0,276.0,0.0
B,L,"[5, 8]",0.0,5.0,0.3229398727416992,1.960278034210205,0.6376514439388206,27.0,277.0,0.0
G,D,"[6, 8]",0.0,5.0,0.22371387481689453,1.9037659168243408,0.6750718656083339,27.0,278.0,0.0
G,D,"[7, 8]",0.0,5.0,0.5262658596038818,2.168828010559082,0.6436304118750054,27.0,279.0,0.0
Y,R,"[7, 9]",0.0,5.0,0.4245748519897461,1.7840988636016846,0.36128885090704554,27.0,280.0,0.0
,,"(6, 6)",,,,,,27.0,,
R,U,"[5, 6]",1.0,1.0,0.6061849594116211,3.5807478427886963,0.2585596283515385,,281.0,0.0
Y,R,"[5, 7]",1.0,2.0,0.31177806854248047,1.782439947128296,0.4739139045003478,28.0,282.0,0.0
Y,R,"[5, 8]",1.0,3.0,0.20452213287353516,1.9389009475708008,0.7292065621355865,28.0,283.0,0.0
G,D,"[6, 8]",1.0,4.0,0.19536685943603516,1.629364013671875,0.4255622124811011,28.0,284.0,0.0
B,L,"[6, 7]",0.0,4.0,0.40470218658447266,2.0291290283203125,0.6211990841355033,28.0,285.0,0.0
R,U,"[5, 7]",0.0,4.0,0.35489892959594727,1.9428939819335938,0.5972491334241155,28.0,286.0,0.0
G,D,"[6, 7]",0.0,4.0,0.2582099437713623,1.7001240253448486,0.4308457571820745,28.0,287.0,0.0
R,U,"[5, 7]",0.0,4.0,0.26039910316467285,1.8047559261322021,0.5354420147057474,28.0,288.0,0.0
B,L,"[5, 6]",0.0,4.0,0.19938993453979492,1.7679660320281982,0.5699064480825896,28.0,289.0,0.0
Y,R,"[5, 7]",0.0,4.0,0.19342899322509766,1.7067770957946777,0.5099346373934011,28.0,290.0,0.0
,,"(6, 6)",,,,,,28.0,,
R,U,"[5, 6]",1.0,1.0,0.5728309154510498,4.035153150558472,0.6281693665830925,,291.0,0.0
Y,R,"[5, 7]",1.0,2.0,0.19060111045837402,1.7179701328277588,0.5295474895500744,29.0,292.0,0.0
Y,R,"[5, 8]",1.0,3.0,0.20475387573242188,1.7453911304473877,0.5251093678749599,29.0,293.0,0.0
G,D,"[6, 8]",1.0,4.0,0.23746395111083984,1.9309351444244385,0.6891822413863196,29.0,294.0,0.0
Y,R,"[6, 9]",1.0,5.0,0.20808100700378418,1.6978521347045898,0.4869482520773504,29.0,295.0,0.0
R,U,"[5, 9]",0.0,5.0,0.26581406593322754,1.823310136795044,0.560137004266118,29.0,296.0,0.0
G,D,"[6, 9]",0.0,5.0,0.2996330261230469,1.5467488765716553,0.257272642030656,29.0,297.0,0.0
B,L,"[6, 8]",0.0,5.0,0.5783028602600098,1.9533870220184326,0.3770058728759648,29.0,298.0,0.0
Y,R,"[6, 9]",0.0,5.0,0.31736111640930176,1.6147329807281494,0.30854092199510136,29.0,299.0,0.0
G,D,"[7, 9]",0.0,5.0,0.5246410369873047,2.086642026901245,0.5615182421207003,29.0,300.0,0.0
,,"(6, 6)",,,,,,29.0,,
R,U,"[5, 6]",1.0,1.0,0.5011510848999023,3.2972121238708496,0.3421428721068917,,301.0,0.0
Y,R,"[5, 7]",1.0,2.0,0.2281951904296875,1.8176000118255615,0.5927867047183151,30.0,302.0,0.0
Y,R,"[5, 8]",1.0,3.0,0.3594651222229004,1.9244308471679688,0.5671502686559655,30.0,303.0,0.0
G,D,"[6, 8]",1.0,4.0,0.2292799949645996,1.897834062576294,0.6647099548299447,30.0,304.0,0.0
B,L,"[6, 7]",0.0,4.0,0.23419785499572754,1.6650350093841553,0.4299516994803531,30.0,305.0,0.0
Y,R,"[6, 8]",0.0,4.0,0.28737497329711914,1.606593132019043,0.30339418248979555,30.0,306.0,0.0
R,U,"[5, 8]",0.0,4.0,0.3053100109100342,1.8204751014709473,0.5070533858805923,30.0,307.0,0.0
R,U,"[4, 8]",0.0,4.0,0.2687511444091797,1.55287504196167,0.29338727673283804,30.0,308.0,0.0
B,L,"[4, 7]",0.0,4.0,0.28970789909362793,1.7567641735076904,0.46648305545639074,30.0,309.0,0.0
Y,R,"[4, 8]",0.0,4.0,0.2889258861541748,1.8048949241638184,0.504524994039641,30.0,310.0,0.0
,,"(6, 6)",,,,,,30.0,,
R,U,"[5, 6]",1.0,1.0,0.6180219650268555,3.5983340740203857,0.26994696099709414,,311.0,0.0
Y,R,"[5, 7]",1.0,2.0,0.23377704620361328,1.9619860649108887,0.7145713231364256,31.0,312.0,0.0
Y,R,"[5, 8]",1.0,3.0,0.1721479892730713,1.6290509700775146,0.44391009391141284,31.0,313.0,0.0
G,D,"[6, 8]",1.0,4.0,0.3065829277038574,2.00703501701355,0.7007025980857426,31.0,314.0,0.0
R,U,"[5, 8]",0.0,4.0,0.2248060703277588,1.5662941932678223,0.3338034786197279,31.0,315.0,0.0
B,L,"[5, 7]",0.0,4.0,0.31803202629089355,1.7414820194244385,0.4250619618987626,31.0,316.0,0.0
Y,R,"[5, 8]",0.0,4.0,0.6077799797058105,2.01143217086792,0.4033813957630946,31.0,317.0,0.0
Y,R,"[5, 9]",0.0,4.0,0.2430438995361328,1.8066890239715576,0.5596211886376503,31.0,318.0,0.0
G,D,"[6, 9]",1.0,5.0,0.16602087020874023,1.5989060401916504,0.4254831103824191,31.0,319.0,0.0
B,L,"[6, 8]",0.0,5.0,0.9570069313049316,2.2608859539031982,0.3028125105876338,31.0,320.0,0.0
,,"(6, 6)",,,,,,31.0,,
R,U,"[5, 6]",1.0,1.0,0.5467548370361328,4.14824914932251,0.41777951403895763,,321.0,0.0
Y,R,"[5, 7]",1.0,2.0,0.21238017082214355,1.6863930225372314,0.470644786483943,32.0,322.0,0.0
Y,R,"[5, 8]",1.0,3.0,0.1555781364440918,1.7890710830688477,0.62626454010548,32.0,323.0,0.0
G,D,"[6, 8]",1.0,4.0,0.22370481491088867,1.8153479099273682,0.5913330881614456,32.0,324.0,0.0
Y,R,"[6, 9]",1.0,5.0,0.20691299438476562,1.829030990600586,0.620347002934797,32.0,325.0,0.0
R,U,"[5, 9]",0.0,5.0,0.23729491233825684,1.9395220279693604,0.6928336208061338,32.0,326.0,0.0
B,L,"[5, 8]",0.0,5.0,0.20525598526000977,1.8415520191192627,0.634616349266329,32.0,327.0,0.0
G,D,"[6, 8]",0.0,5.0,0.2071058750152588,1.6134181022644043,0.3981350264365978,32.0,328.0,0.0
G,D,"[7, 8]",0.0,5.0,0.17744994163513184,1.6990461349487305,0.5139519097412097,32.0,329.0,0.0
Y,R,"[7, 9]",0.0,5.0,0.1835620403289795,1.6917121410369873,0.5055055596139727,32.0,330.0,0.0
,,"(6, 6)",,,,,,32.0,,
R,U,"[5, 6]",1.0,1.0,0.5527238845825195,3.6281349658966064,0.26704061760356357,,331.0,0.0
Y,R,"[5, 7]",1.0,2.0,0.25554800033569336,1.8552160263061523,0.5885766440128661,33.0,332.0,0.0
Y,R,"[5, 8]",1.0,3.0,0.2496318817138672,1.9624559879302979,0.7007610671644078,33.0,333.0,0.0
G,D,"[6, 8]",1.0,4.0,0.2267899513244629,1.950747013092041,0.7181640680693934,33.0,334.0,0.0
Y,R,"[6, 9]",1.0,5.0,0.21698904037475586,1.6255829334259033,0.3940002312026416,33.0,335.0,0.0
B,L,"[6, 8]",0.0,5.0,0.25714612007141113,1.808966875076294,0.5526735114241158,33.0,336.0,0.0
R,U,"[5, 8]",0.0,5.0,0.6447498798370361,1.9229388236999512,0.2758242694323397,33.0,337.0,0.0
G,D,"[6, 8]",0.0,5.0,0.2068319320678711,1.5315558910369873,0.3408047988614679,33.0,338.0,0.0
Y,R,"[6, 9]",0.0,5.0,0.2725949287414551,1.8751649856567383,0.598780756602963,33.0,339.0,0.0
B,L,"[6, 8]",0.0,5.0,0.20414400100708008,1.5198941230773926,0.30230130166711866,33.0,340.0,0.0
,,"(6, 6)",,,,,,33.0,,
R,U,"[5, 6]",1.0,1.0,0.47997403144836426,3.885658025741577,0.654243364605346,,341.0,0.0
Y,R,"[5, 7]",1.0,2.0,0.21031713485717773,1.5815439224243164,0.3693092060179115,34.0,342.0,0.0
Y,R,"[5, 8]",1.0,3.0,0.22579622268676758,1.5277252197265625,0.2970389830241045,34.0,343.0,0.0
G,D,"[6, 8]",1.0,4.0,0.3122539520263672,1.7987260818481445,0.47897226711611335,34.0,344.0,0.0
Y,R,"[6, 9]",1.0,5.0,0.32090306282043457,1.9697039127349854,0.6649800652958928,34.0,345.0,0.0
R,U,"[5, 9]",0.0,5.0,0.20655584335327148,1.664862871170044,0.4633778157059718,34.0,346.0,0.0
G,D,"[6, 9]",0.0,5.0,0.19589591026306152,1.6502759456634521,0.4467649251105738,34.0,347.0,0.0
Y,R,"[6, 10]",1.0,6.0,0.25591588020324707,1.8840641975402832,0.6140446633893738,34.0,348.0,0.0
B,L,"[6, 9]",0.0,6.0,0.2208712100982666,1.6610169410705566,0.42515611582321033,34.0,349.0,0.0
B,L,"[6, 8]",0.0,6.0,0.21338510513305664,1.9155399799346924,0.7070577251695512,34.0,350.0,0.0
,,"(6, 6)",,,,,,34.0,,
R,U,"[5, 6]",1.0,1.0,0.4426858425140381,3.709994077682495,0.35081947865606444,,351.0,0.0
Y,R,"[5, 7]",1.0,2.0,0.20902681350708008,1.7827951908111572,0.5665805928639297,35.0,352.0,0.0
Y,R,"[5, 8]",1.0,3.0,0.19471001625061035,1.9503581523895264,0.7499443989574706,35.0,353.0,0.0
G,D,"[6, 8]",1.0,4.0,0.20554399490356445,1.6715850830078125,0.45507756228750057,35.0,354.0,0.0
Y,R,"[6, 9]",1.0,5.0,0.280040979385376,1.7619311809539795,0.48360834241954276,35.0,355.0,0.0
Y,R,"[6, 10]",1.0,6.0,0.6305389404296875,2.105294942855835,0.471926964625975,35.0,356.0,0.0
R,U,"[5, 10]",1.0,7.0,0.41428184509277344,1.6685190200805664,0.2577042756365542,35.0,357.0,0.0
Y,R,"[5, 11]",0.0,7.0,0.3425421714782715,1.7412559986114502,0.3985326509766177,35.0,358.0,0.0
B,L,"[5, 10]",0.0,7.0,0.21261000633239746,1.8872020244598389,0.6688428623243157,35.0,359.0,0.0
B,L,"[5, 9]",0.0,7.0,0.2161409854888916,1.5501160621643066,0.33590027432573266,35.0,360.0,0.0
,,"(6, 6)",,,,,,35.0,,
R,U,"[5, 6]",-2.0,0.0,1.019240140914917,5.341418981552124,0.5269492636894646,,361.0,0.0
R,U,"[4, 6]",0.0,0.0,0.4457709789276123,1.9396641254425049,0.49977344325547,36.0,362.0,0.0
Y,R,"[4, 7]",0.0,0.0,0.3275790214538574,1.6883959770202637,0.35502766972149913,36.0,363.0,0.0
G,D,"[5, 7]",1.0,1.0,0.516577959060669,2.2159531116485596,0.7037599531470307,36.0,364.0,0.0
Y,R,"[5, 8]",1.0,2.0,0.24031877517700195,1.7202301025390625,0.47416131290441327,36.0,365.0,0.0
B,L,"[5, 7]",0.0,2.0,0.5329179763793945,2.251131057739258,0.7251754440481095,36.0,366.0,0.0
R,U,"[4, 7]",0.0,2.0,0.8848869800567627,2.430460214614868,0.5556454757744607,36.0,367.0,0.0
G,D,"[5, 7]",0.0,2.0,0.23245501518249512,1.9425039291381836,0.7147830179847623,36.0,368.0,0.0
Y,R,"[5, 8]",0.0,2.0,0.23658299446105957,1.8695180416107178,0.6175467592743566,36.0,369.0,0.0
Y,R,"[5, 9]",0.0,2.0,0.19170784950256348,1.8258299827575684,0.626474428185093,36.0,370.0,0.0
,,"(6, 6)",,,,,,36.0,,
R,U,"[5, 6]",1.0,1.0,0.6494560241699219,4.261785984039307,0.3716855589679505,,371.0,0.0
Y,R,"[5, 7]",1.0,2.0,0.31333494186401367,1.8102059364318848,0.49854100609355506,37.0,372.0,0.0
Y,R,"[5, 8]",1.0,3.0,0.25362491607666016,1.5240130424499512,0.2559424015410821,37.0,373.0,0.0
G,D,"[6, 8]",1.0,4.0,0.2590022087097168,1.9902279376983643,0.729047081541598,37.0,374.0,0.0
Y,R,"[6, 9]",1.0,5.0,0.23925089836120605,1.7307331562042236,0.47680494248637856,37.0,375.0,0.0
R,U,"[5, 9]",0.0,5.0,0.21028709411621094,1.5270299911499023,0.32053439923443827,37.0,376.0,0.0
Y,R,"[5, 10]",1.0,6.0,0.7258789539337158,2.247750997543335,0.5177793278151963,37.0,377.0,0.0
B,L,"[5, 9]",0.0,6.0,0.2228071689605713,1.733910083770752,0.5183901333658821,37.0,378.0,0.0
Y,R,"[5, 10]",0.0,6.0,0.3435180187225342,1.742326021194458,0.3940376497259391,37.0,379.0,0.0
G,D,"[6, 10]",1.0,7.0,0.2381448745727539,1.8083250522613525,0.5857695019352174,37.0,380.0,0.0
,,"(6, 6)",,,,,,37.0,,
R,U,"[5, 6]",1.0,1.0,0.6050200462341309,5.2266151905059814,0.6120164045677539,,381.0,0.0
Y,R,"[5, 7]",1.0,2.0,0.18368291854858398,1.6722989082336426,0.4843668422971538,38.0,382.0,0.0
Y,R,"[5, 8]",1.0,3.0,0.19138121604919434,1.5519490242004395,0.3531276450891379,38.0,383.0,0.0
G,D,"[6, 8]",1.0,4.0,0.24327301979064941,1.4977540969848633,0.2507550891043487,38.0,384.0,0.0
Y,R,"[6, 9]",1.0,5.0,0.4502689838409424,1.8811981678009033,0.41523773595652963,38.0,385.0,0.0
B,L,"[6, 8]",0.0,5.0,0.456906795501709,2.1582441329956055,0.6896532385061136,38.0,386.0,0.0
R,U,"[5, 8]",0.0,5.0,0.18108487129211426,1.4756979942321777,0.2993361185148621,38.0,387.0,0.0
R,U,"[4, 8]",0.0,5.0,0.7495129108428955,2.02486515045166,0.27413440752413926,38.0,388.0,0.0
Y,R,"[4, 9]",1.0,6.0,0.2900218963623047,1.9140360355377197,0.6209181625905815,38.0,389.0,0.0
G,D,"[5, 9]",0.0,6.0,0.3117799758911133,1.9877419471740723,0.6750880929451697,38.0,390.0,0.0
,,"(6, 6)",,,,,,38.0,,
R,U,"[5, 6]",1.0,1.0,0.52028489112854,4.124881029129028,0.6333013118682733,,391.0,0.0
Y,R,"[5, 7]",1.0,2.0,0.15833401679992676,1.6133549213409424,0.4468437364863568,39.0,392.0,0.0
Y,R,"[5, 8]",1.0,3.0,0.1687021255493164,1.9225008487701416,0.7355447517016346,39.0,393.0,0.0
G,D,"[6, 8]",-1.0,3.0,0.09835410118103027,5.732939958572388,0.5018507968346628,39.0,394.0,0.0
Y,R,"[6, 9]",1.0,4.0,0.2706418037414551,1.8161749839782715,0.5346692637254971,39.0,395.0,0.0
R,U,"[5, 9]",0.0,4.0,0.3109781742095947,1.7309889793395996,0.41574170584211745,39.0,396.0,0.0
B,L,"[5, 8]",0.0,4.0,0.23959088325500488,1.6063017845153809,0.35534590106720176,39.0,397.0,0.0
G,D,"[6, 8]",0.0,4.0,0.24061799049377441,1.5442581176757812,0.29967623181453157,39.0,398.0,0.0
Y,R,"[6, 9]",0.0,4.0,0.5014190673828125,2.0071849822998047,0.4734442148471394,39.0,399.0,0.0
G,D,"[7, 9]",0.0,4.0,0.997481107711792,2.281404972076416,0.2881154739497133,39.0,400.0,0.0
,,"(6, 6)",,,,,,39.0,,
R,U,"[5, 6]",1.0,1.0,0.6015558242797852,3.9484291076660156,0.28660418740465365,,401.0,0.0
Y,R,"[5, 7]",1.0,2.0,0.2980320453643799,2.046962022781372,0.7493603704979842,40.0,402.0,0.0
Y,R,"[5, 8]",1.0,3.0,0.2479560375213623,2.006695032119751,0.7394623130365605,40.0,403.0,0.0
G,D,"[6, 8]",1.0,4.0,0.2990260124206543,1.9123101234436035,0.6020342456114596,40.0,404.0,0.0
Y,R,"[6, 9]",1.0,5.0,0.23424100875854492,1.6489989757537842,0.40090397002977324,40.0,405.0,0.0
B,L,"[6, 8]",0.0,5.0,0.5251719951629639,2.216197967529297,0.6836133865120549,40.0,406.0,0.0
Y,R,"[6, 9]",0.0,5.0,0.29554295539855957,1.7047200202941895,0.405103962245576,40.0,407.0,0.0
B,L,"[6, 8]",0.0,5.0,0.4385569095611572,2.095428943634033,0.6668004930769491,40.0,408.0,0.0
R,U,"[5, 8]",0.0,5.0,0.22968506813049316,1.7668328285217285,0.5336960672137239,40.0,409.0,0.0
G,D,"[6, 8]",0.0,5.0,0.2698180675506592,1.835843801498413,0.5530226266169276,40.0,410.0,0.0
,,"(6, 6)",,,,,,40.0,,
R,U,"[5, 6]",1.0,1.0,0.48298120498657227,3.6675570011138916,0.3537945401521718,,411.0,0.0
Y,R,"[5, 7]",1.0,2.0,0.25931715965270996,1.6708769798278809,0.40788185978917724,41.0,412.0,0.0
Y,R,"[5, 8]",1.0,3.0,0.26801586151123047,1.844066858291626,0.5685229252562336,41.0,413.0,0.0
G,D,"[6, 8]",1.0,4.0,0.22296595573425293,1.8739700317382812,0.642393851738949,41.0,414.0,0.0
Y,R,"[6, 9]",1.0,5.0,0.24376702308654785,1.725127935409546,0.48413754722278884,41.0,415.0,0.0
Y,R,"[6, 10]",1.0,6.0,0.33794093132019043,1.8727259635925293,0.5234830069553413,41.0,416.0,0.0
B,L,"[6, 9]",0.0,6.0,0.2763359546661377,1.7242357730865479,0.44778799903370387,41.0,417.0,0.0
R,U,"[5, 9]",0.0,6.0,0.32281994819641113,1.8941209316253662,0.5583200831853212,41.0,418.0,0.0
G,D,"[6, 9]",0.0,6.0,0.41167593002319336,1.7523038387298584,0.344152075239091,41.0,419.0,0.0
B,L,"[6, 8]",0.0,6.0,0.4584681987762451,2.197723865509033,0.7416459311424293,41.0,420.0,0.0
,,"(6, 6)",,,,,,41.0,,
R,U,"[5, 6]",1.0,1.0,0.5523629188537598,3.944460868835449,0.26956911716071463,,421.0,0.0
Y,R,"[5, 7]",1.0,2.0,0.2773921489715576,1.895353078842163,0.6145572464812292,42.0,422.0,0.0
Y,R,"[5, 8]",-1.0,2.0,0.012635946273803711,5.762947082519531,0.6105475563204894,42.0,423.0,0.0
G,D,"[6, 8]",1.0,3.0,0.3323709964752197,1.9749112129211426,0.6523109512022036,42.0,424.0,0.0
Y,R,"[6, 9]",1.0,4.0,0.3229670524597168,2.0002360343933105,0.6691089013262876,42.0,425.0,0.0
G,D,"[7, 9]",0.0,4.0,0.29308199882507324,1.6241099834442139,0.3265809971841325,42.0,426.0,0.0
B,L,"[7, 8]",0.0,4.0,0.42851805686950684,2.053745985031128,0.6299432044581477,42.0,427.0,0.0
Y,R,"[7, 9]",0.0,4.0,0.24344182014465332,1.9442758560180664,0.6907490675709878,42.0,428.0,0.0
R,U,"[6, 9]",0.0,4.0,0.17333412170410156,1.7104589939117432,0.534839367959542,42.0,429.0,0.0
B,L,"[6, 8]",0.0,4.0,0.2894601821899414,1.673025131225586,0.37443491371136933,42.0,430.0,0.0
,,"(6, 6)",,,,,,42.0,,
R,U,"[5, 6]",1.0,1.0,0.8184850215911865,4.130515098571777,0.4050802174117471,,431.0,0.0
Y,R,"[5, 7]",1.0,2.0,0.4103541374206543,1.793989896774292,0.3822002478083479,43.0,432.0,0.0
G,D,"[6, 7]",0.0,2.0,0.24624300003051758,1.673799991607666,0.4226244977141345,43.0,433.0,0.0
Y,R,"[6, 8]",1.0,3.0,0.39487504959106445,1.6959710121154785,0.30191371357801666,43.0,434.0,0.0
B,L,"[6, 7]",0.0,3.0,0.5567150115966797,1.990203857421875,0.42542175874421206,43.0,435.0,0.0
R,U,"[5, 7]",0.0,3.0,0.23632597923278809,1.7057490348815918,0.46458701199071356,43.0,436.0,0.0
Y,R,"[5, 8]",1.0,4.0,0.32245516777038574,1.8968210220336914,0.5608279217700356,43.0,437.0,0.0
G,D,"[6, 8]",0.0,4.0,0.30610084533691406,1.8090009689331055,0.5033791871400175,43.0,438.0,0.0
B,L,"[6, 7]",0.0,4.0,0.26346302032470703,1.9909310340881348,0.7271735771642144,43.0,439.0,0.0
B,L,"[6, 6]",0.0,4.0,0.27613401412963867,1.7258901596069336,0.4533671724488671,43.0,440.0,0.0
,,"(6, 6)",,,,,,43.0,,
R,U,"[5, 6]",1.0,1.0,0.9389150142669678,4.570750951766968,0.6738293061104064,,441.0,0.0
Y,R,"[5, 7]",1.0,2.0,0.290233850479126,1.856471061706543,0.5635937952743271,44.0,442.0,0.0
G,D,"[6, 7]",0.0,2.0,0.30029892921447754,1.844792127609253,0.5417061236150486,44.0,443.0,0.0
Y,R,"[6, 8]",1.0,3.0,0.6199438571929932,2.1619739532470703,0.5368548372679354,44.0,444.0,0.0
G,D,"[7, 8]",0.0,3.0,0.25699591636657715,1.8379340171813965,0.5747727334834254,44.0,445.0,0.0
B,L,"[7, 7]",0.0,3.0,0.5549221038818359,2.0202691555023193,0.47847171824476775,44.0,446.0,0.0
Y,R,"[7, 8]",0.0,3.0,0.2722949981689453,1.7056641578674316,0.4340570925692321,44.0,447.0,0.0
R,U,"[6, 8]",0.0,3.0,0.2995579242706299,1.7643189430236816,0.46496359791010206,44.0,448.0,0.0
G,D,"[7, 8]",0.0,3.0,0.7608439922332764,2.207866907119751,0.43938291344717234,44.0,449.0,0.0
Y,R,"[7, 9]",0.0,3.0,0.45290088653564453,1.7979748249053955,0.35407559118047605,44.0,450.0,0.0
,,"(6, 6)",,,,,,44.0,,
R,U,"[5, 6]",1.0,1.0,0.5088341236114502,3.585623025894165,0.2730057700768471,,451.0,0.0
Y,R,"[5, 7]",1.0,2.0,0.45538997650146484,2.0012810230255127,0.5407563372689328,45.0,452.0,0.0
Y,R,"[5, 8]",1.0,3.0,0.2984459400177002,1.5702030658721924,0.277860904145617,45.0,453.0,0.0
G,D,"[6, 8]",1.0,4.0,0.35565900802612305,1.976958990097046,0.621065772644386,45.0,454.0,0.0
Y,R,"[6, 9]",1.0,5.0,0.31396007537841797,1.8024520874023438,0.4900162035123785,45.0,455.0,0.0
R,U,"[5, 9]",0.0,5.0,0.9532999992370605,2.572355031967163,0.6121596605678219,45.0,456.0,0.0
B,L,"[5, 8]",0.0,5.0,0.6879420280456543,2.1945831775665283,0.49036495023425447,45.0,457.0,0.0
G,D,"[6, 8]",0.0,5.0,0.3184819221496582,1.8657341003417969,0.5557855858322964,45.0,458.0,0.0
Y,R,"[6, 9]",0.0,5.0,0.3249800205230713,1.5817949771881104,0.2544818610949628,45.0,459.0,0.0
Y,R,"[6, 10]",1.0,6.0,0.5964269638061523,2.2198338508605957,0.6240425317360424,45.0,460.0,0.0
,,"(6, 6)",,,,,,45.0,,
R,U,"[5, 6]",1.0,1.0,0.9498260021209717,5.25610089302063,0.7299039418029809,,461.0,0.0
Y,R,"[5, 7]",1.0,2.0,0.19303297996520996,1.6883947849273682,0.48492369203992913,46.0,462.0,0.0
Y,R,"[5, 8]",1.0,3.0,0.2588160037994385,1.8207240104675293,0.5556393255176098,46.0,463.0,0.0
G,D,"[6, 8]",1.0,4.0,0.22107791900634766,1.6180109977722168,0.39031036805955044,46.0,464.0,0.0
Y,R,"[6, 9]",1.0,5.0,0.3042280673980713,1.564680814743042,0.2552574117635271,46.0,465.0,0.0
Y,R,"[6, 10]",1.0,6.0,0.6929278373718262,2.170305013656616,0.4751733983229965,46.0,466.0,0.0
B,L,"[6, 9]",0.0,6.0,0.510948896408081,1.8244130611419678,0.31622545816423697,46.0,467.0,0.0
R,U,"[5, 9]",0.0,6.0,0.3435227870941162,1.852553129196167,0.5021531509103792,46.0,468.0,0.0
Y,R,"[5, 10]",1.0,7.0,0.3016681671142578,2.017618179321289,0.7028287717427801,46.0,469.0,0.0
Y,R,"[5, 11]",0.0,7.0,0.2948169708251953,1.8192498683929443,0.5222713040699564,46.0,470.0,0.0
,,"(6, 6)",,,,,,46.0,,
R,U,"[5, 6]",1.0,1.0,0.6613619327545166,4.1086859703063965,0.5142335531853459,,471.0,0.0
Y,R,"[5, 7]",1.0,2.0,0.19782185554504395,1.628741979598999,0.4259817398277823,47.0,472.0,0.0
Y,R,"[5, 8]",1.0,3.0,0.25267696380615234,1.6810970306396484,0.4397020679808944,47.0,473.0,0.0
G,D,"[6, 8]",1.0,4.0,0.24535608291625977,1.7070610523223877,0.4642175348129697,47.0,474.0,0.0
Y,R,"[6, 9]",1.0,5.0,0.22364401817321777,1.5328562259674072,0.29724946300202065,47.0,475.0,0.0
Y,R,"[6, 10]",1.0,6.0,0.37935709953308105,1.7482399940490723,0.36193267918721606,47.0,476.0,0.0
B,L,"[6, 9]",0.0,6.0,0.3990628719329834,1.9890389442443848,0.6006520193601241,47.0,477.0,0.0
R,U,"[5, 9]",0.0,6.0,0.39603590965270996,1.8170621395111084,0.4178464887619092,47.0,478.0,0.0
Y,R,"[5, 10]",1.0,7.0,0.21914005279541016,1.4880270957946777,0.2559802813854734,47.0,479.0,0.0
Y,R,"[5, 11]",0.0,7.0,0.8014249801635742,2.2393100261688232,0.44505702153073046,47.0,480.0,0.0
,,"(6, 6)",,,,,,47.0,,
R,U,"[5, 6]",1.0,1.0,0.6660110950469971,4.8458521366119385,0.5905190132675217,,481.0,0.0
Y,R,"[5, 7]",1.0,2.0,0.17547297477722168,1.6861391067504883,0.5100766380997444,48.0,482.0,0.0
Y,R,"[5, 8]",1.0,3.0,0.20930814743041992,1.6428070068359375,0.4362703424559264,48.0,483.0,0.0
G,D,"[6, 8]",1.0,4.0,0.2210710048675537,1.5267870426177979,0.29643600433274425,48.0,484.0,0.0
Y,R,"[6, 9]",1.0,5.0,0.30472779273986816,1.669600009918213,0.34920154564632705,48.0,485.0,0.0
G,D,"[7, 9]",0.0,5.0,0.4819629192352295,2.149247884750366,0.6647232867698855,48.0,486.0,0.0
R,U,"[6, 9]",0.0,5.0,0.21895408630371094,1.9137468338012695,0.6783040997369989,48.0,487.0,0.0
Y,R,"[6, 10]",-1.0,5.0,0.09400010108947754,5.886406898498535,0.6646523960297965,48.0,488.0,0.0
Y,R,"[6, 11]",0.0,5.0,0.27376699447631836,1.8328588008880615,0.5475180119531058,48.0,489.0,0.0
B,L,"[6, 10]",0.0,5.0,0.3344440460205078,1.872572898864746,0.5367435985062561,48.0,490.0,0.0
,,"(6, 6)",,,,,,48.0,,
R,U,"[5, 6]",1.0,1.0,0.5773270130157471,3.8524158000946045,0.32263340117238365,,491.0,0.0
Y,R,"[5, 7]",1.0,2.0,0.32074594497680664,1.6546390056610107,0.3270854440941619,49.0,492.0,0.0
Y,R,"[5, 8]",1.0,3.0,0.4326620101928711,1.8335299491882324,0.39375616968817456,49.0,493.0,0.0
G,D,"[6, 8]",1.0,4.0,0.32741379737854004,1.9979901313781738,0.6752281419534516,49.0,494.0,0.0
Y,R,"[6, 9]",1.0,5.0,0.19237184524536133,1.5408830642700195,0.3493019579824636,49.0,495.0,0.0
R,U,"[5, 9]",0.0,5.0,0.41545987129211426,1.7788488864898682,0.36150790740378264,49.0,496.0,0.0
Y,R,"[5, 10]",1.0,6.0,0.573632001876831,1.9595599174499512,0.38750169247119387,49.0,497.0,0.0
B,L,"[5, 9]",0.0,6.0,0.2895848751068115,1.7224831581115723,0.426670703591085,49.0,498.0,0.0
B,L,"[5, 8]",0.0,6.0,0.2511601448059082,1.817307949066162,0.5771761071058515,49.0,499.0,0.0
G,D,"[6, 8]",0.0,6.0,0.5106930732727051,1.8148679733276367,0.30894949392056836,49.0,500.0,0.0
,,"(6, 6)",,,,,,49.0,,
R,U,"[5, 6]",1.0,1.0,0.9084250926971436,5.304845094680786,0.3969560290248319,,501.0,0.0
Y,R,"[5, 7]",1.0,2.0,0.22214102745056152,1.554995059967041,0.3183735981523807,50.0,502.0,0.0
Y,R,"[5, 8]",1.0,3.0,0.21608805656433105,1.4751169681549072,0.26014426464333973,50.0,503.0,0.0
G,D,"[6, 8]",1.0,4.0,0.31034111976623535,1.928659200668335,0.621750762267847,50.0,504.0,0.0
Y,R,"[6, 9]",1.0,5.0,0.22112393379211426,1.6734199523925781,0.44542278838227667,50.0,505.0,0.0
Y,R,"[6, 10]",1.0,6.0,0.23444294929504395,1.8867387771606445,0.6488033832784414,50.0,506.0,0.0
R,U,"[5, 10]",1.0,7.0,0.3692331314086914,1.7846760749816895,0.4165582007981748,50.0,507.0,0.0
B,L,"[5, 9]",0.0,7.0,0.3919241428375244,1.9867398738861084,0.5864201670469782,50.0,508.0,0.0
Y,R,"[5, 10]",0.0,7.0,0.2174820899963379,1.56843900680542,0.3551529537140992,50.0,509.0,0.0
Y,R,"[5, 11]",0.0,7.0,0.46094202995300293,1.9190630912780762,0.45734175814891354,50.0,510.0,0.0
,,"(6, 6)",,,,,,50.0,,
R,U,"[5, 6]",1.0,1.0,0.7563879489898682,4.266388177871704,0.44031796114879573,,511.0,0.0
Y,R,"[5, 7]",1.0,2.0,0.26182079315185547,1.9902119636535645,0.7302633931002546,51.0,512.0,0.0
Y,R,"[5, 8]",-1.0,2.0,0.04367494583129883,5.419713020324707,0.2500291705610436,51.0,513.0,0.0
G,D,"[6, 8]",1.0,3.0,0.32471489906311035,1.7847461700439453,0.45125639058931616,51.0,514.0,0.0
Y,R,"[6, 9]",1.0,4.0,0.2602381706237793,1.6228349208831787,0.35744121374091786,51.0,515.0,0.0
Y,R,"[6, 10]",1.0,5.0,0.4328930377960205,2.0300159454345703,0.6038988987408979,51.0,516.0,0.0
R,U,"[5, 10]",1.0,6.0,0.19014191627502441,1.5304360389709473,0.334632752390461,51.0,517.0,0.0
Y,R,"[5, 11]",0.0,6.0,0.42682909965515137,2.1118080615997314,0.6792635309551326,51.0,518.0,0.0
B,L,"[5, 10]",0.0,6.0,0.4290950298309326,1.9988231658935547,0.5615781416046868,51.0,519.0,0.0
B,L,"[5, 9]",0.0,6.0,0.3457930088043213,1.9245529174804688,0.5860147458984603,51.0,520.0,0.0
,,"(6, 6)",,,,,,51.0,,
R,U,"[5, 6]",1.0,1.0,0.6879150867462158,4.17512583732605,0.6442297323765159,,521.0,0.0
Y,R,"[5, 7]",1.0,2.0,0.18892502784729004,1.7995250225067139,0.6104537272959873,52.0,522.0,0.0
Y,R,"[5, 8]",1.0,3.0,0.16097211837768555,1.588076114654541,0.4319621077383621,52.0,523.0,0.0
G,D,"[6, 8]",1.0,4.0,0.4186739921569824,1.8119170665740967,0.39384009020042515,52.0,524.0,0.0
Y,R,"[6, 9]",1.0,5.0,0.27665114402770996,1.9868969917297363,0.7137268964960093,52.0,525.0,0.0
Y,R,"[6, 10]",1.0,6.0,0.23050904273986816,1.8271749019622803,0.5908021513670618,52.0,526.0,0.0
R,U,"[5, 10]",1.0,7.0,0.22692203521728516,1.9337201118469238,0.7077871756988791,52.0,527.0,0.0
B,L,"[5, 9]",0.0,7.0,0.21757102012634277,1.8500559329986572,0.6413080775505481,52.0,528.0,0.0
B,L,"[5, 8]",0.0,7.0,0.7315449714660645,2.280367851257324,0.5547766795258808,52.0,529.0,0.0
Y,R,"[5, 9]",0.0,7.0,0.5061478614807129,2.2349228858947754,0.7230005059771936,52.0,530.0,0.0
,,"(6, 6)",,,,,,52.0,,
R,U,"[5, 6]",1.0,1.0,0.48624682426452637,4.430080890655518,0.6861134929714685,,531.0,0.0
Y,R,"[5, 7]",1.0,2.0,0.2024857997894287,1.9220690727233887,0.708220538794234,53.0,532.0,0.0
Y,R,"[5, 8]",1.0,3.0,0.1526780128479004,1.7059061527252197,0.5475878360651445,53.0,533.0,0.0
G,D,"[6, 8]",1.0,4.0,0.18692302703857422,1.6763930320739746,0.4739891565019247,53.0,534.0,0.0
Y,R,"[6, 9]",1.0,5.0,0.20237398147583008,1.8910410404205322,0.6979482968168531,53.0,535.0,0.0
Y,R,"[6, 10]",-1.0,5.0,0.04064583778381348,5.858690023422241,0.6898712388675654,53.0,536.0,0.0
R,U,"[5, 10]",1.0,6.0,0.27521300315856934,1.535783052444458,0.25944245371218444,53.0,537.0,0.0
G,D,"[6, 10]",0.0,6.0,0.49788498878479004,1.7471370697021484,0.2564236299336667,53.0,538.0,0.0
B,L,"[6, 9]",0.0,6.0,0.5057768821716309,1.9724500179290771,0.462000693627749,53.0,539.0,0.0
R,U,"[5, 9]",0.0,6.0,0.2161870002746582,1.468080997467041,0.26354755611186115,53.0,540.0,0.0
,,"(6, 6)",,,,,,53.0,,
R,U,"[5, 6]",1.0,1.0,0.5224330425262451,4.170111894607544,0.7331122903074784,,541.0,0.0
Y,R,"[5, 7]",1.0,2.0,0.24111008644104004,1.81050705909729,0.560385875408135,54.0,542.0,0.0
Y,R,"[5, 8]",1.0,3.0,0.28403592109680176,1.811776876449585,0.5219933924730085,54.0,543.0,0.0
G,D,"[6, 8]",1.0,4.0,0.45455193519592285,1.8438069820404053,0.38280163218517016,54.0,544.0,0.0
Y,R,"[6, 9]",1.0,5.0,0.21342706680297852,1.8228750228881836,0.6054235547591182,54.0,545.0,0.0
Y,R,"[6, 10]",1.0,6.0,0.1885991096496582,1.7024471759796143,0.5076132653743559,54.0,546.0,0.0
R,U,"[5, 10]",1.0,7.0,0.25553297996520996,1.5879459381103516,0.3290509521136328,54.0,547.0,0.0
B,L,"[5, 9]",0.0,7.0,0.5802311897277832,2.036341905593872,0.4319751630175292,54.0,548.0,0.0
G,D,"[6, 9]",0.0,7.0,0.2914001941680908,1.924225091934204,0.6227402442021525,54.0,549.0,0.0
Y,R,"[6, 10]",0.0,7.0,0.25742006301879883,1.8206698894500732,0.5599931406002872,54.0,550.0,0.0
,,"(6, 6)",,,,,,54.0,,
R,U,"[5, 6]",1.0,1.0,0.509289026260376,4.055215120315552,0.31528617742232995,,551.0,0.0
Y,R,"[5, 7]",1.0,2.0,0.23008298873901367,1.861008882522583,0.6260107022354151,55.0,552.0,0.0
Y,R,"[5, 8]",1.0,3.0,0.15904712677001953,1.6061770915985107,0.44892305098204044,55.0,553.0,0.0
G,D,"[6, 8]",1.0,4.0,0.23625397682189941,1.9273490905761719,0.675997911000859,55.0,554.0,0.0
Y,R,"[6, 9]",1.0,5.0,0.181779146194458,1.6847929954528809,0.5107127599324923,55.0,555.0,0.0
Y,R,"[6, 10]",1.0,6.0,0.22226214408874512,1.6770961284637451,0.45466574598782866,55.0,556.0,0.0
R,U,"[5, 10]",1.0,7.0,0.23416590690612793,1.6270079612731934,0.38164356174448505,55.0,557.0,0.0
Y,R,"[5, 11]",0.0,7.0,0.23952198028564453,1.5959069728851318,0.3442739916554861,55.0,558.0,0.0
G,D,"[6, 11]",0.0,7.0,0.350208044052124,1.746964931488037,0.40762144548717905,55.0,559.0,0.0
Y,R,"[6, 12]",-3.0,7.0,0.5941870212554932,1.8549540042877197,0.2628905881791053,55.0,560.0,0.0
,,"(6, 6)",,,,,,55.0,,
R,U,"[5, 6]",1.0,1.0,0.58150315284729,5.362298965454102,0.6745003455863575,,561.0,0.0
Y,R,"[5, 7]",1.0,2.0,0.22234797477722168,1.6061968803405762,0.3809162865805799,56.0,562.0,0.0
Y,R,"[5, 8]",1.0,3.0,0.21966910362243652,1.5042479038238525,0.2684067326129185,56.0,563.0,0.0
G,D,"[6, 8]",1.0,4.0,0.26395392417907715,1.6487619876861572,0.3839006846942067,56.0,564.0,0.0
Y,R,"[6, 9]",1.0,5.0,0.18267416954040527,1.926976203918457,0.7269886654829746,56.0,565.0,0.0
Y,R,"[6, 10]",1.0,6.0,0.2321641445159912,1.7315330505371094,0.508696795855948,56.0,566.0,0.0
R,U,"[5, 10]",1.0,7.0,0.2666168212890625,1.8871681690216064,0.629097941691755,56.0,567.0,0.0
B,L,"[5, 9]",0.0,7.0,0.5427119731903076,1.8175439834594727,0.2636573641061664,56.0,568.0,0.0
G,D,"[6, 9]",0.0,7.0,0.951012134552002,2.4765758514404297,0.5230851933459705,56.0,569.0,0.0
G,D,"[7, 9]",0.0,7.0,0.2332909107208252,1.5061850547790527,0.27951149502315714,56.0,570.0,0.0
,,"(6, 6)",,,,,,56.0,,
R,U,"[5, 6]",1.0,1.0,0.5721549987792969,4.715139150619507,0.4775951889086032,,571.0,0.0
Y,R,"[5, 7]",1.0,2.0,0.19849205017089844,1.8510231971740723,0.6450412319617576,57.0,572.0,0.0
Y,R,"[5, 8]",1.0,3.0,0.23959803581237793,1.5486609935760498,0.3108300610035627,57.0,573.0,0.0
G,D,"[6, 8]",1.0,4.0,0.4733309745788574,1.8357079029083252,0.3631724199263153,57.0,574.0,0.0
Y,R,"[6, 9]",1.0,5.0,0.33542490005493164,1.9222328662872314,0.5849720644225459,57.0,575.0,0.0
Y,R,"[6, 10]",1.0,6.0,0.34479784965515137,2.020266056060791,0.6719135040014704,57.0,576.0,0.0
G,D,"[7, 10]",0.0,6.0,0.22392702102661133,1.5597059726715088,0.33169618197021755,57.0,577.0,0.0
B,L,"[7, 9]",0.0,6.0,0.7061901092529297,2.147939920425415,0.4294927453312722,57.0,578.0,0.0
Y,R,"[7, 10]",0.0,6.0,0.23225903511047363,1.6064050197601318,0.3691680992742889,57.0,579.0,0.0
R,U,"[6, 10]",0.0,6.0,0.252147912979126,1.5950169563293457,0.34765376585770025,57.0,580.0,0.0
,,"(6, 6)",,,,,,57.0,,
R,U,"[5, 6]",1.0,1.0,0.5238211154937744,3.4653549194335938,0.2796499783544328,,581.0,0.0
Y,R,"[5, 7]",1.0,2.0,0.2533988952636719,1.9303719997406006,0.6761234389811259,58.0,582.0,0.0
Y,R,"[5, 8]",1.0,3.0,0.11887502670288086,1.807408094406128,0.7002498408169637,58.0,583.0,0.0
G,D,"[6, 8]",1.0,4.0,0.17009186744689941,1.4845020771026611,0.3015350638349528,58.0,584.0,0.0
Y,R,"[6, 9]",1.0,5.0,0.7677321434020996,2.4716949462890625,0.6894970873388662,58.0,585.0,0.0
Y,R,"[6, 10]",1.0,6.0,0.2099761962890625,1.6461069583892822,0.43578264517603366,58.0,586.0,0.0
R,U,"[5, 10]",1.0,7.0,0.5450129508972168,1.844433069229126,0.2972022004173957,58.0,587.0,0.0
Y,R,"[5, 11]",0.0,7.0,0.3439319133758545,1.6517369747161865,0.2987875798300304,58.0,588.0,0.0
B,L,"[5, 10]",0.0,7.0,0.5949790477752686,2.0226118564605713,0.4213105265344598,58.0,589.0,0.0
B,L,"[5, 9]",0.0,7.0,0.1929779052734375,1.5386381149291992,0.3431965432289085,58.0,590.0,0.0
,,"(6, 6)",,,,,,58.0,,
R,U,"[5, 6]",1.0,1.0,0.47609591484069824,4.100470066070557,0.693095973856064,,591.0,0.0
Y,R,"[5, 7]",1.0,2.0,0.1648859977722168,1.576612949371338,0.4033276131856965,59.0,592.0,0.0
Y,R,"[5, 8]",1.0,3.0,0.20131397247314453,1.8540880680084229,0.6569223707431042,59.0,593.0,0.0
G,D,"[6, 8]",1.0,4.0,0.2076120376586914,1.8926599025726318,0.6832924043864439,59.0,594.0,0.0
Y,R,"[6, 9]",1.0,5.0,0.17467498779296875,1.811095952987671,0.6273468236474533,59.0,595.0,0.0
Y,R,"[6, 10]",1.0,6.0,0.21542596817016602,1.539900779724121,0.3341408562997341,59.0,596.0,0.0
R,U,"[5, 10]",1.0,7.0,0.275252103805542,1.6425690650939941,0.3600387498263607,59.0,597.0,0.0
G,D,"[6, 10]",0.0,7.0,0.5220189094543457,2.052931070327759,0.5292891730438758,59.0,598.0,0.0
Y,R,"[6, 11]",0.0,7.0,0.8523509502410889,2.1739420890808105,0.3200773595428789,59.0,599.0,0.0
R,U,"[5, 11]",0.0,7.0,0.4877510070800781,2.017585039138794,0.5209419120977017,59.0,600.0,0.0
,,"(6, 6)",,,,,,59.0,,
R,U,"[5, 6]",1.0,1.0,0.5738160610198975,3.4816222190856934,0.28592825260820126,,601.0,0.0
Y,R,"[5, 7]",1.0,2.0,0.28186511993408203,1.6218640804290771,0.3242142421275305,60.0,602.0,0.0
Y,R,"[5, 8]",1.0,3.0,0.2388601303100586,1.5010900497436523,0.25858731133140256,60.0,603.0,0.0
G,D,"[6, 8]",1.0,4.0,0.2708730697631836,1.9776420593261719,0.7026431950825001,60.0,604.0,0.0
Y,R,"[6, 9]",-1.0,4.0,0.08147382736206055,5.646138906478882,0.4322692583224555,60.0,605.0,0.0
Y,R,"[6, 10]",1.0,5.0,0.3064138889312744,1.871537208557129,0.5535677866894237,60.0,606.0,0.0
R,U,"[5, 10]",1.0,6.0,0.24264812469482422,1.7548151016235352,0.5081911321826579,60.0,607.0,0.0
R,U,"[4, 10]",1.0,7.0,0.2586028575897217,1.5902791023254395,0.33203801592752125,60.0,608.0,0.0
Y,R,"[4, 11]",0.0,7.0,0.4065520763397217,1.8170981407165527,0.3991544067407364,60.0,609.0,0.0
G,D,"[5, 11]",0.0,7.0,0.9248969554901123,2.329576015472412,0.3950534794024013,60.0,610.0,0.0
,,"(6, 6)",,,,,,60.0,,
R,U,"[5, 6]",1.0,1.0,0.6306760311126709,4.316899061203003,0.5452643952493834,,611.0,0.0
Y,R,"[5, 7]",1.0,2.0,0.2186129093170166,1.864729881286621,0.6596589560365416,61.0,612.0,0.0
Y,R,"[5, 8]",1.0,3.0,0.22990703582763672,1.6418099403381348,0.41832805676913465,61.0,613.0,0.0
G,D,"[6, 8]",1.0,4.0,0.28481292724609375,2.0040221214294434,0.7054104645073092,61.0,614.0,0.0
Y,R,"[6, 9]",1.0,5.0,0.2379300594329834,1.7623319625854492,0.5180111881082838,61.0,615.0,0.0
Y,R,"[6, 10]",1.0,6.0,0.4019649028778076,2.149998188018799,0.7341803232709048,61.0,616.0,0.0
R,U,"[5, 10]",1.0,7.0,0.25771403312683105,1.5870530605316162,0.3216069227021612,61.0,617.0,0.0
R,U,"[4, 10]",1.0,8.0,0.5549569129943848,2.060899019241333,0.498947304564878,61.0,618.0,0.0
B,L,"[4, 9]",1.0,9.0,0.37287187576293945,1.9061558246612549,0.5216045452323987,61.0,619.0,0.0
R,U,"[3, 9]",1.0,10.0,0.8929619789123535,2.457998037338257,0.5628182633305033,61.0,620.0,0.0
,,"(6, 6)",,,,,,61.0,,
R,U,"[5, 6]",1.0,1.0,0.6351108551025391,4.928972959518433,0.6084235406940799,,621.0,0.0
Y,R,"[5, 7]",1.0,2.0,0.17759013175964355,1.5504851341247559,0.37555998885075825,62.0,622.0,0.0
Y,R,"[5, 8]",1.0,3.0,0.2875790596008301,1.9600090980529785,0.6853034276630328,62.0,623.0,0.0
G,D,"[6, 8]",1.0,4.0,0.25380802154541016,1.5606579780578613,0.2963157958931182,62.0,624.0,0.0
Y,R,"[6, 9]",1.0,5.0,0.413053035736084,2.0807549953460693,0.6598316505523991,62.0,625.0,0.0
R,U,"[5, 9]",0.0,5.0,0.24137115478515625,1.838047981262207,0.5980058293948773,62.0,626.0,0.0
R,U,"[4, 9]",1.0,6.0,0.6783061027526855,2.018933057785034,0.3337949202183262,62.0,627.0,0.0
B,L,"[4, 8]",0.0,6.0,0.6216559410095215,2.064418077468872,0.4315651345321141,62.0,628.0,0.0
B,L,"[4, 7]",-2.0,6.0,1.1439459323883057,2.7488491535186768,0.5635079381378094,62.0,629.0,0.0
G,D,"[5, 7]",-2.0,6.0,1.0979149341583252,2.6402339935302734,0.503471258009842,62.0,630.0,0.0
,,"(6, 6)",,,,,,62.0,,
R,U,"[5, 6]",1.0,1.0,0.6095759868621826,4.098707914352417,0.3355722958267941,,631.0,0.0
Y,R,"[5, 7]",1.0,2.0,0.22050714492797852,1.7095060348510742,0.4781486408339286,63.0,632.0,0.0
Y,R,"[5, 8]",1.0,3.0,0.26938390731811523,1.9884459972381592,0.7330820526909831,63.0,633.0,0.0
G,D,"[6, 8]",1.0,4.0,0.22635793685913086,1.7352509498596191,0.5018186933750421,63.0,634.0,0.0
Y,R,"[6, 9]",1.0,5.0,0.2744140625,2.0069549083709717,0.725571663288531,63.0,635.0,0.0
R,U,"[5, 9]",0.0,5.0,0.24711298942565918,1.7114121913909912,0.4701998120674447,63.0,636.0,0.0
R,U,"[4, 9]",-2.0,5.0,1.233280897140503,2.6310160160064697,0.36763759309809474,63.0,637.0,0.0
B,L,"[4, 8]",0.0,5.0,0.7219028472900391,2.12860107421875,0.3962533969612199,63.0,638.0,0.0
Y,R,"[4, 9]",0.0,5.0,0.39072585105895996,2.04343581199646,0.6397099987558192,63.0,639.0,0.0
G,D,"[5, 9]",0.0,5.0,0.22732901573181152,1.8343029022216797,0.6069892034136646,63.0,640.0,0.0
,,"(6, 6)",,,,,,63.0,,
R,U,"[5, 6]",1.0,1.0,0.5128068923950195,3.3998239040374756,0.3736328101602987,,641.0,0.0
Y,R,"[5, 7]",1.0,2.0,0.2489171028137207,1.6867918968200684,0.42698567511840796,64.0,642.0,0.0
Y,R,"[5, 8]",1.0,3.0,0.23539996147155762,1.7285540103912354,0.48877760091672445,64.0,643.0,0.0
G,D,"[6, 8]",1.0,4.0,0.45606422424316406,1.8450710773468018,0.38378031649924527,64.0,644.0,0.0
Y,R,"[6, 9]",1.0,5.0,0.26001787185668945,1.9039630889892578,0.6379273582270699,64.0,645.0,0.0
Y,R,"[6, 10]",1.0,6.0,0.20268702507019043,1.9458611011505127,0.7332253341007218,64.0,646.0,0.0
R,U,"[5, 10]",1.0,7.0,0.23897218704223633,1.912707805633545,0.6624915889960317,64.0,647.0,0.0
R,U,"[4, 10]",1.0,8.0,0.230241060256958,1.4990758895874023,0.26194212785937465,64.0,648.0,0.0
B,L,"[4, 9]",1.0,9.0,0.408282995223999,2.022392988204956,0.6341176567599379,64.0,649.0,0.0
R,U,"[3, 9]",1.0,10.0,0.2322390079498291,1.8622760772705078,0.6132392431351876,64.0,650.0,0.0
,,"(6, 6)",,,,,,64.0,,
R,U,"[5, 6]",1.0,1.0,0.5706579685211182,3.5938549041748047,0.3071155863334848,,651.0,0.0
Y,R,"[5, 7]",1.0,2.0,0.26766085624694824,1.8929359912872314,0.632991630703118,65.0,652.0,0.0
Y,R,"[5, 8]",1.0,3.0,0.1836719512939453,1.6894090175628662,0.48914683192275976,65.0,653.0,0.0
G,D,"[6, 8]",1.0,4.0,0.2250819206237793,1.8365819454193115,0.6087093788129831,65.0,654.0,0.0
Y,R,"[6, 9]",1.0,5.0,0.20975399017333984,1.9442138671875,0.7359836229193525,65.0,655.0,0.0
Y,R,"[6, 10]",1.0,6.0,0.19793415069580078,1.8392930030822754,0.6420304942399324,65.0,656.0,0.0
R,U,"[5, 10]",1.0,7.0,0.24136114120483398,1.75376296043396,0.512574732795678,65.0,657.0,0.0
R,U,"[4, 10]",1.0,8.0,0.2528660297393799,1.9252610206604004,0.6544520199233212,65.0,658.0,0.0
B,L,"[4, 9]",1.0,9.0,0.23059320449829102,1.5794949531555176,0.350904277762563,65.0,659.0,0.0
R,U,"[3, 9]",1.0,10.0,0.27654600143432617,1.655879020690918,0.3731699332177648,65.0,660.0,0.0
,,"(6, 6)",,,,,,65.0,,
R,U,"[5, 6]",1.0,1.0,0.5717968940734863,3.9478540420532227,0.7369613540265929,,661.0,0.0
Y,R,"[5, 7]",1.0,2.0,0.12315583229064941,1.4869799613952637,0.3578745962966947,66.0,662.0,0.0
Y,R,"[5, 8]",1.0,3.0,0.24416208267211914,1.548340082168579,0.30611760540775357,66.0,663.0,0.0
G,D,"[6, 8]",1.0,4.0,0.2652750015258789,1.6579439640045166,0.3805966116504325,66.0,664.0,0.0
Y,R,"[6, 9]",1.0,5.0,0.20248913764953613,1.9640119075775146,0.7441748933936152,66.0,665.0,0.0
Y,R,"[6, 10]",1.0,6.0,0.15938997268676758,1.718966007232666,0.563238310679419,66.0,666.0,0.0
R,U,"[5, 10]",1.0,7.0,0.1840808391571045,1.9366371631622314,0.7331667527119579,66.0,667.0,0.0
B,L,"[5, 9]",0.0,7.0,0.2566380500793457,1.5854310989379883,0.3188940815622446,66.0,668.0,0.0
B,L,"[5, 8]",0.0,7.0,0.5233581066131592,1.780951976776123,0.25004851487956764,66.0,669.0,0.0
R,U,"[4, 8]",0.0,7.0,0.500985860824585,2.2337279319763184,0.733233607243229,66.0,670.0,0.0
,,"(6, 6)",,,,,,66.0,,
R,U,"[5, 6]",1.0,1.0,0.4884629249572754,2.906619071960449,0.2732213811961503,,671.0,0.0
Y,R,"[5, 7]",1.0,2.0,0.30649614334106445,1.8199827671051025,0.5095861514057686,67.0,672.0,0.0
Y,R,"[5, 8]",1.0,3.0,0.2089099884033203,1.6927340030670166,0.4856542432790347,67.0,673.0,0.0
G,D,"[6, 8]",1.0,4.0,0.6367809772491455,2.1179940700531006,0.47038057341051154,67.0,674.0,0.0
Y,R,"[6, 9]",1.0,5.0,0.24419808387756348,1.7888989448547363,0.5425139868819677,67.0,675.0,0.0
Y,R,"[6, 10]",1.0,6.0,0.22783517837524414,1.7286279201507568,0.5044160180705319,67.0,676.0,0.0
G,D,"[7, 10]",-2.0,6.0,1.1160149574279785,2.7462570667266846,0.6005672084502691,67.0,677.0,0.0
R,U,"[6, 10]",0.0,6.0,0.44241905212402344,2.0131921768188477,0.5635549371682165,67.0,678.0,0.0
R,U,"[5, 10]",1.0,7.0,0.2047419548034668,1.5218620300292969,0.3189217188609422,67.0,679.0,0.0
B,L,"[5, 9]",0.0,7.0,0.391279935836792,1.8028180599212646,0.40525811393236005,67.0,680.0,0.0
,,"(6, 6)",,,,,,67.0,,
R,U,"[5, 6]",1.0,1.0,0.4401099681854248,3.7151618003845215,0.6698464410872009,,681.0,0.0
Y,R,"[5, 7]",1.0,2.0,0.21744799613952637,1.7070441246032715,0.47690973450995533,68.0,682.0,0.0
Y,R,"[5, 8]",1.0,3.0,0.21835112571716309,1.8495121002197266,0.642845950906165,68.0,683.0,0.0
G,D,"[6, 8]",1.0,4.0,0.2141890525817871,1.5259439945220947,0.3191807541585616,68.0,684.0,0.0
Y,R,"[6, 9]",1.0,5.0,0.31382203102111816,1.9483861923217773,0.6340210898297478,68.0,685.0,0.0
Y,R,"[6, 10]",1.0,6.0,0.2460649013519287,1.7557079792022705,0.5063178379721756,68.0,686.0,0.0
R,U,"[5, 10]",1.0,7.0,0.5488770008087158,1.9950308799743652,0.4512166874816867,68.0,687.0,0.0
R,U,"[4, 10]",1.0,8.0,0.7198660373687744,2.171487808227539,0.43919781183676676,68.0,688.0,0.0
B,L,"[4, 9]",1.0,9.0,0.31125497817993164,1.6433489322662354,0.3329574209225873,68.0,689.0,0.0
R,U,"[3, 9]",1.0,10.0,0.4079890251159668,1.8430039882659912,0.42582797964706515,68.0,690.0,0.0
,,"(6, 6)",,,,,,68.0,,
R,U,"[5, 6]",1.0,1.0,0.4734468460083008,2.8786511421203613,0.6372381661347215,,691.0,0.0
Y,R,"[5, 7]",1.0,2.0,0.15492010116577148,1.8100550174713135,0.6638833512994091,69.0,692.0,0.0
Y,R,"[5, 8]",1.0,3.0,0.27957892417907715,1.958745002746582,0.6726460660252471,69.0,693.0,0.0
G,D,"[6, 8]",1.0,4.0,0.22068405151367188,1.8789219856262207,0.6514108092802108,69.0,694.0,0.0
Y,R,"[6, 9]",1.0,5.0,0.22319507598876953,1.8344569206237793,0.6026393239449297,69.0,695.0,0.0
Y,R,"[6, 10]",1.0,6.0,0.21886992454528809,1.798017978668213,0.5839964258174551,69.0,696.0,0.0
R,U,"[5, 10]",1.0,7.0,0.276777982711792,1.755174160003662,0.4726270643812427,69.0,697.0,0.0
R,U,"[4, 10]",1.0,8.0,0.26382994651794434,1.575531005859375,0.31483067804003734,69.0,698.0,0.0
B,L,"[4, 9]",1.0,9.0,0.38741302490234375,1.686110019683838,0.28413717746137807,69.0,699.0,0.0
R,U,"[3, 9]",1.0,10.0,0.27298402786254883,1.6015880107879639,0.3189992024197189,69.0,700.0,0.0
,,"(6, 6)",,,,,,69.0,,
R,U,"[5, 6]",1.0,1.0,0.46344900131225586,2.9893181324005127,0.5081023758032022,,701.0,0.0
Y,R,"[5, 7]",1.0,2.0,0.2216501235961914,1.931941032409668,0.7063232001110473,70.0,702.0,0.0
Y,R,"[5, 8]",1.0,3.0,0.1484818458557129,1.534740924835205,0.3914058362583893,70.0,703.0,0.0
G,D,"[6, 8]",1.0,4.0,0.20396709442138672,1.8812060356140137,0.6723595409000624,70.0,704.0,0.0
Y,R,"[6, 9]",1.0,5.0,0.15501689910888672,1.6413140296936035,0.4805363329038715,70.0,705.0,0.0
Y,R,"[6, 10]",1.0,6.0,0.23654413223266602,1.9012010097503662,0.6647239368065037,70.0,706.0,0.0
R,U,"[5, 10]",1.0,7.0,0.8995010852813721,2.3107059001922607,0.39236536207858563,70.0,707.0,0.0
R,U,"[4, 10]",1.0,8.0,0.6194698810577393,2.058183193206787,0.43385335054436,70.0,708.0,0.0
B,L,"[4, 9]",1.0,9.0,0.46576404571533203,1.8408889770507812,0.374480137649266,70.0,709.0,0.0
R,U,"[3, 9]",1.0,10.0,0.2775540351867676,1.9511048793792725,0.6753392950776196,70.0,710.0,0.0
,,"(6, 6)",,,,,,70.0,,
R,U,"[5, 6]",1.0,1.0,0.4877159595489502,3.160761833190918,0.6528706683486466,,711.0,0.0
Y,R,"[5, 7]",1.0,2.0,0.11964011192321777,1.7519209384918213,0.6211558040205301,71.0,712.0,0.0
Y,R,"[5, 8]",1.0,3.0,0.26691603660583496,1.9176568984985352,0.6389251957283028,71.0,713.0,0.0
G,D,"[6, 8]",1.0,4.0,0.20197391510009766,1.6896932125091553,0.4786441555060535,71.0,714.0,0.0
Y,R,"[6, 9]",1.0,5.0,0.2746429443359375,1.8554599285125732,0.5838435668741384,71.0,715.0,0.0
Y,R,"[6, 10]",1.0,6.0,0.22290992736816406,1.5770659446716309,0.34454943302371466,71.0,716.0,0.0
R,U,"[5, 10]",1.0,7.0,0.3462200164794922,1.9207618236541748,0.5815606756572089,71.0,717.0,0.0
R,U,"[4, 10]",1.0,8.0,0.22817516326904297,1.5088748931884766,0.2741606567570119,71.0,718.0,0.0
B,L,"[4, 9]",1.0,9.0,0.38083600997924805,1.688066005706787,0.27896495376693015,71.0,719.0,0.0
R,U,"[3, 9]",1.0,10.0,0.33258485794067383,1.7177660465240479,0.37997759566406897,71.0,720.0,0.0
,,"(6, 6)",,,,,,71.0,,
R,U,"[5, 6]",1.0,1.0,0.4783608913421631,2.9174399375915527,0.5967655149806972,,721.0,0.0
Y,R,"[5, 7]",1.0,2.0,0.13474297523498535,1.6837151050567627,0.5304933028061662,72.0,722.0,0.0
Y,R,"[5, 8]",1.0,3.0,0.19796299934387207,1.8810651302337646,0.6614047946791045,72.0,723.0,0.0
G,D,"[6, 8]",1.0,4.0,0.17235398292541504,1.515995979309082,0.34431522880545595,72.0,724.0,0.0
Y,R,"[6, 9]",1.0,5.0,0.2917749881744385,1.6285381317138672,0.3396514500538052,72.0,725.0,0.0
Y,R,"[6, 10]",1.0,6.0,0.47833919525146484,2.077202081680298,0.5999587189986151,72.0,726.0,0.0
R,U,"[5, 10]",1.0,7.0,0.28819799423217773,1.7486050128936768,0.46500071513907115,72.0,727.0,0.0
R,U,"[4, 10]",1.0,8.0,0.24987006187438965,1.5799989700317383,0.32851432224026095,72.0,728.0,0.0
B,L,"[4, 9]",1.0,9.0,0.31160497665405273,1.7314419746398926,0.4267230627500183,72.0,729.0,0.0
R,U,"[3, 9]",1.0,10.0,0.22989702224731445,1.5586819648742676,0.33533924762432965,72.0,730.0,0.0
,,"(6, 6)",,,,,,72.0,,
R,U,"[5, 6]",1.0,1.0,0.3807530403137207,2.7489588260650635,0.4505999448150417,,731.0,0.0
Y,R,"[5, 7]",1.0,2.0,0.2442481517791748,1.722872018814087,0.47343272036223333,73.0,732.0,0.0
Y,R,"[5, 8]",-1.0,2.0,0.07633399963378906,5.546372175216675,0.3364005172749881,73.0,733.0,0.0
G,D,"[6, 8]",1.0,3.0,0.5934550762176514,2.0733890533447266,0.47623176082519464,73.0,734.0,0.0
Y,R,"[6, 9]",1.0,4.0,0.3068380355834961,1.826240062713623,0.5191332588082895,73.0,735.0,0.0
Y,R,"[6, 10]",1.0,5.0,0.20038199424743652,1.734814167022705,0.5205135958619632,73.0,736.0,0.0
R,U,"[5, 10]",1.0,6.0,0.22252392768859863,1.6095001697540283,0.3800688729760689,73.0,737.0,0.0
R,U,"[4, 10]",1.0,7.0,0.6234538555145264,2.037925958633423,0.41783669967295645,73.0,738.0,0.0
B,L,"[4, 9]",1.0,8.0,0.2538020610809326,1.604166030883789,0.3389741023917615,73.0,739.0,0.0
R,U,"[3, 9]",1.0,9.0,0.28989410400390625,1.5765550136566162,0.28220626781737324,73.0,740.0,0.0
,,"(6, 6)",,,,,,73.0,,
R,U,"[5, 6]",1.0,1.0,0.5948810577392578,3.6993539333343506,0.5643286425705807,,741.0,0.0
Y,R,"[5, 7]",1.0,2.0,0.18038296699523926,1.8409111499786377,0.6549713228103025,74.0,742.0,0.0
Y,R,"[5, 8]",1.0,3.0,0.20710492134094238,1.4839050769805908,0.27279838519149985,74.0,743.0,0.0
G,D,"[6, 8]",1.0,4.0,0.5077729225158691,2.0629308223724365,0.5518934345786349,74.0,744.0,0.0
Y,R,"[6, 9]",1.0,5.0,0.3509969711303711,1.6957199573516846,0.347757182355714,74.0,745.0,0.0
Y,R,"[6, 10]",1.0,6.0,0.4349939823150635,2.051582098007202,0.5990726089494054,74.0,746.0,0.0
G,D,"[7, 10]",0.0,6.0,0.2639620304107666,1.5813918113708496,0.3137965678767242,74.0,747.0,0.0
R,U,"[6, 10]",-2.0,6.0,1.6676440238952637,3.017504930496216,0.31454555193295136,74.0,748.0,0.0
B,L,"[6, 9]",0.0,6.0,0.524878978729248,1.7969942092895508,0.26170895345300577,74.0,749.0,0.0
R,U,"[5, 9]",0.0,6.0,0.26650309562683105,1.8510010242462158,0.5956760503513356,74.0,750.0,0.0
,,"(6, 6)",,,,,,74.0,,
R,U,"[5, 6]",1.0,1.0,0.3474729061126709,3.4465861320495605,0.5089063646509053,,751.0,0.0
Y,R,"[5, 7]",1.0,2.0,0.18468618392944336,1.4993700981140137,0.30833177056977107,75.0,752.0,0.0
Y,R,"[5, 8]",1.0,3.0,0.26143503189086914,1.8764560222625732,0.617801306979842,75.0,753.0,0.0
G,D,"[6, 8]",1.0,4.0,0.22406888008117676,1.5783071517944336,0.34638010965276217,75.0,754.0,0.0
Y,R,"[6, 9]",1.0,5.0,0.22965407371520996,1.6884219646453857,0.451400646709087,75.0,755.0,0.0
Y,R,"[6, 10]",1.0,6.0,0.2954111099243164,2.020298957824707,0.7213188832004818,75.0,756.0,0.0
G,D,"[7, 10]",-1.0,6.0,0.04046988487243652,5.487059116363525,0.32533943906613544,75.0,757.0,0.0
Y,R,"[7, 11]",0.0,6.0,0.3383200168609619,2.0728390216827393,0.7308656962351973,75.0,758.0,0.0
R,U,"[6, 11]",0.0,6.0,0.26885008811950684,1.9783179759979248,0.7090812571105825,75.0,759.0,0.0
R,U,"[5, 11]",0.0,6.0,0.22916698455810547,1.6423180103302002,0.4182787187626058,75.0,760.0,0.0
,,"(6, 6)",,,,,,75.0,,
R,U,"[5, 6]",1.0,1.0,0.48073601722717285,3.974116802215576,0.6753455518654081,,761.0,0.0
Y,R,"[5, 7]",1.0,2.0,0.20661711692810059,1.469238042831421,0.26161010412511826,76.0,762.0,0.0
Y,R,"[5, 8]",1.0,3.0,0.4888308048248291,2.1200969219207764,0.6312819076429881,76.0,763.0,0.0
G,D,"[6, 8]",1.0,4.0,0.2763490676879883,1.8775660991668701,0.5921417569098901,76.0,764.0,0.0
Y,R,"[6, 9]",1.0,5.0,0.2456660270690918,1.575098991394043,0.3342493031631415,76.0,765.0,0.0
Y,R,"[6, 10]",1.0,6.0,0.2802891731262207,1.5547609329223633,0.27233055438326403,76.0,766.0,0.0
R,U,"[5, 10]",-2.0,6.0,1.8093349933624268,3.2055561542510986,0.36103411885164416,76.0,767.0,0.0
Y,R,"[5, 11]",-2.0,6.0,1.1252450942993164,2.6295320987701416,0.47355653179317714,76.0,768.0,0.0
Y,R,"[5, 12]",-3.0,6.0,0.5518741607666016,1.898488998413086,0.35561987748576485,76.0,769.0,0.0
B,L,"[5, 11]",-2.0,6.0,1.0229370594024658,2.7347209453582764,0.6732662984280569,76.0,770.0,0.0
,,"(6, 6)",,,,,,76.0,,
R,U,"[5, 6]",-2.0,0.0,1.0704989433288574,8.701287031173706,0.3911285532620113,,771.0,0.0
Y,R,"[5, 7]",1.0,1.0,0.29657506942749023,1.724287986755371,0.43224285898459297,77.0,772.0,0.0
Y,R,"[5, 8]",1.0,2.0,0.423936128616333,1.9870591163635254,0.552256214121292,77.0,773.0,0.0
G,D,"[6, 8]",1.0,3.0,0.20269989967346191,1.587554931640625,0.37317403819079603,77.0,774.0,0.0
Y,R,"[6, 9]",1.0,4.0,0.24550795555114746,1.7911748886108398,0.5475195721482302,77.0,775.0,0.0
Y,R,"[6, 10]",1.0,5.0,0.19313287734985352,1.7317190170288086,0.5291326954732417,77.0,776.0,0.0
R,U,"[5, 10]",1.0,6.0,0.1850299835205078,1.9324679374694824,0.7280225409557053,77.0,777.0,0.0
Y,R,"[5, 11]",0.0,6.0,0.24219894409179688,1.6445698738098145,0.4062531624670018,77.0,778.0,0.0
B,L,"[5, 10]",0.0,6.0,0.27233195304870605,2.0134470462799072,0.7360250173734555,77.0,779.0,0.0
R,U,"[4, 10]",1.0,7.0,0.33063197135925293,1.8548130989074707,0.5241652963080985,77.0,780.0,0.0
,,"(6, 6)",,,,,,77.0,,
R,U,"[5, 6]",1.0,1.0,0.48532605171203613,3.6907079219818115,0.4981931505703527,,781.0,0.0
Y,R,"[5, 7]",1.0,2.0,0.2743189334869385,1.9088120460510254,0.6234901415999088,78.0,782.0,0.0
Y,R,"[5, 8]",1.0,3.0,0.21263599395751953,1.6163570880889893,0.4067533688410564,78.0,783.0,0.0
G,D,"[6, 8]",1.0,4.0,0.21473193168640137,1.5731821060180664,0.36336258108755515,78.0,784.0,0.0
Y,R,"[6, 9]",1.0,5.0,0.2572929859161377,1.9353489875793457,0.664575673852895,78.0,785.0,0.0
Y,R,"[6, 10]",1.0,6.0,0.1549539566040039,1.6183321475982666,0.44992280165884146,78.0,786.0,0.0
R,U,"[5, 10]",1.0,7.0,0.2752950191497803,1.98012113571167,0.6965223464526704,78.0,787.0,0.0
R,U,"[4, 10]",1.0,8.0,0.23189306259155273,1.6800620555877686,0.44363194805576256,78.0,788.0,0.0
B,L,"[4, 9]",1.0,9.0,0.24124813079833984,1.8444089889526367,0.6043393007658925,78.0,789.0,0.0
R,U,"[3, 9]",1.0,10.0,0.12258696556091309,1.5276620388031006,0.3990966989021843,78.0,790.0,0.0
,,"(6, 6)",,,,,,78.0,,
R,U,"[5, 6]",1.0,1.0,0.3785400390625,3.03761887550354,0.41952852405366553,,791.0,0.0
Y,R,"[5, 7]",1.0,2.0,0.2175581455230713,1.977482795715332,0.7465455891782221,79.0,792.0,0.0
Y,R,"[5, 8]",-1.0,2.0,0.04336404800415039,5.685080051422119,0.4985074075480929,79.0,793.0,0.0
G,D,"[6, 8]",1.0,3.0,0.5556659698486328,2.1525521278381348,0.5842203211393322,79.0,794.0,0.0
Y,R,"[6, 9]",1.0,4.0,0.1536719799041748,1.8739290237426758,0.7078630699877339,79.0,795.0,0.0
Y,R,"[6, 10]",1.0,5.0,0.20984697341918945,1.4874279499053955,0.2789513744204499,79.0,796.0,0.0
R,U,"[5, 10]",1.0,6.0,0.5115759372711182,1.9381790161132812,0.4338751603668503,79.0,797.0,0.0
Y,R,"[5, 11]",0.0,6.0,0.9285669326782227,2.4516801834106445,0.5185406095202535,79.0,798.0,0.0
R,U,"[4, 11]",0.0,6.0,0.5274951457977295,1.932370901107788,0.4010330129999329,79.0,799.0,0.0
R,U,"[3, 11]",0.0,6.0,0.34418702125549316,1.644423007965088,0.2955940211726738,79.0,800.0,0.0
,,"(6, 6)",,,,,,79.0,,
R,U,"[5, 6]",1.0,1.0,0.4987509250640869,2.955554962158203,0.40093782905004743,,801.0,0.0
Y,R,"[5, 7]",1.0,2.0,0.2380509376525879,1.9071431159973145,0.6412092858462316,80.0,802.0,0.0
Y,R,"[5, 8]",1.0,3.0,0.19301700592041016,1.5224499702453613,0.33036398280673496,80.0,803.0,0.0
G,D,"[6, 8]",1.0,4.0,0.3225870132446289,1.8282558917999268,0.4917360223252692,80.0,804.0,0.0
Y,R,"[6, 9]",1.0,5.0,0.5051529407501221,2.1680338382720947,0.6594580631026117,80.0,805.0,0.0
Y,R,"[6, 10]",1.0,6.0,0.21129298210144043,1.7423439025878906,0.5352049802521697,80.0,806.0,0.0
R,U,"[5, 10]",1.0,7.0,0.2444150447845459,1.9398438930511475,0.6918215990517371,80.0,807.0,0.0
R,U,"[4, 10]",1.0,8.0,0.1810321807861328,1.5941359996795654,0.4195091838553401,80.0,808.0,0.0
B,L,"[4, 9]",1.0,9.0,0.2590041160583496,2.0041699409484863,0.7396456351694651,80.0,809.0,0.0
R,U,"[3, 9]",1.0,10.0,0.1820380687713623,1.5961248874664307,0.4028391462950577,80.0,810.0,0.0
,,"(6, 6)",,,,,,80.0,,
R,U,"[5, 6]",1.0,1.0,0.5209190845489502,2.817915916442871,0.32078717352155445,,811.0,0.0
Y,R,"[5, 7]",1.0,2.0,0.2897508144378662,1.767298936843872,0.47113979519726557,81.0,812.0,0.0
Y,R,"[5, 8]",1.0,3.0,0.23865103721618652,1.8521339893341064,0.6063502360418271,81.0,813.0,0.0
G,D,"[6, 8]",1.0,4.0,0.2744259834289551,1.7805099487304688,0.5035674386829283,81.0,814.0,0.0
Y,R,"[6, 9]",1.0,5.0,0.28182411193847656,1.8303101062774658,0.5339013941025536,81.0,815.0,0.0
Y,R,"[6, 10]",1.0,6.0,0.22167277336120605,1.9249610900878906,0.6920148444298209,81.0,816.0,0.0
G,D,"[7, 10]",0.0,6.0,0.24701809883117676,1.6311538219451904,0.39025676368485707,81.0,817.0,0.0
R,U,"[6, 10]",0.0,6.0,0.7827441692352295,2.2153220176696777,0.4387239864156708,81.0,818.0,0.0
B,L,"[6, 9]",0.0,6.0,0.5578670501708984,2.0229198932647705,0.4614610781780388,81.0,819.0,0.0
R,U,"[5, 9]",0.0,6.0,0.18321800231933594,1.456732988357544,0.28488243706446637,81.0,820.0,0.0
,,"(6, 6)",,,,,,81.0,,
R,U,"[5, 6]",1.0,1.0,0.41347599029541016,3.4861981868743896,0.7372106083281971,,821.0,0.0
Y,R,"[5, 7]",1.0,2.0,0.1457219123840332,1.441072940826416,0.29544034266666325,82.0,822.0,0.0
Y,R,"[5, 8]",1.0,3.0,0.2828187942504883,1.6357691287994385,0.36437594416853303,82.0,823.0,0.0
G,D,"[6, 8]",1.0,4.0,0.39003515243530273,1.9054279327392578,0.5028055486085932,82.0,824.0,0.0
Y,R,"[6, 9]",1.0,5.0,0.26175808906555176,1.513746976852417,0.2500846710584858,82.0,825.0,0.0
Y,R,"[6, 10]",1.0,6.0,0.4680168628692627,2.139517068862915,0.6725854902149311,82.0,826.0,0.0
R,U,"[5, 10]",1.0,7.0,0.7746422290802002,2.4191360473632812,0.6416185975595944,82.0,827.0,0.0
R,U,"[4, 10]",1.0,8.0,0.20195484161376953,1.468885898590088,0.2607660463899367,82.0,828.0,0.0
B,L,"[4, 9]",1.0,9.0,0.35375285148620605,1.9520349502563477,0.5959168411733671,82.0,829.0,0.0
R,U,"[3, 9]",1.0,10.0,0.19260501861572266,1.927074909210205,0.7228965123485391,82.0,830.0,0.0
,,"(6, 6)",,,,,,82.0,,
R,U,"[5, 6]",1.0,1.0,0.4582350254058838,2.63930082321167,0.49549727036333396,,831.0,0.0
Y,R,"[5, 7]",1.0,2.0,0.22049212455749512,1.8380799293518066,0.6166874311826145,83.0,832.0,0.0
Y,R,"[5, 8]",1.0,3.0,0.19349312782287598,1.6278979778289795,0.4280788077050622,83.0,833.0,0.0
G,D,"[6, 8]",1.0,4.0,0.20192289352416992,1.7366230487823486,0.5311347112047992,83.0,834.0,0.0
Y,R,"[6, 9]",1.0,5.0,0.2197129726409912,1.849186897277832,0.6135963729383027,83.0,835.0,0.0
Y,R,"[6, 10]",1.0,6.0,0.16591620445251465,1.6529648303985596,0.46702169993380904,83.0,836.0,0.0
R,U,"[5, 10]",1.0,7.0,0.2036271095275879,1.9023690223693848,0.6853487234366542,83.0,837.0,0.0
R,U,"[4, 10]",1.0,8.0,0.21371197700500488,1.9478919506072998,0.7332466756426764,83.0,838.0,0.0
B,L,"[4, 9]",1.0,9.0,0.19261813163757324,1.7931509017944336,0.5931725557298232,83.0,839.0,0.0
R,U,"[3, 9]",-1.0,9.0,0.07662391662597656,5.602973937988281,0.3962822805951188,83.0,840.0,0.0
,,"(6, 6)",,,,,,83.0,,
R,U,"[5, 6]",1.0,1.0,0.5807769298553467,10.742833137512207,0.2552956216465602,,841.0,0.0
Y,R,"[5, 7]",1.0,2.0,0.3131370544433594,1.972494125366211,0.6607114920856223,84.0,842.0,0.0
Y,R,"[5, 8]",1.0,3.0,0.1415269374847412,1.762523889541626,0.6230516187657782,84.0,843.0,0.0
G,D,"[6, 8]",1.0,4.0,0.19481801986694336,1.6626169681549072,0.4691605221981119,84.0,844.0,0.0
Y,R,"[6, 9]",1.0,5.0,0.31998395919799805,1.8903491497039795,0.5593593239942869,84.0,845.0,0.0
Y,R,"[6, 10]",1.0,6.0,0.18284988403320312,1.833827018737793,0.6432838789578725,84.0,846.0,0.0
R,U,"[5, 10]",1.0,7.0,0.2502620220184326,1.8283979892730713,0.5716702727673604,84.0,847.0,0.0
R,U,"[4, 10]",1.0,8.0,0.18590188026428223,1.8397061824798584,0.6446814219171613,84.0,848.0,0.0
B,L,"[4, 9]",1.0,9.0,0.16666412353515625,1.6269159317016602,0.47173370120307545,84.0,849.0,0.0
R,U,"[3, 9]",1.0,10.0,0.21491098403930664,1.482724905014038,0.2709556171420969,84.0,850.0,0.0
,,"(6, 6)",,,,,,84.0,,
R,U,"[5, 6]",1.0,1.0,0.47061705589294434,2.512341022491455,0.6328657992910416,,851.0,0.0
Y,R,"[5, 7]",1.0,2.0,0.10709190368652344,1.8263330459594727,0.7090473532487391,85.0,852.0,0.0
Y,R,"[5, 8]",1.0,3.0,0.11660003662109375,1.4694600105285645,0.3455476953296817,85.0,853.0,0.0
G,D,"[6, 8]",1.0,4.0,0.24472594261169434,1.6403751373291016,0.40240598966163005,85.0,854.0,0.0
Y,R,"[6, 9]",1.0,5.0,0.2948129177093506,1.9011971950531006,0.6034989830360271,85.0,855.0,0.0
Y,R,"[6, 10]",1.0,6.0,0.18787407875061035,1.9406399726867676,0.7438424082337822,85.0,856.0,0.0
R,U,"[5, 10]",1.0,7.0,0.11752200126647949,1.6599960327148438,0.5539595730989537,85.0,857.0,0.0
R,U,"[4, 10]",1.0,8.0,0.2283329963684082,1.6581170558929443,0.42897761744603596,85.0,858.0,0.0
B,L,"[4, 9]",1.0,9.0,0.367595911026001,1.6684768199920654,0.31415978994151167,85.0,859.0,0.0
R,U,"[3, 9]",1.0,10.0,0.36321210861206055,1.829308032989502,0.4598913020746633,85.0,860.0,0.0
,,"(6, 6)",,,,,,85.0,,
R,U,"[5, 6]",1.0,1.0,0.5170800685882568,2.6536059379577637,0.7463534957292777,,861.0,0.0
Y,R,"[5, 7]",1.0,2.0,0.19427990913391113,1.5506479740142822,0.3474067033120629,86.0,862.0,0.0
Y,R,"[5, 8]",1.0,3.0,0.2929680347442627,1.8905460834503174,0.5875291906939494,86.0,863.0,0.0
G,D,"[6, 8]",1.0,4.0,0.3371610641479492,1.6784918308258057,0.33289898370457577,86.0,864.0,0.0
Y,R,"[6, 9]",1.0,5.0,0.4690890312194824,2.148338794708252,0.6642275580818597,86.0,865.0,0.0
Y,R,"[6, 10]",1.0,6.0,0.2150099277496338,1.851240873336792,0.6323685828882557,86.0,866.0,0.0
R,U,"[5, 10]",1.0,7.0,0.22703194618225098,1.6643500328063965,0.43016430858087384,86.0,867.0,0.0
R,U,"[4, 10]",1.0,8.0,0.2554490566253662,1.834831953048706,0.5646695885642675,86.0,868.0,0.0
B,L,"[4, 9]",1.0,9.0,0.23199915885925293,1.668910026550293,0.40045462902724005,86.0,869.0,0.0
R,U,"[3, 9]",1.0,10.0,0.20629310607910156,1.9101150035858154,0.6940128809034132,86.0,870.0,0.0
,,"(6, 6)",,,,,,86.0,,
R,U,"[5, 6]",1.0,1.0,0.3875560760498047,2.6359760761260986,0.5629151242193615,,871.0,0.0
Y,R,"[5, 7]",1.0,2.0,0.19629311561584473,1.608863115310669,0.4051961948575922,87.0,872.0,0.0
Y,R,"[5, 8]",1.0,3.0,0.20417404174804688,1.5745289325714111,0.362938585741598,87.0,873.0,0.0
G,D,"[6, 8]",1.0,4.0,0.29579806327819824,1.7037289142608643,0.40000885504331263,87.0,874.0,0.0
Y,R,"[6, 9]",1.0,5.0,0.24574899673461914,1.6705889701843262,0.4203626713509395,87.0,875.0,0.0
Y,R,"[6, 10]",1.0,6.0,0.23377180099487305,1.5130460262298584,0.2669821374071505,87.0,876.0,0.0
R,U,"[5, 10]",1.0,7.0,0.3543519973754883,2.0715320110321045,0.7045372838132788,87.0,877.0,0.0
R,U,"[4, 10]",1.0,8.0,0.1701951026916504,1.8543860912322998,0.6758604473690092,87.0,878.0,0.0
B,L,"[4, 9]",1.0,9.0,0.18266606330871582,1.8572759628295898,0.6663653730901641,87.0,879.0,0.0
R,U,"[3, 9]",-1.0,9.0,0.05296611785888672,5.851683855056763,0.6678664125621643,87.0,880.0,0.0
,,"(6, 6)",,,,,,87.0,,
R,U,"[5, 6]",1.0,1.0,0.40723204612731934,3.7317681312561035,0.6326859279378616,,881.0,0.0
Y,R,"[5, 7]",1.0,2.0,0.15076303482055664,1.7252700328826904,0.5580168195635096,88.0,882.0,0.0
Y,R,"[5, 8]",1.0,3.0,0.2748079299926758,1.5859160423278809,0.31072724650623956,88.0,883.0,0.0
G,D,"[6, 8]",1.0,4.0,0.2594449520111084,1.7466058731079102,0.4903652091181925,88.0,884.0,0.0
Y,R,"[6, 9]",1.0,5.0,0.20540404319763184,1.6432900428771973,0.4337752633881459,88.0,885.0,0.0
Y,R,"[6, 10]",1.0,6.0,0.35435009002685547,1.6866040229797363,0.32065807031042043,88.0,886.0,0.0
R,U,"[5, 10]",1.0,7.0,0.28681206703186035,1.695768117904663,0.39928695504104916,88.0,887.0,0.0
R,U,"[4, 10]",1.0,8.0,0.27292394638061523,1.7337119579315186,0.4497549610364514,88.0,888.0,0.0
B,L,"[4, 9]",1.0,9.0,0.32366418838500977,1.8777458667755127,0.543918786918203,88.0,889.0,0.0
R,U,"[3, 9]",1.0,10.0,0.1380610466003418,1.4895670413970947,0.3503052695478116,88.0,890.0,0.0
,,"(6, 6)",,,,,,88.0,,
R,U,"[5, 6]",1.0,1.0,0.47961997985839844,2.127060890197754,0.32732451414474245,,891.0,0.0
Y,R,"[5, 7]",1.0,2.0,0.28224802017211914,1.645240068435669,0.3558163649053576,89.0,892.0,0.0
Y,R,"[5, 8]",1.0,3.0,0.259235143661499,1.7420649528503418,0.48104904744290244,89.0,893.0,0.0
G,D,"[6, 8]",1.0,4.0,0.19726800918579102,1.8463270664215088,0.610430122492263,89.0,894.0,0.0
Y,R,"[6, 9]",1.0,5.0,0.11192607879638672,1.4846549034118652,0.37872953567382106,89.0,895.0,0.0
Y,R,"[6, 10]",1.0,6.0,0.22343707084655762,1.6081359386444092,0.3867023640361538,89.0,896.0,0.0
R,U,"[5, 10]",1.0,7.0,0.2536001205444336,1.6022498607635498,0.33890716011738836,89.0,897.0,0.0
R,U,"[4, 10]",1.0,8.0,0.26983213424682617,1.8791859149932861,0.6178750799936396,89.0,898.0,0.0
B,L,"[4, 9]",1.0,9.0,0.21550703048706055,1.7914819717407227,0.5592591120350499,89.0,899.0,0.0
R,U,"[3, 9]",1.0,10.0,0.24121809005737305,1.8665211200714111,0.6259427550270633,89.0,900.0,0.0
,,"(6, 6)",,,,,,89.0,,
R,U,"[5, 6]",1.0,1.0,0.36073899269104004,2.822824001312256,0.3820773113815086,,901.0,0.0
Y,R,"[5, 7]",1.0,2.0,0.2360539436340332,1.8889000415802002,0.6539881177088087,90.0,902.0,0.0
Y,R,"[5, 8]",1.0,3.0,0.18872904777526855,1.8900668621063232,0.6942500924913408,90.0,903.0,0.0
G,D,"[6, 8]",-1.0,3.0,0.0863180160522461,5.602115869522095,0.3960862139240298,90.0,904.0,0.0
Y,R,"[6, 9]",1.0,4.0,0.35244011878967285,1.8731768131256104,0.5191497326274641,90.0,905.0,0.0
Y,R,"[6, 10]",1.0,5.0,0.23582911491394043,1.5290989875793457,0.2816987841265229,90.0,906.0,0.0
R,U,"[5, 10]",1.0,6.0,0.22353696823120117,1.871877908706665,0.6365435549800311,90.0,907.0,0.0
R,U,"[4, 10]",1.0,7.0,0.14148497581481934,1.6070117950439453,0.46036048440913985,90.0,908.0,0.0
B,L,"[4, 9]",1.0,8.0,0.31278300285339355,1.6791059970855713,0.372874480477332,90.0,909.0,0.0
R,U,"[3, 9]",1.0,9.0,0.24883413314819336,2.0072779655456543,0.7464364526715497,90.0,910.0,0.0
,,"(6, 6)",,,,,,90.0,,
R,U,"[5, 6]",1.0,1.0,0.47890210151672363,2.6306560039520264,0.7436105188581965,,911.0,0.0
Y,R,"[5, 7]",-1.0,1.0,0.03926682472229004,5.641203880310059,0.4850577546328474,91.0,912.0,0.0
Y,R,"[5, 8]",1.0,2.0,0.3289320468902588,1.9025781154632568,0.5706929929547817,91.0,913.0,0.0
G,D,"[6, 8]",1.0,3.0,0.26973605155944824,1.8972399234771729,0.6343127164519076,91.0,914.0,0.0
Y,R,"[6, 9]",1.0,4.0,0.158782958984375,1.4772391319274902,0.31202821388329627,91.0,915.0,0.0
Y,R,"[6, 10]",1.0,5.0,0.30712389945983887,1.589627981185913,0.28496477671435255,91.0,916.0,0.0
R,U,"[5, 10]",1.0,6.0,0.34710693359375,1.6188290119171143,0.27025675054731396,91.0,917.0,0.0
R,U,"[4, 10]",1.0,7.0,0.3453810214996338,1.9969711303710938,0.6501853152657333,91.0,918.0,0.0
B,L,"[4, 9]",1.0,8.0,0.18534493446350098,1.8909730911254883,0.691038710680248,91.0,919.0,0.0
R,U,"[3, 9]",1.0,9.0,0.1940019130706787,1.8625590801239014,0.6703874711268812,91.0,920.0,0.0
,,"(6, 6)",,,,,,91.0,,
R,U,"[5, 6]",1.0,1.0,0.3723030090332031,2.4940052032470703,0.2810606092063849,,921.0,0.0
Y,R,"[5, 7]",1.0,2.0,0.2572519779205322,1.5988740921020508,0.3300103498874802,92.0,922.0,0.0
Y,R,"[5, 8]",1.0,3.0,0.19326305389404297,1.6483850479125977,0.44476490741067404,92.0,923.0,0.0
G,D,"[6, 8]",1.0,4.0,0.24417614936828613,1.9855740070343018,0.746825093608386,92.0,924.0,0.0
Y,R,"[6, 9]",1.0,5.0,0.19383502006530762,1.8965919017791748,0.6933666278056053,92.0,925.0,0.0
Y,R,"[6, 10]",1.0,6.0,0.12360596656799316,1.6898729801177979,0.5666979932589391,92.0,926.0,0.0
R,U,"[5, 10]",1.0,7.0,0.20642805099487305,1.6325998306274414,0.41599260907500746,92.0,927.0,0.0
R,U,"[4, 10]",1.0,8.0,0.2440319061279297,1.5777969360351562,0.32722959348078146,92.0,928.0,0.0
B,L,"[4, 9]",1.0,9.0,0.31646203994750977,1.8101670742034912,0.48711453228445795,92.0,929.0,0.0
R,U,"[3, 9]",1.0,10.0,0.2284870147705078,1.5973329544067383,0.3677709354611499,92.0,930.0,0.0
,,"(6, 6)",,,,,,92.0,,
R,U,"[5, 6]",1.0,1.0,0.5516159534454346,2.6209750175476074,0.3886931793205619,,931.0,0.0
Y,R,"[5, 7]",1.0,2.0,0.181121826171875,1.7881748676300049,0.609680616791062,93.0,932.0,0.0
Y,R,"[5, 8]",1.0,3.0,0.8546559810638428,2.371458053588867,0.5314557618286392,93.0,933.0,0.0
G,D,"[6, 8]",1.0,4.0,0.2872190475463867,2.024817943572998,0.7228574858089898,93.0,934.0,0.0
Y,R,"[6, 9]",1.0,5.0,0.13883399963378906,1.5691859722137451,0.42552637241665364,93.0,935.0,0.0
Y,R,"[6, 10]",1.0,6.0,0.18500590324401855,1.44834303855896,0.27380236469871094,93.0,936.0,0.0
R,U,"[5, 10]",1.0,7.0,0.3269209861755371,1.8397328853607178,0.5132281814887365,93.0,937.0,0.0
R,U,"[4, 10]",1.0,8.0,0.14182305335998535,1.6192448139190674,0.4657515585663944,93.0,938.0,0.0
B,L,"[4, 9]",1.0,9.0,0.20609498023986816,1.7885658740997314,0.5709309294365803,93.0,939.0,0.0
R,U,"[3, 9]",1.0,10.0,0.35042786598205566,1.914396047592163,0.552169157317687,93.0,940.0,0.0
,,"(6, 6)",,,,,,93.0,,
R,U,"[5, 6]",1.0,1.0,0.47041797637939453,3.3440511226654053,0.445968246212229,,941.0,0.0
Y,R,"[5, 7]",1.0,2.0,0.19197511672973633,1.92997407913208,0.7255666689226067,94.0,942.0,0.0
Y,R,"[5, 8]",1.0,3.0,0.16331696510314941,1.706618070602417,0.5491972775857814,94.0,943.0,0.0
G,D,"[6, 8]",1.0,4.0,0.224686861038208,1.7022650241851807,0.467847042287439,94.0,944.0,0.0
Y,R,"[6, 9]",1.0,5.0,0.30260586738586426,1.9824178218841553,0.6668737154329177,94.0,945.0,0.0
Y,R,"[6, 10]",1.0,6.0,0.17439699172973633,1.60139799118042,0.4182878675485145,94.0,946.0,0.0
R,U,"[5, 10]",1.0,7.0,0.4942340850830078,1.9132380485534668,0.41496055020368894,94.0,947.0,0.0
R,U,"[4, 10]",1.0,8.0,0.22713303565979004,1.6484508514404297,0.41323867362924743,94.0,948.0,0.0
B,L,"[4, 9]",1.0,9.0,0.18602395057678223,1.8800618648529053,0.6763427827645572,94.0,949.0,0.0
R,U,"[3, 9]",1.0,10.0,0.1758441925048828,1.6639249324798584,0.49043926032289675,94.0,950.0,0.0
,,"(6, 6)",,,,,,94.0,,
R,U,"[5, 6]",1.0,1.0,0.5302197933197021,2.3800740242004395,0.2539560791744069,,951.0,0.0
Y,R,"[5, 7]",1.0,2.0,0.2088770866394043,1.9546608924865723,0.7412876175948067,95.0,952.0,0.0
Y,R,"[5, 8]",1.0,3.0,0.19073796272277832,1.583543062210083,0.39200213225194863,95.0,953.0,0.0
G,D,"[6, 8]",1.0,4.0,0.21438813209533691,1.6744818687438965,0.4662697804278461,95.0,954.0,0.0
Y,R,"[6, 9]",1.0,5.0,0.1409618854522705,1.8381249904632568,0.6876363382567559,95.0,955.0,0.0
Y,R,"[6, 10]",-1.0,5.0,0.05893421173095703,5.582134962081909,0.3862169981354119,95.0,956.0,0.0
R,U,"[5, 10]",1.0,6.0,0.25820398330688477,1.6093759536743164,0.34560597888125194,95.0,957.0,0.0
R,U,"[4, 10]",1.0,7.0,0.19318079948425293,1.5714380741119385,0.3839974970932931,95.0,958.0,0.0
B,L,"[4, 9]",1.0,8.0,0.1538238525390625,1.8569519519805908,0.6902198028314014,95.0,959.0,0.0
R,U,"[3, 9]",1.0,9.0,0.15508389472961426,1.606755018234253,0.4472834865414116,95.0,960.0,0.0
,,"(6, 6)",,,,,,95.0,,
R,U,"[5, 6]",1.0,1.0,0.3728930950164795,3.2559759616851807,0.46979968217291107,,961.0,0.0
Y,R,"[5, 7]",1.0,2.0,0.1708080768585205,1.5021188259124756,0.3218020057509086,96.0,962.0,0.0
Y,R,"[5, 8]",1.0,3.0,0.1902480125427246,1.6204299926757812,0.4255457695961498,96.0,963.0,0.0
G,D,"[6, 8]",1.0,4.0,0.2136070728302002,1.8397221565246582,0.6322205202312325,96.0,964.0,0.0
Y,R,"[6, 9]",1.0,5.0,0.2112870216369629,1.5278260707855225,0.3096729042316496,96.0,965.0,0.0
Y,R,"[6, 10]",1.0,6.0,0.2576298713684082,1.6157660484313965,0.3588147034813461,96.0,966.0,0.0
R,U,"[5, 10]",1.0,7.0,0.6109511852264404,2.0651779174804688,0.4572554686079748,96.0,967.0,0.0
R,U,"[4, 10]",1.0,8.0,0.24544811248779297,1.6496920585632324,0.40656095211629145,96.0,968.0,0.0
B,L,"[4, 9]",1.0,9.0,0.2632169723510742,2.002933979034424,0.7425503180675777,96.0,969.0,0.0
R,U,"[3, 9]",1.0,10.0,0.22417283058166504,1.6723639965057373,0.448603959213407,96.0,970.0,0.0
,,"(6, 6)",,,,,,96.0,,
R,U,"[5, 6]",1.0,1.0,0.4396817684173584,2.5424180030822754,0.47425628571482237,,971.0,0.0
Y,R,"[5, 7]",1.0,2.0,0.17459607124328613,1.6999130249023438,0.5240579624291648,97.0,972.0,0.0
Y,R,"[5, 8]",1.0,3.0,0.3934760093688965,2.0828769207000732,0.6902731274553175,97.0,973.0,0.0
G,D,"[6, 8]",1.0,4.0,0.20923113822937012,1.8853578567504883,0.6754111228608441,97.0,974.0,0.0
Y,R,"[6, 9]",1.0,5.0,0.14885306358337402,1.5630018711090088,0.4051264405059132,97.0,975.0,0.0
Y,R,"[6, 10]",1.0,6.0,0.23505020141601562,1.9342758655548096,0.7056977131238258,97.0,976.0,0.0
R,U,"[5, 10]",-1.0,6.0,0.07445001602172852,5.927093029022217,0.7160419729527594,97.0,977.0,0.0
R,U,"[4, 10]",1.0,7.0,0.2545139789581299,1.624756097793579,0.35759673557217664,97.0,978.0,0.0
B,L,"[4, 9]",1.0,8.0,0.24654889106750488,1.8770430088043213,0.6344394829344293,97.0,979.0,0.0
R,U,"[3, 9]",1.0,9.0,0.19320178031921387,1.9250099658966064,0.7258782376094972,97.0,980.0,0.0
,,"(6, 6)",,,,,,97.0,,
R,U,"[5, 6]",1.0,1.0,0.42769789695739746,3.380924940109253,0.3736169766645723,,981.0,0.0
Y,R,"[5, 7]",1.0,2.0,0.24828815460205078,1.6401238441467285,0.3969769515278281,98.0,982.0,0.0
Y,R,"[5, 8]",1.0,3.0,0.19707083702087402,1.7142019271850586,0.5109936203928918,98.0,983.0,0.0
G,D,"[6, 8]",1.0,4.0,0.21010184288024902,1.7829699516296387,0.5773206897793348,98.0,984.0,0.0
Y,R,"[6, 9]",1.0,5.0,0.1680009365081787,1.6907811164855957,0.5180477498362939,98.0,985.0,0.0
Y,R,"[6, 10]",1.0,6.0,0.16767406463623047,1.7717421054840088,0.5895854627649686,98.0,986.0,0.0
R,U,"[5, 10]",1.0,7.0,0.21900486946105957,1.895374059677124,0.6681717027642828,98.0,987.0,0.0
Y,R,"[5, 11]",0.0,7.0,0.23715901374816895,1.960970163345337,0.7128123183894306,98.0,988.0,0.0
B,L,"[5, 10]",0.0,7.0,0.8403570652008057,2.1727631092071533,0.3187111633609846,98.0,989.0,0.0
R,U,"[4, 10]",1.0,8.0,0.5255959033966064,1.8650240898132324,0.3338601397572112,98.0,990.0,0.0
,,"(6, 6)",,,,,,98.0,,
R,U,"[5, 6]",1.0,1.0,0.4950847625732422,3.0433390140533447,0.5600048677632303,,991.0,0.0
Y,R,"[5, 7]",1.0,2.0,0.2545311450958252,1.8953139781951904,0.6387635299665397,99.0,992.0,0.0
Y,R,"[5, 8]",1.0,3.0,0.19856786727905273,1.9080731868743896,0.6964691238436911,99.0,993.0,0.0
G,D,"[6, 8]",-1.0,3.0,0.08093976974487305,5.503781080245972,0.28368614263683944,99.0,994.0,0.0
Y,R,"[6, 9]",1.0,4.0,0.4206728935241699,2.1015989780426025,0.6683106782799881,99.0,995.0,0.0
Y,R,"[6, 10]",1.0,5.0,0.23076891899108887,1.8727869987487793,0.640965354581094,99.0,996.0,0.0
R,U,"[5, 10]",1.0,6.0,0.1580519676208496,1.4115381240844727,0.25288433389764103,99.0,997.0,0.0
R,U,"[4, 10]",1.0,7.0,0.40229201316833496,1.9701030254364014,0.5561167223590995,99.0,998.0,0.0
B,L,"[4, 9]",1.0,8.0,0.24657392501831055,1.5837531089782715,0.32325721107489636,99.0,999.0,0.0
R,U,"[3, 9]",1.0,9.0,0.31964111328125,1.6603519916534424,0.3336084228312348,99.0,1000.0,0.0
