button_choice,action_choice,coordinate_choice,reward,cumulative_reward,rt,total_trial_time,iti,block_n,trial_n,trial_type
G,D,"[7, 6]",-2.0,0.0,4.354290008544922,5.8231940269470215,0.4240933001962722,0.0,1.0,0.0
B,L,"[7, 5]",-2.0,0.0,1.5383169651031494,2.9684109687805176,0.3926792263432393,0.0,2.0,0.0
R,U,"[6, 5]",-2.0,0.0,1.2846159934997559,3.049949884414673,0.7422609865831624,0.0,3.0,0.0
R,U,"[5, 5]",0.0,0.0,0.2933330535888672,2.0349719524383545,0.7439718131933399,0.0,4.0,0.0
R,U,"[4, 5]",0.0,0.0,0.6706399917602539,2.208014965057373,0.5522513481616638,0.0,5.0,0.0
B,L,"[4, 4]",-2.0,0.0,1.0813839435577393,2.704404830932617,0.5899619598474413,0.0,6.0,0.0
G,D,"[5, 4]",-2.0,0.0,1.1626029014587402,2.8294429779052734,0.6361735392150258,0.0,7.0,0.0
G,D,"[6, 4]",0.0,0.0,0.9693758487701416,2.4561400413513184,0.4757939263568281,0.0,8.0,0.0
B,L,"[6, 3]",-2.0,0.0,1.0793490409851074,2.630159854888916,0.5225691805928505,0.0,9.0,0.0
Y,R,"[6, 4]",-2.0,0.0,1.7050280570983887,3.082314968109131,0.35525474454564526,0.0,10.0,0.0
,,"(6, 6)",,,,,,0.0,,
B,L,"[6, 5]",-2.0,0.0,1.0207290649414062,16.182419061660767,0.2547338335320023,,11.0,0.0
G,D,"[7, 5]",0.0,0.0,0.14611387252807617,1.442854881286621,0.29756884548259366,1.0,12.0,0.0
G,D,"[8, 5]",0.0,0.0,0.3661479949951172,1.7215631008148193,0.35252339487559026,1.0,13.0,0.0
B,L,"[8, 4]",0.0,0.0,0.6607298851013184,2.152456045150757,0.4882481272288744,1.0,14.0,0.0
G,D,"[9, 4]",0.0,0.0,0.5297129154205322,2.258340835571289,0.7295843459218144,1.0,15.0,0.0
R,U,"[8, 4]",0.0,0.0,0.18085098266601562,1.7341678142547607,0.547408618228407,1.0,16.0,0.0
R,U,"[7, 4]",0.0,0.0,0.7927348613739014,2.2650420665740967,0.46251130686438235,1.0,17.0,0.0
R,U,"[6, 4]",-1.0,0.0,0.048768043518066406,5.529857873916626,0.35928352771601274,1.0,18.0,0.0
B,L,"[6, 3]",0.0,0.0,0.6846528053283691,2.1457459926605225,0.47171622477501685,1.0,19.0,0.0
R,U,"[5, 3]",0.0,0.0,0.6469380855560303,1.8989500999450684,0.2541805270472008,1.0,20.0,0.0
,,"(6, 6)",,,,,,1.0,,
B,L,"[6, 5]",0.0,0.0,0.7424418926239014,13.482747077941895,0.3039230249079543,,21.0,0.0
B,L,"[6, 4]",0.0,0.0,0.20362591743469238,1.5817279815673828,0.36885142826858586,2.0,22.0,0.0
G,D,"[7, 4]",0.0,0.0,0.12978601455688477,1.6904289722442627,0.5589613730682846,2.0,23.0,0.0
Y,R,"[7, 5]",0.0,0.0,0.6496419906616211,2.1326141357421875,0.4919576022374701,2.0,24.0,0.0
R,U,"[6, 5]",0.0,0.0,0.37708091735839844,1.7283861637115479,0.35373786469513474,2.0,25.0,0.0
B,L,"[6, 4]",0.0,0.0,0.2835879325866699,1.8998651504516602,0.6198895163619261,2.0,26.0,0.0
R,U,"[5, 4]",0.0,0.0,0.10604500770568848,1.7780358791351318,0.6647369537722443,2.0,27.0,0.0
B,L,"[5, 3]",0.0,0.0,0.22466206550598145,1.7864999771118164,0.5514035971815126,2.0,28.0,0.0
Y,R,"[5, 4]",0.0,0.0,0.9195029735565186,2.338150978088379,0.40652503444291876,2.0,29.0,0.0
Y,R,"[5, 5]",0.0,0.0,0.9822661876678467,2.390347957611084,0.4134709544055688,2.0,30.0,0.0
,,"(6, 6)",,,,,,2.0,,
B,L,"[6, 5]",0.0,0.0,0.8693249225616455,8.225745916366577,0.722433701280853,,31.0,0.0
B,L,"[6, 4]",0.0,0.0,0.43468809127807617,2.0853967666625977,0.6579678391398023,3.0,32.0,0.0
B,L,"[6, 3]",0.0,0.0,0.22541093826293945,1.5686988830566406,0.34369641742685264,3.0,33.0,0.0
B,L,"[6, 2]",0.0,0.0,0.13786602020263672,1.5932879447937012,0.4534937274183146,3.0,34.0,0.0
R,U,"[5, 2]",0.0,0.0,0.42486000061035156,2.158783197402954,0.7288304311571291,3.0,35.0,0.0
G,D,"[6, 2]",0.0,0.0,0.5209338665008545,1.8852009773254395,0.3644669916771719,3.0,36.0,0.0
B,L,"[6, 1]",-2.0,0.0,1.0898900032043457,2.478278875350952,0.3428709652508186,3.0,37.0,0.0
G,D,"[7, 1]",0.0,0.0,0.9695580005645752,2.260776996612549,0.30372479024345683,3.0,38.0,0.0
G,D,"[8, 1]",0.0,0.0,0.4408900737762451,1.7919719219207764,0.3455916657890502,3.0,39.0,0.0
Y,R,"[8, 2]",0.0,0.0,0.30056309700012207,1.6221020221710205,0.33452717535594256,3.0,40.0,0.0
,,"(6, 6)",,,,,,3.0,,
Y,R,"[6, 7]",0.0,0.0,0.9180519580841064,7.233999967575073,0.4351172196984004,,41.0,0.0
Y,R,"[6, 8]",1.0,1.0,0.2542569637298584,1.8695380687713623,0.6044698547513765,4.0,42.0,0.0
Y,R,"[6, 9]",1.0,2.0,0.6636219024658203,2.1422221660614014,0.46356779798737097,4.0,43.0,0.0
Y,R,"[6, 10]",1.0,3.0,0.3735499382019043,1.8507721424102783,0.4645158673866999,4.0,44.0,0.0
Y,R,"[6, 11]",0.0,3.0,0.20865988731384277,1.5638890266418457,0.3451615061947281,4.0,45.0,0.0
R,U,"[5, 11]",0.0,3.0,0.12917208671569824,1.8341901302337646,0.7124218611013873,4.0,46.0,0.0
Y,R,"[5, 12]",-3.0,3.0,0.2230820655822754,1.525482177734375,0.28828138766792055,4.0,47.0,0.0
Y,R,"[5, 11]",0.0,3.0,0.4538848400115967,2.169097900390625,0.7070426221253754,4.0,48.0,0.0
B,L,"[5, 10]",1.0,4.0,0.3985569477081299,1.670724868774414,0.2615325650212515,4.0,49.0,0.0
B,L,"[5, 9]",0.0,4.0,0.21408295631408691,1.4590508937835693,0.25416882583943046,4.0,50.0,0.0
,,"(6, 6)",,,,,,4.0,,
G,D,"[7, 6]",0.0,0.0,0.4167208671569824,4.3512349128723145,0.25533179151102675,,51.0,0.0
B,L,"[7, 5]",0.0,0.0,0.22148704528808594,1.4848809242248535,0.2569544404873149,5.0,52.0,0.0
Y,R,"[7, 6]",0.0,0.0,0.13645005226135254,1.843966007232666,0.700430820832298,5.0,53.0,0.0
G,D,"[8, 6]",0.0,0.0,0.13541913032531738,1.7524738311767578,0.6197296601209237,5.0,54.0,0.0
G,D,"[9, 6]",-1.0,0.0,0.03574490547180176,5.706115007400513,0.5426699714260941,5.0,55.0,0.0
G,D,"[10, 6]",0.0,0.0,0.20847702026367188,1.9218339920043945,0.71455887721646,5.0,56.0,0.0
B,L,"[10, 5]",0.0,0.0,0.19253993034362793,1.504626989364624,0.30281676575624594,5.0,57.0,0.0
R,U,"[9, 5]",0.0,0.0,0.6214931011199951,2.240554094314575,0.6098100596322507,5.0,58.0,0.0
Y,R,"[9, 6]",-1.0,0.0,0.0262911319732666,5.455177068710327,0.3155184935533687,5.0,59.0,0.0
Y,R,"[9, 7]",0.0,0.0,0.4664628505706787,1.9602789878845215,0.492311901603467,5.0,60.0,0.0
,,"(6, 6)",,,,,,5.0,,
G,D,"[7, 6]",0.0,0.0,0.751011848449707,4.501788854598999,0.4442458908408874,,61.0,0.0
B,L,"[7, 5]",0.0,0.0,0.10286593437194824,1.426283836364746,0.3207398795202601,6.0,62.0,0.0
B,L,"[7, 4]",0.0,0.0,0.22201895713806152,1.710664987564087,0.48112995719052676,6.0,63.0,0.0
G,D,"[8, 4]",-1.0,0.0,0.010974884033203125,5.5920960903167725,0.4567124205263728,6.0,64.0,0.0
B,L,"[8, 3]",0.0,0.0,0.561535120010376,2.2120721340179443,0.6520046079301777,6.0,65.0,0.0
R,U,"[7, 3]",0.0,0.0,0.21636390686035156,1.477504014968872,0.2632527154695559,6.0,66.0,0.0
R,U,"[6, 3]",0.0,0.0,0.428739070892334,1.945214033126831,0.5083561746865336,6.0,67.0,0.0
Y,R,"[6, 4]",0.0,0.0,0.20262908935546875,1.8550338745117188,0.6632886706762511,6.0,68.0,0.0
B,L,"[6, 3]",0.0,0.0,0.38700103759765625,1.7516429424285889,0.34838068220138396,6.0,69.0,0.0
R,U,"[5, 3]",0.0,0.0,0.18993592262268066,1.467745065689087,0.2664030327135703,6.0,70.0,0.0
,,"(6, 6)",,,,,,6.0,,
Y,R,"[6, 7]",0.0,0.0,0.9688880443572998,4.437564849853516,0.7200672256289475,,71.0,0.0
B,L,"[6, 6]",0.0,0.0,0.11119389533996582,1.755018949508667,0.6418935894748997,7.0,72.0,0.0
G,D,"[7, 6]",0.0,0.0,0.46724796295166016,1.8501169681549072,0.39221143652787716,7.0,73.0,0.0
G,D,"[8, 6]",0.0,0.0,0.7150628566741943,2.3793938159942627,0.6714706442501366,7.0,74.0,0.0
R,U,"[7, 6]",0.0,0.0,0.5768120288848877,2.0023179054260254,0.42402226220461037,7.0,75.0,0.0
B,L,"[7, 5]",0.0,0.0,0.45705294609069824,2.029949903488159,0.5704124596793243,7.0,76.0,0.0
G,D,"[8, 5]",0.0,0.0,0.4176020622253418,1.693207025527954,0.26385868576871,7.0,77.0,0.0
R,U,"[7, 5]",0.0,0.0,0.32275390625,1.9638919830322266,0.6275240084358363,7.0,78.0,0.0
G,D,"[8, 5]",0.0,0.0,0.33797717094421387,1.753108024597168,0.4140747670877628,7.0,79.0,0.0
Y,R,"[8, 6]",0.0,0.0,0.12047481536865234,1.3898770809173584,0.2541324510730928,7.0,80.0,0.0
,,"(6, 6)",,,,,,7.0,,
G,D,"[7, 6]",0.0,0.0,0.5367109775543213,5.323632001876831,0.36116213708350137,,81.0,0.0
Y,R,"[7, 7]",0.0,0.0,0.39854001998901367,2.090217113494873,0.7009229307615923,8.0,82.0,0.0
Y,R,"[7, 8]",0.0,0.0,0.15266895294189453,1.809541940689087,0.6438856512336876,8.0,83.0,0.0
R,U,"[6, 8]",1.0,1.0,0.5185520648956299,2.0759990215301514,0.5532887377980661,8.0,84.0,0.0
R,U,"[5, 8]",1.0,2.0,0.12949395179748535,1.8007879257202148,0.6706275358947269,8.0,85.0,0.0
R,U,"[4, 8]",0.0,2.0,0.32754015922546387,1.871574878692627,0.5424894561918805,8.0,86.0,0.0
G,D,"[5, 8]",0.0,2.0,0.4868450164794922,1.818068027496338,0.32731620519705024,8.0,87.0,0.0
G,D,"[6, 8]",-1.0,2.0,0.079254150390625,5.850975036621094,0.644541218686771,8.0,88.0,0.0
R,U,"[5, 8]",0.0,2.0,0.2384178638458252,1.5713660717010498,0.33301111442163406,8.0,89.0,0.0
R,U,"[4, 8]",0.0,2.0,0.18928885459899902,1.729569911956787,0.5291758853412716,8.0,90.0,0.0
,,"(6, 6)",,,,,,8.0,,
Y,R,"[6, 7]",0.0,0.0,0.7388310432434082,4.221495151519775,0.334106622950151,,91.0,0.0
R,U,"[5, 7]",1.0,1.0,0.2391960620880127,1.7449090480804443,0.49567306650012427,9.0,92.0,0.0
R,U,"[4, 7]",0.0,1.0,0.19297003746032715,1.5078198909759521,0.32021778937576023,9.0,93.0,0.0
G,D,"[5, 7]",0.0,1.0,0.25352001190185547,1.7299940586090088,0.46671672752397325,9.0,94.0,0.0
R,U,"[4, 7]",0.0,1.0,0.2302539348602295,1.8771288394927979,0.6435374364182642,9.0,95.0,0.0
Y,R,"[4, 8]",0.0,1.0,0.29282093048095703,1.5752449035644531,0.2860798981063661,9.0,96.0,0.0
G,D,"[5, 8]",1.0,2.0,0.31336307525634766,1.877105951309204,0.5629075655081901,9.0,97.0,0.0
R,U,"[4, 8]",0.0,2.0,0.4330260753631592,2.128304958343506,0.6910301299524582,9.0,98.0,0.0
G,D,"[5, 8]",0.0,2.0,0.21346712112426758,1.6544990539550781,0.4458715428890386,9.0,99.0,0.0
B,L,"[5, 7]",0.0,2.0,0.2233290672302246,1.9238910675048828,0.7027173108471412,9.0,100.0,0.0
,,"(6, 6)",,,,,,9.0,,
G,D,"[7, 6]",0.0,0.0,0.5929257869720459,4.433171987533569,0.5526561787277655,,101.0,0.0
G,D,"[8, 6]",0.0,0.0,0.19205999374389648,1.8531568050384521,0.6558416444189835,10.0,102.0,0.0
B,L,"[8, 5]",0.0,0.0,0.2125399112701416,1.8286688327789307,0.6177688989794503,10.0,103.0,0.0
Y,R,"[8, 6]",-1.0,0.0,0.01098489761352539,5.391606092453003,0.25993669676909825,10.0,104.0,0.0
Y,R,"[8, 7]",0.0,0.0,0.33960604667663574,1.8774449825286865,0.5370837870035418,10.0,105.0,0.0
R,U,"[7, 7]",0.0,0.0,0.22718310356140137,1.7361650466918945,0.5066173549004964,10.0,106.0,0.0
B,L,"[7, 6]",0.0,0.0,0.7120819091796875,2.00396990776062,0.2942511252277676,10.0,107.0,0.0
Y,R,"[7, 7]",0.0,0.0,0.528419017791748,2.0259101390838623,0.5032913967658104,10.0,108.0,0.0
G,D,"[8, 7]",0.0,0.0,0.25734806060791016,1.6264209747314453,0.36306325072231516,10.0,109.0,0.0
Y,R,"[8, 8]",0.0,0.0,0.19522881507873535,1.8706698417663574,0.6668357487724865,10.0,110.0,0.0
,,"(6, 6)",,,,,,10.0,,
B,L,"[6, 5]",0.0,0.0,0.618682861328125,6.357331037521362,0.7407883206643908,,111.0,0.0
R,U,"[5, 5]",0.0,0.0,0.20239591598510742,1.4565649032592773,0.26467560520449773,11.0,112.0,0.0
Y,R,"[5, 6]",1.0,1.0,0.5066170692443848,2.083021879196167,0.5639957491678913,11.0,113.0,0.0
Y,R,"[5, 7]",1.0,2.0,0.30048203468322754,1.854660987854004,0.5352753490296741,11.0,114.0,0.0
Y,R,"[5, 8]",1.0,3.0,0.18069982528686523,1.7193810939788818,0.5379979042737723,11.0,115.0,0.0
Y,R,"[5, 9]",0.0,3.0,0.2935500144958496,2.0019750595092773,0.7065892714510524,11.0,116.0,0.0
R,U,"[4, 9]",-2.0,3.0,1.7121479511260986,3.142982006072998,0.39994293930088426,11.0,117.0,0.0
R,U,"[3, 9]",1.0,4.0,0.31893205642700195,1.6999928951263428,0.3664445692369516,11.0,118.0,0.0
R,U,"[2, 9]",-1.0,4.0,0.06748485565185547,5.559674978256226,0.3597132568761851,11.0,119.0,0.0
R,U,"[1, 9]",0.0,4.0,0.2655668258666992,1.5590050220489502,0.3020193745331162,11.0,120.0,0.0
,,"(6, 6)",,,,,,11.0,,
R,U,"[5, 6]",1.0,1.0,0.84027099609375,4.02419114112854,0.40983667279825875,,121.0,0.0
R,U,"[4, 6]",0.0,1.0,0.3860290050506592,1.7288529872894287,0.355066084678223,12.0,122.0,0.0
B,L,"[4, 5]",0.0,1.0,0.26091599464416504,1.7035448551177979,0.4419852952183069,12.0,123.0,0.0
G,D,"[5, 5]",0.0,1.0,0.12398719787597656,1.6595509052276611,0.5346764553787922,12.0,124.0,0.0
G,D,"[6, 5]",0.0,1.0,0.35538196563720703,1.7774457931518555,0.4123156118211501,12.0,125.0,0.0
B,L,"[6, 4]",0.0,1.0,0.33756303787231445,1.6935129165649414,0.3559760015063079,12.0,126.0,0.0
B,L,"[6, 3]",0.0,1.0,0.2287290096282959,1.8091719150543213,0.5814443069662714,12.0,127.0,0.0
B,L,"[6, 2]",0.0,1.0,0.24798989295959473,1.9162201881408691,0.664334404578387,12.0,128.0,0.0
B,L,"[6, 1]",0.0,1.0,0.3434031009674072,1.6316990852355957,0.2799480116804261,12.0,129.0,0.0
R,U,"[5, 1]",0.0,1.0,0.1483149528503418,1.7892460823059082,0.635556071156355,12.0,130.0,0.0
,,"(6, 6)",,,,,,12.0,,
Y,R,"[6, 7]",0.0,0.0,0.5522630214691162,3.80916690826416,0.3780536600127065,,131.0,0.0
G,D,"[7, 7]",0.0,0.0,0.6979460716247559,1.9722700119018555,0.2838954981528069,13.0,132.0,0.0
B,L,"[7, 6]",0.0,0.0,0.17984986305236816,1.8569231033325195,0.6737100021914881,13.0,133.0,0.0
R,U,"[6, 6]",-1.0,0.0,0.09697699546813965,5.732657194137573,0.5066803123757677,13.0,134.0,0.0
R,U,"[5, 6]",1.0,1.0,0.4807460308074951,1.9599051475524902,0.4833051186736344,13.0,135.0,0.0
R,U,"[4, 6]",0.0,1.0,0.21900486946105957,1.661984920501709,0.44531127321486574,13.0,136.0,0.0
Y,R,"[4, 7]",0.0,1.0,0.3562278747558594,1.9877760410308838,0.6330195265109305,13.0,137.0,0.0
B,L,"[4, 6]",0.0,1.0,0.2085280418395996,1.4872400760650635,0.27046726587787157,13.0,138.0,0.0
G,D,"[5, 6]",0.0,1.0,0.37773895263671875,1.907961130142212,0.5281685622413808,13.0,139.0,0.0
R,U,"[4, 6]",0.0,1.0,0.18110108375549316,1.706644058227539,0.5350189504240425,13.0,140.0,0.0
,,"(6, 6)",,,,,,13.0,,
Y,R,"[6, 7]",0.0,0.0,0.4655900001525879,8.033638000488281,0.6019143855333833,,141.0,0.0
G,D,"[7, 7]",0.0,0.0,0.40323495864868164,1.8117120265960693,0.397177733157916,14.0,142.0,0.0
B,L,"[7, 6]",0.0,0.0,0.14560914039611816,1.497399091720581,0.34468415884549986,14.0,143.0,0.0
R,U,"[6, 6]",-1.0,0.0,0.02875208854675293,5.721193075180054,0.5656165757527842,14.0,144.0,0.0
Y,R,"[6, 7]",0.0,0.0,0.20819687843322754,1.6484200954437256,0.43090881274783555,14.0,145.0,0.0
G,D,"[7, 7]",0.0,0.0,0.5458009243011475,2.2923121452331543,0.7396429828025523,14.0,146.0,0.0
R,U,"[6, 7]",-1.0,0.0,0.08260297775268555,5.882643938064575,0.6726597941569543,14.0,147.0,0.0
G,D,"[7, 7]",0.0,0.0,0.9018008708953857,2.3598690032958984,0.46588150181764193,14.0,148.0,0.0
B,L,"[7, 6]",0.0,0.0,0.25040197372436523,1.8243610858917236,0.5735281716800398,14.0,149.0,0.0
R,U,"[6, 6]",0.0,0.0,0.2156360149383545,1.501737117767334,0.29215213100570964,14.0,150.0,0.0
,,"(6, 6)",,,,,,14.0,,
Y,R,"[6, 7]",0.0,0.0,0.6062541007995605,5.385111093521118,0.5437714448990303,,151.0,0.0
B,L,"[6, 6]",0.0,0.0,0.19570517539978027,1.7269160747528076,0.5377693251977521,15.0,152.0,0.0
G,D,"[7, 6]",0.0,0.0,0.23603606224060059,1.9703850746154785,0.7243884183337894,15.0,153.0,0.0
R,U,"[6, 6]",-1.0,0.0,0.02968001365661621,5.888024091720581,0.7291150948924341,15.0,154.0,0.0
R,U,"[5, 6]",1.0,1.0,0.2347879409790039,1.6726961135864258,0.4187530531808058,15.0,155.0,0.0
R,U,"[4, 6]",0.0,1.0,0.48230504989624023,1.861510992050171,0.3803256150794123,15.0,156.0,0.0
R,U,"[3, 6]",0.0,1.0,0.3046150207519531,1.986382007598877,0.6664999695089728,15.0,157.0,0.0
G,D,"[4, 6]",0.0,1.0,0.3145270347595215,1.9319231510162354,0.6151931379061777,15.0,158.0,0.0
G,D,"[5, 6]",0.0,1.0,0.11823797225952148,1.7301180362701416,0.5785757742382122,15.0,159.0,0.0
G,D,"[6, 6]",0.0,1.0,0.33753204345703125,1.6971619129180908,0.3593340196148746,15.0,160.0,0.0
,,"(6, 6)",,,,,,15.0,,
G,D,"[7, 6]",0.0,0.0,0.41146206855773926,3.699208974838257,0.5250971557595359,,161.0,0.0
B,L,"[7, 5]",0.0,0.0,0.16384100914001465,1.708122968673706,0.5499193192789371,16.0,162.0,0.0
G,D,"[8, 5]",0.0,0.0,0.40102219581604004,2.0186941623687744,0.618633754494845,16.0,163.0,0.0
B,L,"[8, 4]",0.0,0.0,0.2363569736480713,1.9690001010894775,0.7207897158614922,16.0,164.0,0.0
R,U,"[7, 4]",-1.0,0.0,0.09250307083129883,5.8438560962677,0.6148236470112145,16.0,165.0,0.0
R,U,"[6, 4]",-1.0,0.0,0.01221013069152832,5.802601099014282,0.6508161456071537,16.0,166.0,0.0
R,U,"[5, 4]",0.0,0.0,0.9942498207092285,2.369340181350708,0.37049121367113125,16.0,167.0,0.0
Y,R,"[5, 5]",0.0,0.0,0.28124094009399414,1.5928418636322021,0.31338832236270464,16.0,168.0,0.0
B,L,"[5, 4]",0.0,0.0,0.3885500431060791,1.9193742275238037,0.515804815322368,16.0,169.0,0.0
G,D,"[6, 4]",0.0,0.0,0.19106602668762207,1.9276928901672363,0.726832480192078,16.0,170.0,0.0
,,"(6, 6)",,,,,,16.0,,
B,L,"[6, 5]",-2.0,0.0,1.2093920707702637,4.3328728675842285,0.29354158926587715,,171.0,0.0
B,L,"[6, 4]",0.0,0.0,0.18323802947998047,1.7332789897918701,0.5431763186141847,17.0,172.0,0.0
R,U,"[5, 4]",0.0,0.0,0.11906218528747559,1.819715976715088,0.6960714816369074,17.0,173.0,0.0
B,L,"[5, 3]",0.0,0.0,0.6357419490814209,1.929839849472046,0.27635926622799817,17.0,174.0,0.0
G,D,"[6, 3]",0.0,0.0,0.32504796981811523,2.005823850631714,0.6818288659832747,17.0,175.0,0.0
B,L,"[6, 2]",0.0,0.0,0.5335071086883545,1.9819729328155518,0.44747558970002593,17.0,176.0,0.0
Y,R,"[6, 3]",0.0,0.0,0.1902010440826416,1.6332690715789795,0.43072889705673323,17.0,177.0,0.0
R,U,"[5, 3]",0.0,0.0,0.33595705032348633,1.7552261352539062,0.41926614334799023,17.0,178.0,0.0
B,L,"[5, 2]",0.0,0.0,0.22893905639648438,1.4970791339874268,0.2666401912574779,17.0,179.0,0.0
B,L,"[5, 1]",0.0,0.0,0.47205495834350586,1.7783820629119873,0.29495640161066766,17.0,180.0,0.0
,,"(6, 6)",,,,,,17.0,,
G,D,"[7, 6]",0.0,0.0,0.4964148998260498,4.1227641105651855,0.7341609691203801,,181.0,0.0
G,D,"[8, 6]",0.0,0.0,0.2206258773803711,1.7372159957885742,0.5048086883460351,18.0,182.0,0.0
B,L,"[8, 5]",0.0,0.0,0.7267758846282959,2.057158946990967,0.32897922592361156,18.0,183.0,0.0
B,L,"[8, 4]",-1.0,0.0,0.07768416404724121,5.938503980636597,0.7338134703211217,18.0,184.0,0.0
B,L,"[8, 3]",0.0,0.0,0.7202911376953125,2.482729911804199,0.7497544350325105,18.0,185.0,0.0
G,D,"[9, 3]",0.0,0.0,0.5079638957977295,1.9637279510498047,0.4472824163431355,18.0,186.0,0.0
R,U,"[8, 3]",0.0,0.0,0.3745720386505127,1.655987024307251,0.27019171613609594,18.0,187.0,0.0
B,L,"[8, 2]",0.0,0.0,0.2216510772705078,1.7123348712921143,0.48222312586302013,18.0,188.0,0.0
R,U,"[7, 2]",0.0,0.0,0.20401597023010254,1.5401427745819092,0.3226589387177502,18.0,189.0,0.0
B,L,"[7, 1]",0.0,0.0,0.17743301391601562,1.5689160823822021,0.391363679058625,18.0,190.0,0.0
,,"(6, 6)",,,,,,18.0,,
Y,R,"[6, 7]",-2.0,0.0,1.525010108947754,4.3267199993133545,0.3185996022017855,,191.0,0.0
Y,R,"[6, 8]",-2.0,0.0,1.112760066986084,2.552785873413086,0.40440172499267363,19.0,192.0,0.0
Y,R,"[6, 9]",1.0,1.0,0.3974771499633789,1.8831241130828857,0.4875590024345848,19.0,193.0,0.0
Y,R,"[6, 10]",1.0,2.0,0.321199893951416,1.811047077178955,0.48196059936542296,19.0,194.0,0.0
Y,R,"[6, 11]",0.0,2.0,0.4469470977783203,2.174345016479492,0.722679477495868,19.0,195.0,0.0
G,D,"[7, 11]",0.0,2.0,0.7633621692657471,2.485943078994751,0.7253020776269786,19.0,196.0,0.0
B,L,"[7, 10]",0.0,2.0,0.4521150588989258,1.7248599529266357,0.2840901775636664,19.0,197.0,0.0
B,L,"[7, 9]",0.0,2.0,0.6858348846435547,1.998934030532837,0.3163441564050792,19.0,198.0,0.0
R,U,"[6, 9]",0.0,2.0,0.4731330871582031,1.8154821395874023,0.3317261580026144,19.0,199.0,0.0
G,D,"[7, 9]",0.0,2.0,0.464324951171875,1.9292640686035156,0.4609391392835679,19.0,200.0,0.0
,,"(6, 6)",,,,,,19.0,,
Y,R,"[6, 7]",-2.0,0.0,1.0933020114898682,4.66316819190979,0.5240868312611499,,201.0,0.0
B,L,"[6, 6]",0.0,0.0,0.4581761360168457,1.8386969566345215,0.37956903894711747,20.0,202.0,0.0
G,D,"[7, 6]",0.0,0.0,0.24418997764587402,1.9084692001342773,0.6544673412562942,20.0,203.0,0.0
Y,R,"[7, 7]",0.0,0.0,0.22405791282653809,1.7710380554199219,0.5423598604978797,20.0,204.0,0.0
R,U,"[6, 7]",0.0,0.0,0.3656649589538574,2.015639066696167,0.6579732558358948,20.0,205.0,0.0
B,L,"[6, 6]",0.0,0.0,0.4140660762786865,1.7805631160736084,0.3722065940060166,20.0,206.0,0.0
G,D,"[7, 6]",0.0,0.0,0.5579290390014648,2.1626200675964355,0.6013517196954101,20.0,207.0,0.0
R,U,"[6, 6]",0.0,0.0,0.35918402671813965,1.7133679389953613,0.3482884602053898,20.0,208.0,0.0
Y,R,"[6, 7]",0.0,0.0,0.49455809593200684,2.02752685546875,0.5255935107224389,20.0,209.0,0.0
Y,R,"[6, 8]",1.0,1.0,0.5250349044799805,1.9707729816436768,0.4465017652844586,20.0,210.0,0.0
,,"(6, 6)",,,,,,20.0,,
Y,R,"[6, 7]",0.0,0.0,0.6895279884338379,4.320420980453491,0.6004580096430183,,211.0,0.0
R,U,"[5, 7]",1.0,1.0,0.595513105392456,2.298578977584839,0.6986239933604789,21.0,212.0,0.0
R,U,"[4, 7]",0.0,1.0,0.40645408630371094,2.041642189025879,0.623724662389112,21.0,213.0,0.0
R,U,"[3, 7]",0.0,1.0,0.252000093460083,1.7913110256195068,0.5485461339441524,21.0,214.0,0.0
G,D,"[4, 7]",0.0,1.0,0.16932010650634766,1.8322319984436035,0.6473479813054297,21.0,215.0,0.0
B,L,"[4, 6]",-1.0,1.0,0.09084105491638184,5.891541004180908,0.6556484110851658,21.0,216.0,0.0
B,L,"[4, 5]",0.0,1.0,0.4115769863128662,2.093675136566162,0.6827551934961382,21.0,217.0,0.0
B,L,"[4, 4]",0.0,1.0,0.3327140808105469,1.7485580444335938,0.4148424246521114,21.0,218.0,0.0
B,L,"[4, 3]",0.0,1.0,0.25479912757873535,1.5763509273529053,0.3080010796318254,21.0,219.0,0.0
B,L,"[4, 2]",0.0,1.0,0.22420001029968262,1.9375100135803223,0.7117523486936672,21.0,220.0,0.0
,,"(6, 6)",,,,,,21.0,,
G,D,"[7, 6]",0.0,0.0,0.6198270320892334,3.4832890033721924,0.37890059039672286,,221.0,0.0
R,U,"[6, 6]",0.0,0.0,0.29277706146240234,1.9623360633850098,0.6743181100992053,22.0,222.0,0.0
B,L,"[6, 5]",0.0,0.0,0.49301600456237793,2.008481979370117,0.5162596971554272,22.0,223.0,0.0
Y,R,"[6, 6]",0.0,0.0,0.13651299476623535,1.4410109519958496,0.2909372705106891,22.0,224.0,0.0
R,U,"[5, 6]",1.0,1.0,0.24520397186279297,1.793511152267456,0.5506143476963136,22.0,225.0,0.0
R,U,"[4, 6]",-1.0,1.0,0.04455900192260742,5.622637033462524,0.4570868173444841,22.0,226.0,0.0
R,U,"[3, 6]",0.0,1.0,0.125715970993042,1.756911039352417,0.6304397500407734,22.0,227.0,0.0
B,L,"[3, 5]",-1.0,1.0,0.07210993766784668,5.899288892745972,0.6963356617743028,22.0,228.0,0.0
G,D,"[4, 5]",0.0,1.0,0.33864617347717285,2.0863571166992188,0.732789180773106,22.0,229.0,0.0
G,D,"[5, 5]",0.0,1.0,0.5290250778198242,2.1660571098327637,0.632341206794315,22.0,230.0,0.0
,,"(6, 6)",,,,,,22.0,,
G,D,"[7, 6]",0.0,0.0,0.7612380981445312,3.8465819358825684,0.4790083277949272,,231.0,0.0
G,D,"[8, 6]",0.0,0.0,0.1981208324432373,1.8846220970153809,0.6968006111957934,23.0,232.0,0.0
Y,R,"[8, 7]",0.0,0.0,0.25649094581604004,1.9712719917297363,0.701484521435886,23.0,233.0,0.0
R,U,"[7, 7]",0.0,0.0,0.17966103553771973,1.8633990287780762,0.6816641513782646,23.0,234.0,0.0
B,L,"[7, 6]",0.0,0.0,0.20408105850219727,1.663470983505249,0.44537788488768526,23.0,235.0,0.0
R,U,"[6, 6]",0.0,0.0,0.3356029987335205,1.6765861511230469,0.35543973829893066,23.0,236.0,0.0
G,D,"[7, 6]",-1.0,0.0,0.036097049713134766,5.870965003967285,0.7093498126219204,23.0,237.0,0.0
G,D,"[8, 6]",0.0,0.0,0.4212348461151123,1.6791059970855713,0.25567921035977886,23.0,238.0,0.0
G,D,"[9, 6]",0.0,0.0,0.5589969158172607,1.9902939796447754,0.4292446479011401,23.0,239.0,0.0
B,L,"[9, 5]",0.0,0.0,0.25975584983825684,1.577003002166748,0.32294210716200883,23.0,240.0,0.0
,,"(6, 6)",,,,,,23.0,,
Y,R,"[6, 7]",0.0,0.0,0.5153970718383789,3.262695074081421,0.5022761021428033,,241.0,0.0
R,U,"[5, 7]",1.0,1.0,0.9233829975128174,2.3470189571380615,0.41602584964444295,24.0,242.0,0.0
R,U,"[4, 7]",0.0,1.0,0.1530909538269043,1.5882060527801514,0.4209100828662312,24.0,243.0,0.0
B,L,"[4, 6]",0.0,1.0,0.8873879909515381,2.4534010887145996,0.557648513929874,24.0,244.0,0.0
R,U,"[3, 6]",0.0,1.0,0.24389100074768066,1.853492021560669,0.6110161783439907,24.0,245.0,0.0
G,D,"[4, 6]",-1.0,1.0,0.09994697570800781,5.511108160018921,0.2892145299073223,24.0,246.0,0.0
G,D,"[5, 6]",1.0,2.0,0.4073600769042969,2.0756099224090576,0.6645930678300112,24.0,247.0,0.0
G,D,"[6, 6]",-1.0,2.0,0.0762488842010498,5.876871109008789,0.6582447699617555,24.0,248.0,0.0
G,D,"[7, 6]",0.0,2.0,0.29776501655578613,1.5867140293121338,0.29523475750258965,24.0,249.0,0.0
B,L,"[7, 5]",0.0,2.0,0.44448399543762207,2.161935806274414,0.7235302374886685,24.0,250.0,0.0
,,"(6, 6)",,,,,,24.0,,
R,U,"[5, 6]",1.0,1.0,0.5957479476928711,4.598088026046753,0.38872185708020945,,251.0,0.0
R,U,"[4, 6]",0.0,1.0,0.5720419883728027,2.004142999649048,0.42613162977851937,25.0,252.0,0.0
Y,R,"[4, 7]",0.0,1.0,0.348970890045166,1.8668498992919922,0.5263915928492506,25.0,253.0,0.0
G,D,"[5, 7]",1.0,2.0,0.23262405395507812,1.5765538215637207,0.336339674659641,25.0,254.0,0.0
G,D,"[6, 7]",0.0,2.0,0.3813209533691406,1.656238079071045,0.27605628505900603,25.0,255.0,0.0
B,L,"[6, 6]",0.0,2.0,0.37650394439697266,1.6519479751586914,0.277915611781845,25.0,256.0,0.0
R,U,"[5, 6]",0.0,2.0,0.2852928638458252,2.0251309871673584,0.7360676671465067,25.0,257.0,0.0
Y,R,"[5, 7]",0.0,2.0,0.18934893608093262,1.721703052520752,0.5246531281258828,25.0,258.0,0.0
G,D,"[6, 7]",0.0,2.0,0.18229198455810547,1.6015410423278809,0.42644548477596617,25.0,259.0,0.0
B,L,"[6, 6]",0.0,2.0,0.21539807319641113,1.953423023223877,0.7461233281385563,25.0,260.0,0.0
,,"(6, 6)",,,,,,25.0,,
R,U,"[5, 6]",1.0,1.0,0.6744799613952637,3.994964838027954,0.6247471130546707,,261.0,0.0
R,U,"[4, 6]",0.0,1.0,0.33455801010131836,1.7503118515014648,0.42530141761325124,26.0,262.0,0.0
Y,R,"[4, 7]",0.0,1.0,0.5207889080047607,2.1068248748779297,0.5986220710621272,26.0,263.0,0.0
B,L,"[4, 6]",0.0,1.0,0.20137906074523926,1.530512809753418,0.3294304594110868,26.0,264.0,0.0
G,D,"[5, 6]",0.0,1.0,0.24748492240905762,1.9341049194335938,0.696417756975656,26.0,265.0,0.0
G,D,"[6, 6]",-1.0,1.0,0.07657718658447266,5.891592025756836,0.6714543667182529,26.0,266.0,0.0
G,D,"[7, 6]",0.0,1.0,0.3275301456451416,1.6373469829559326,0.3091929693017949,26.0,267.0,0.0
B,L,"[7, 5]",0.0,1.0,0.21711397171020508,1.6743440628051758,0.4667718171853591,26.0,268.0,0.0
B,L,"[7, 4]",0.0,1.0,0.21405410766601562,1.7842020988464355,0.5675499279686782,26.0,269.0,0.0
R,U,"[6, 4]",0.0,1.0,0.22105693817138672,1.9657790660858154,0.7331083272673686,26.0,270.0,0.0
,,"(6, 6)",,,,,,26.0,,
R,U,"[5, 6]",1.0,1.0,0.6312360763549805,3.886575937271118,0.7032181098669266,,271.0,0.0
R,U,"[4, 6]",0.0,1.0,0.3513808250427246,1.8034651279449463,0.4569802944194034,27.0,272.0,0.0
R,U,"[3, 6]",0.0,1.0,0.521791934967041,1.835787057876587,0.3097270260425658,27.0,273.0,0.0
Y,R,"[3, 7]",0.0,1.0,0.5875909328460693,1.8236680030822754,0.2501696139323337,27.0,274.0,0.0
B,L,"[3, 6]",0.0,1.0,0.38516783714294434,1.8354218006134033,0.45185519301971216,27.0,275.0,0.0
B,L,"[3, 5]",0.0,1.0,0.4795050621032715,1.9508788585662842,0.4696101104757609,27.0,276.0,0.0
G,D,"[4, 5]",0.0,1.0,0.21010804176330566,1.8484809398651123,0.6344969540085628,27.0,277.0,0.0
G,D,"[5, 5]",0.0,1.0,0.2312328815460205,1.6344361305236816,0.4026573346119309,27.0,278.0,0.0
B,L,"[5, 4]",0.0,1.0,0.27998900413513184,1.9342491626739502,0.6534213116134164,27.0,279.0,0.0
B,L,"[5, 3]",0.0,1.0,0.2318730354309082,1.8351380825042725,0.6051806512755603,27.0,280.0,0.0
,,"(6, 6)",,,,,,27.0,,
R,U,"[5, 6]",1.0,1.0,0.611422061920166,3.9151289463043213,0.2540964989993509,,281.0,0.0
R,U,"[4, 6]",0.0,1.0,0.32715892791748047,1.9842009544372559,0.6546571687641118,28.0,282.0,0.0
Y,R,"[4, 7]",0.0,1.0,0.2174081802368164,1.7846381664276123,0.5725657124797099,28.0,283.0,0.0
Y,R,"[4, 8]",0.0,1.0,0.19555306434631348,1.6220009326934814,0.4282600080256686,28.0,284.0,0.0
G,D,"[5, 8]",1.0,2.0,0.28490710258483887,1.5977768898010254,0.30956663195731093,28.0,285.0,0.0
G,D,"[6, 8]",1.0,3.0,0.27375316619873047,1.8947420120239258,0.6206906737256824,28.0,286.0,0.0
G,D,"[7, 8]",0.0,3.0,0.16234087944030762,1.4415919780731201,0.2792750798401058,28.0,287.0,0.0
B,L,"[7, 7]",0.0,3.0,0.26055288314819336,1.9444539546966553,0.6899554976824147,28.0,288.0,0.0
R,U,"[6, 7]",-1.0,3.0,0.0872659683227539,5.94454288482666,0.7012761776190275,28.0,289.0,0.0
R,U,"[5, 7]",1.0,4.0,0.26073217391967773,1.9546918869018555,0.6892615608499721,28.0,290.0,0.0
,,"(6, 6)",,,,,,28.0,,
R,U,"[5, 6]",1.0,1.0,0.5866179466247559,3.810307025909424,0.46659859553201644,,291.0,0.0
R,U,"[4, 6]",0.0,1.0,0.4542090892791748,2.171919107437134,0.7050200673147031,29.0,292.0,0.0
Y,R,"[4, 7]",0.0,1.0,0.4336090087890625,1.8183510303497314,0.3904352965083142,29.0,293.0,0.0
G,D,"[5, 7]",1.0,2.0,0.5318648815155029,2.121309995651245,0.5949600977527346,29.0,294.0,0.0
G,D,"[6, 7]",0.0,2.0,0.2906060218811035,1.7796969413757324,0.49137869431160314,29.0,295.0,0.0
Y,R,"[6, 8]",1.0,3.0,0.569990873336792,2.2370660305023193,0.6619992664159882,29.0,296.0,0.0
G,D,"[7, 8]",-2.0,3.0,1.4218521118164062,3.117687940597534,0.6626115921569322,29.0,297.0,0.0
Y,R,"[7, 9]",0.0,3.0,0.30605101585388184,2.055269956588745,0.7347627023632022,29.0,298.0,0.0
R,U,"[6, 9]",-1.0,3.0,0.007258892059326172,5.779860019683838,0.6480493348081056,29.0,299.0,0.0
R,U,"[5, 9]",0.0,3.0,0.28351593017578125,1.5959692001342773,0.31112089738197785,29.0,300.0,0.0
,,"(6, 6)",,,,,,29.0,,
B,L,"[6, 5]",0.0,0.0,0.516279935836792,3.795262098312378,0.5229444126660006,,301.0,0.0
Y,R,"[6, 6]",0.0,0.0,0.5851049423217773,2.079516887664795,0.5024176461372536,30.0,302.0,0.0
G,D,"[7, 6]",0.0,0.0,0.31818199157714844,1.6097068786621094,0.27901781515565016,30.0,303.0,0.0
R,U,"[6, 6]",0.0,0.0,0.3434278964996338,1.94569993019104,0.6078535842271463,30.0,304.0,0.0
Y,R,"[6, 7]",0.0,0.0,0.3884389400482178,2.103965997695923,0.7116202644358319,30.0,305.0,0.0
G,D,"[7, 7]",-1.0,0.0,0.04470181465148926,5.457787036895752,0.30328468550719373,30.0,306.0,0.0
G,D,"[8, 7]",-2.0,0.0,1.1927990913391113,2.8901190757751465,0.6598597080324016,30.0,307.0,0.0
B,L,"[8, 6]",0.0,0.0,0.29882216453552246,1.634277105331421,0.3443851887561038,30.0,308.0,0.0
R,U,"[7, 6]",0.0,0.0,0.2523770332336426,1.6148569583892822,0.37591540317500877,30.0,309.0,0.0
Y,R,"[7, 7]",0.0,0.0,0.26168107986450195,1.6509230136871338,0.3936448752261889,30.0,310.0,0.0
,,"(6, 6)",,,,,,30.0,,
G,D,"[7, 6]",-2.0,0.0,1.2952890396118164,4.381345987319946,0.7414148294723697,,311.0,0.0
B,L,"[7, 5]",0.0,0.0,0.19855189323425293,1.7107000350952148,0.5189031833522256,31.0,312.0,0.0
G,D,"[8, 5]",0.0,0.0,0.25896501541137695,1.5480930805206299,0.2839723084415792,31.0,313.0,0.0
G,D,"[9, 5]",0.0,0.0,0.5840699672698975,2.0262341499328613,0.4435467624323257,31.0,314.0,0.0
R,U,"[8, 5]",0.0,0.0,0.962677001953125,2.309267044067383,0.35277024698603315,31.0,315.0,0.0
Y,R,"[8, 6]",0.0,0.0,0.4397909641265869,1.9723660945892334,0.5250205284085528,31.0,316.0,0.0
B,L,"[8, 5]",0.0,0.0,0.2542688846588135,1.844642162322998,0.5862700281111877,31.0,317.0,0.0
R,U,"[7, 5]",0.0,0.0,0.43032312393188477,2.0114569664001465,0.5811137569496896,31.0,318.0,0.0
G,D,"[8, 5]",0.0,0.0,0.18224215507507324,1.6146469116210938,0.4294379908983827,31.0,319.0,0.0
B,L,"[8, 4]",0.0,0.0,0.7812159061431885,2.356578826904297,0.5691088407592374,31.0,320.0,0.0
,,"(6, 6)",,,,,,31.0,,
B,L,"[6, 5]",-2.0,0.0,1.8571419715881348,4.960883855819702,0.6462727698140092,,321.0,0.0
B,L,"[6, 4]",0.0,0.0,0.34296298027038574,1.7201459407806396,0.3671312557353442,32.0,322.0,0.0
G,D,"[7, 4]",0.0,0.0,0.16918087005615234,1.6947669982910156,0.511797898732479,32.0,323.0,0.0
G,D,"[8, 4]",0.0,0.0,0.45275211334228516,1.9153311252593994,0.4772652377130486,32.0,324.0,0.0
Y,R,"[8, 5]",0.0,0.0,0.5150909423828125,2.1974380016326904,0.6910938867559395,32.0,325.0,0.0
R,U,"[7, 5]",0.0,0.0,0.18718981742858887,1.7358598709106445,0.5438896457678456,32.0,326.0,0.0
Y,R,"[7, 6]",0.0,0.0,0.5220539569854736,2.0008790493011475,0.4783348813341806,32.0,327.0,0.0
R,U,"[6, 6]",0.0,0.0,0.7210099697113037,2.201434850692749,0.4796078357702697,32.0,328.0,0.0
G,D,"[7, 6]",0.0,0.0,0.8223719596862793,2.4704630374908447,0.6501460044678585,32.0,329.0,0.0
B,L,"[7, 5]",0.0,0.0,0.2947359085083008,1.8188891410827637,0.5191438161891734,32.0,330.0,0.0
,,"(6, 6)",,,,,,32.0,,
R,U,"[5, 6]",-2.0,0.0,1.054764986038208,3.9580769538879395,0.49391375854824154,,331.0,0.0
Y,R,"[5, 7]",1.0,1.0,0.37343716621398926,1.6385610103607178,0.26609238075211,33.0,332.0,0.0
G,D,"[6, 7]",-2.0,1.0,1.4414100646972656,2.89142107963562,0.4074240838288723,33.0,333.0,0.0
B,L,"[6, 6]",0.0,1.0,0.25135016441345215,1.9075219631195068,0.6647153872452471,33.0,334.0,0.0
G,D,"[7, 6]",-1.0,1.0,0.0897519588470459,5.886138916015625,0.6509950776793214,33.0,335.0,0.0
G,D,"[8, 6]",0.0,1.0,0.20151305198669434,1.6154470443725586,0.41674249310797573,33.0,336.0,0.0
Y,R,"[8, 7]",0.0,1.0,0.7538840770721436,2.482524871826172,0.7323001785185954,33.0,337.0,0.0
Y,R,"[8, 8]",0.0,1.0,0.4305260181427002,2.1462018489837646,0.7118170063786629,33.0,338.0,0.0
R,U,"[7, 8]",0.0,1.0,0.2035069465637207,1.456037998199463,0.2517692101154426,33.0,339.0,0.0
R,U,"[6, 8]",1.0,2.0,0.3639369010925293,2.045630931854248,0.6803995863691572,33.0,340.0,0.0
,,"(6, 6)",,,,,,33.0,,
R,U,"[5, 6]",1.0,1.0,0.41549110412597656,3.4540560245513916,0.36821965432554554,,341.0,0.0
B,L,"[5, 5]",-2.0,1.0,1.472856044769287,2.7877840995788574,0.2726889258427452,34.0,342.0,0.0
G,D,"[6, 5]",0.0,1.0,0.1968400478363037,1.6251921653747559,0.4311414301117868,34.0,343.0,0.0
B,L,"[6, 4]",0.0,1.0,0.1845700740814209,1.8105549812316895,0.6248370803505543,34.0,344.0,0.0
R,U,"[5, 4]",-1.0,1.0,0.010267972946166992,5.759946823120117,0.6349577995147093,34.0,345.0,0.0
G,D,"[6, 4]",0.0,1.0,0.5449299812316895,1.822355031967163,0.27436703088405207,34.0,346.0,0.0
Y,R,"[6, 5]",0.0,1.0,0.5813820362091064,1.861820936203003,0.2861995764626325,34.0,347.0,0.0
R,U,"[5, 5]",0.0,1.0,0.30888986587524414,1.803328037261963,0.4893239798739425,34.0,348.0,0.0
B,L,"[5, 4]",-1.0,1.0,0.09295988082885742,5.549093961715698,0.32205552484458344,34.0,349.0,0.0
G,D,"[6, 4]",0.0,1.0,0.41083216667175293,2.0032029151916504,0.5917846905871613,34.0,350.0,0.0
,,"(6, 6)",,,,,,34.0,,
B,L,"[6, 5]",0.0,0.0,0.7342920303344727,3.7480390071868896,0.2902230898896893,,351.0,0.0
R,U,"[5, 5]",0.0,0.0,0.5291938781738281,2.2737350463867188,0.7467282600287615,35.0,352.0,0.0
G,D,"[6, 5]",0.0,0.0,0.31002020835876465,2.0088911056518555,0.6891025774605318,35.0,353.0,0.0
B,L,"[6, 4]",0.0,0.0,0.5599048137664795,1.9471900463104248,0.38661892948190446,35.0,354.0,0.0
Y,R,"[6, 5]",0.0,0.0,0.5781040191650391,2.1102750301361084,0.5301078311230456,35.0,355.0,0.0
G,D,"[7, 5]",0.0,0.0,0.5695397853851318,2.07529878616333,0.488937009944541,35.0,356.0,0.0
G,D,"[8, 5]",0.0,0.0,0.3161048889160156,1.8419508934020996,0.5309407750203308,35.0,357.0,0.0
R,U,"[7, 5]",0.0,0.0,0.31409311294555664,1.7799458503723145,0.460931971324098,35.0,358.0,0.0
Y,R,"[7, 6]",0.0,0.0,0.29236292839050293,1.6412830352783203,0.35227471371455743,35.0,359.0,0.0
B,L,"[7, 5]",0.0,0.0,0.20032191276550293,1.6539199352264404,0.4561647287517365,35.0,360.0,0.0
,,"(6, 6)",,,,,,35.0,,
G,D,"[7, 6]",0.0,0.0,0.5385720729827881,3.625648021697998,0.4153599876456458,,361.0,0.0
B,L,"[7, 5]",-2.0,0.0,1.031430959701538,2.7750210762023926,0.7067540690512594,36.0,362.0,0.0
R,U,"[6, 5]",0.0,0.0,0.8467850685119629,2.5922789573669434,0.7489396469054248,36.0,363.0,0.0
Y,R,"[6, 6]",0.0,0.0,0.37363100051879883,1.6781549453735352,0.29439431460700116,36.0,364.0,0.0
Y,R,"[6, 7]",0.0,0.0,0.7670199871063232,2.323306083679199,0.5673405413097079,36.0,365.0,0.0
G,D,"[7, 7]",0.0,0.0,0.4277951717376709,1.9960038661956787,0.5633441692536467,36.0,366.0,0.0
R,U,"[6, 7]",0.0,0.0,0.9458839893341064,2.2288119792938232,0.2759628992195646,36.0,367.0,0.0
R,U,"[5, 7]",1.0,1.0,0.4642670154571533,2.1637680530548096,0.7058950509342383,36.0,368.0,0.0
B,L,"[5, 6]",1.0,2.0,0.40779805183410645,1.6665802001953125,0.2562435869224544,36.0,369.0,0.0
R,U,"[4, 6]",0.0,2.0,0.30213284492492676,2.0398449897766113,0.7456276618800475,36.0,370.0,0.0
,,"(6, 6)",,,,,,36.0,,
R,U,"[5, 6]",1.0,1.0,0.5958778858184814,3.810260057449341,0.7394828396867311,,371.0,0.0
R,U,"[4, 6]",0.0,1.0,0.18326783180236816,1.8709139823913574,0.6937333177619458,37.0,372.0,0.0
B,L,"[4, 5]",0.0,1.0,0.19266390800476074,1.5262980461120605,0.3369603725339911,37.0,373.0,0.0
R,U,"[3, 5]",0.0,1.0,0.30803394317626953,1.8483569622039795,0.5351024245741877,37.0,374.0,0.0
G,D,"[4, 5]",0.0,1.0,0.1936478614807129,1.7554471492767334,0.5573139191037808,37.0,375.0,0.0
B,L,"[4, 4]",0.0,1.0,0.1899099349975586,1.6227009296417236,0.43030503735946535,37.0,376.0,0.0
B,L,"[4, 3]",0.0,1.0,0.22034311294555664,1.7217769622802734,0.48535085421680624,37.0,377.0,0.0
G,D,"[5, 3]",0.0,1.0,0.21178698539733887,1.6105408668518066,0.39617805221310143,37.0,378.0,0.0
Y,R,"[5, 4]",0.0,1.0,0.26895904541015625,1.9909257888793945,0.7199871493559385,37.0,379.0,0.0
R,U,"[4, 4]",0.0,1.0,0.48788905143737793,2.0802500247955322,0.5838272502561854,37.0,380.0,0.0
,,"(6, 6)",,,,,,37.0,,
R,U,"[5, 6]",1.0,1.0,0.4965851306915283,3.4114270210266113,0.5619812698562512,,381.0,0.0
R,U,"[4, 6]",0.0,1.0,0.2945880889892578,1.636031150817871,0.34815478237019065,38.0,382.0,0.0
B,L,"[4, 5]",0.0,1.0,0.4236030578613281,1.849548101425171,0.41440867141456234,38.0,383.0,0.0
Y,R,"[4, 6]",0.0,1.0,0.5045099258422852,2.2291669845581055,0.7100700726251465,38.0,384.0,0.0
Y,R,"[4, 7]",0.0,1.0,0.31903505325317383,1.9735569953918457,0.6503341313827696,38.0,385.0,0.0
R,U,"[3, 7]",0.0,1.0,0.605802059173584,1.956786870956421,0.3407976407547625,38.0,386.0,0.0
R,U,"[2, 7]",0.0,1.0,0.20602202415466309,1.6210670471191406,0.41195690549802366,38.0,387.0,0.0
G,D,"[3, 7]",0.0,1.0,0.3731999397277832,2.0169730186462402,0.64539234077823,38.0,388.0,0.0
G,D,"[4, 7]",0.0,1.0,0.2006230354309082,1.867156982421875,0.645681432012766,38.0,389.0,0.0
B,L,"[4, 6]",0.0,1.0,0.3627810478210449,1.861037015914917,0.49037763388047734,38.0,390.0,0.0
,,"(6, 6)",,,,,,38.0,,
Y,R,"[6, 7]",0.0,0.0,0.5204000473022461,3.8620409965515137,0.5691116696747824,,391.0,0.0
R,U,"[5, 7]",1.0,1.0,0.15796899795532227,1.4891409873962402,0.32528765044691615,39.0,392.0,0.0
G,D,"[6, 7]",0.0,1.0,0.3878049850463867,1.6743969917297363,0.2829955996959425,39.0,393.0,0.0
R,U,"[5, 7]",0.0,1.0,0.19141292572021484,1.6473989486694336,0.4468269634323757,39.0,394.0,0.0
B,L,"[5, 6]",1.0,2.0,0.2743260860443115,1.7318511009216309,0.44553097196420993,39.0,395.0,0.0
G,D,"[6, 6]",0.0,2.0,0.24290800094604492,1.5972731113433838,0.35956397855243655,39.0,396.0,0.0
B,L,"[6, 5]",0.0,2.0,0.18581795692443848,1.4752099514007568,0.28496047519424944,39.0,397.0,0.0
G,D,"[7, 5]",0.0,2.0,0.1725449562072754,1.7863848209381104,0.6043099407386487,39.0,398.0,0.0
Y,R,"[7, 6]",0.0,2.0,0.20854806900024414,1.8282499313354492,0.6157806651524058,39.0,399.0,0.0
G,D,"[8, 6]",-2.0,2.0,1.187082052230835,2.8767828941345215,0.6426807485534168,39.0,400.0,0.0
,,"(6, 6)",,,,,,39.0,,
G,D,"[7, 6]",0.0,0.0,0.48983001708984375,3.1600019931793213,0.41965208870974924,,401.0,0.0
B,L,"[7, 5]",0.0,0.0,0.17098689079284668,1.5351550579071045,0.3549707991020867,40.0,402.0,0.0
Y,R,"[7, 6]",-1.0,0.0,0.09851598739624023,5.743607044219971,0.5152987947860161,40.0,403.0,0.0
Y,R,"[7, 7]",0.0,0.0,0.2076129913330078,1.7655620574951172,0.5473989315118528,40.0,404.0,0.0
R,U,"[6, 7]",0.0,0.0,0.39400196075439453,2.1160290241241455,0.7133068686273624,40.0,405.0,0.0
B,L,"[6, 6]",0.0,0.0,0.2462301254272461,1.799649953842163,0.5464649092349807,40.0,406.0,0.0
G,D,"[7, 6]",0.0,0.0,0.14960193634033203,1.5093321800231934,0.3561697041528899,40.0,407.0,0.0
B,L,"[7, 5]",0.0,0.0,0.48763298988342285,2.1161539554595947,0.6219835273326578,40.0,408.0,0.0
Y,R,"[7, 6]",0.0,0.0,0.2363109588623047,1.9021918773651123,0.6575678417185779,40.0,409.0,0.0
R,U,"[6, 6]",0.0,0.0,0.20965909957885742,1.537376880645752,0.32859607898348275,40.0,410.0,0.0
,,"(6, 6)",,,,,,40.0,,
B,L,"[6, 5]",0.0,0.0,0.5922420024871826,3.4264650344848633,0.3052719787496691,,411.0,0.0
G,D,"[7, 5]",0.0,0.0,0.9277031421661377,2.3499538898468018,0.4216755986521914,41.0,412.0,0.0
G,D,"[8, 5]",0.0,0.0,0.1438000202178955,1.8217699527740479,0.6766083742434166,41.0,413.0,0.0
B,L,"[8, 4]",0.0,0.0,0.18807005882263184,1.6423978805541992,0.4692317291766264,41.0,414.0,0.0
Y,R,"[8, 5]",0.0,0.0,0.4820129871368408,1.8123469352722168,0.3317208636396129,41.0,415.0,0.0
R,U,"[7, 5]",0.0,0.0,0.2895510196685791,2.018975019454956,0.7171587425138274,41.0,416.0,0.0
Y,R,"[7, 6]",0.0,0.0,0.19002485275268555,1.8668298721313477,0.6677048963519083,41.0,417.0,0.0
R,U,"[6, 6]",0.0,0.0,0.22126293182373047,1.6799979209899902,0.4475822337248956,41.0,418.0,0.0
B,L,"[6, 5]",0.0,0.0,0.5281038284301758,2.1286520957946777,0.5927752625245506,41.0,419.0,0.0
G,D,"[7, 5]",0.0,0.0,0.29430580139160156,1.6845622062683105,0.3942493579470961,41.0,420.0,0.0
,,"(6, 6)",,,,,,41.0,,
Y,R,"[6, 7]",0.0,0.0,0.44124507904052734,3.338826894760132,0.39981801741819306,,421.0,0.0
G,D,"[7, 7]",0.0,0.0,0.2022719383239746,1.7538471221923828,0.5535249120731085,42.0,422.0,0.0
Y,R,"[7, 8]",0.0,0.0,0.18217706680297852,1.8966050148010254,0.7165789884563822,42.0,423.0,0.0
G,D,"[8, 8]",0.0,0.0,0.19258999824523926,1.615351915359497,0.4157075605131607,42.0,424.0,0.0
R,U,"[7, 8]",-1.0,0.0,0.016309022903442383,5.66021990776062,0.509531255174371,42.0,425.0,0.0
Y,R,"[7, 9]",0.0,0.0,0.2859480381011963,1.7058460712432861,0.41526406526737036,42.0,426.0,0.0
R,U,"[6, 9]",1.0,1.0,0.16739487648010254,1.5073020458221436,0.3226973943722472,42.0,427.0,0.0
R,U,"[5, 9]",0.0,1.0,0.28046202659606934,1.7784948348999023,0.5011128781332979,42.0,428.0,0.0
G,D,"[6, 9]",0.0,1.0,0.28011202812194824,1.9438059329986572,0.6613421193872735,42.0,429.0,0.0
B,L,"[6, 8]",1.0,2.0,0.36180710792541504,1.6581370830535889,0.30325027235760027,42.0,430.0,0.0
,,"(6, 6)",,,,,,42.0,,
B,L,"[6, 5]",0.0,0.0,0.4435570240020752,3.31278920173645,0.7323660004712151,,431.0,0.0
G,D,"[7, 5]",0.0,0.0,0.22266697883605957,1.8873300552368164,0.6530728179731391,43.0,432.0,0.0
Y,R,"[7, 6]",0.0,0.0,0.251615047454834,1.9438230991363525,0.6970720731362586,43.0,433.0,0.0
G,D,"[8, 6]",0.0,0.0,0.29672813415527344,2.017454147338867,0.7144043134860603,43.0,434.0,0.0
B,L,"[8, 5]",0.0,0.0,0.2960231304168701,1.7842869758605957,0.4823206876678275,43.0,435.0,0.0
G,D,"[9, 5]",0.0,0.0,0.21773505210876465,1.665004014968872,0.447431080759416,43.0,436.0,0.0
R,U,"[8, 5]",0.0,0.0,0.30013394355773926,1.7017779350280762,0.39925575534985674,43.0,437.0,0.0
Y,R,"[8, 6]",0.0,0.0,0.2990548610687256,1.8515360355377197,0.5506667191310719,43.0,438.0,0.0
B,L,"[8, 5]",0.0,0.0,0.22902202606201172,1.95878005027771,0.7260874944316502,43.0,439.0,0.0
G,D,"[9, 5]",0.0,0.0,0.23423290252685547,1.5632200241088867,0.3396634138716343,43.0,440.0,0.0
,,"(6, 6)",,,,,,43.0,,
Y,R,"[6, 7]",0.0,0.0,0.42177796363830566,3.184536933898926,0.39083412851644467,,441.0,0.0
R,U,"[5, 7]",1.0,1.0,0.3063030242919922,1.573693037033081,0.2647359004899583,44.0,442.0,0.0
B,L,"[5, 6]",1.0,2.0,0.9000580310821533,2.498131036758423,0.5792749382714932,44.0,443.0,0.0
R,U,"[4, 6]",0.0,2.0,0.32013702392578125,1.8867571353912354,0.5494249695243977,44.0,444.0,0.0
B,L,"[4, 5]",0.0,2.0,0.23195695877075195,1.9587500095367432,0.7247872527739974,44.0,445.0,0.0
G,D,"[5, 5]",0.0,2.0,0.2988309860229492,1.948763132095337,0.6568809850377568,44.0,446.0,0.0
Y,R,"[5, 6]",-2.0,2.0,1.3740599155426025,3.155102014541626,0.745427688974337,44.0,447.0,0.0
Y,R,"[5, 7]",0.0,2.0,0.17460203170776367,1.6775150299072266,0.5065693161440581,44.0,448.0,0.0
G,D,"[6, 7]",0.0,2.0,0.3041110038757324,1.739171028137207,0.42914121398537625,44.0,449.0,0.0
B,L,"[6, 6]",0.0,2.0,0.24169516563415527,1.8563108444213867,0.6184937269774022,44.0,450.0,0.0
,,"(6, 6)",,,,,,44.0,,
B,L,"[6, 5]",0.0,0.0,0.3839080333709717,3.7583839893341064,0.6931583179751482,,451.0,0.0
G,D,"[7, 5]",0.0,0.0,0.4010798931121826,1.9722540378570557,0.5827295925408934,45.0,452.0,0.0
Y,R,"[7, 6]",0.0,0.0,0.19171595573425293,1.5051610469818115,0.30486028253964526,45.0,453.0,0.0
R,U,"[6, 6]",0.0,0.0,0.19679903984069824,1.5127558708190918,0.3176391042714513,45.0,454.0,0.0
B,L,"[6, 5]",0.0,0.0,0.24021100997924805,1.5630178451538086,0.313981059373303,45.0,455.0,0.0
G,D,"[7, 5]",0.0,0.0,0.25858283042907715,1.7472748756408691,0.4778279816880616,45.0,456.0,0.0
R,U,"[6, 5]",0.0,0.0,0.1316359043121338,1.628669023513794,0.506506879806712,45.0,457.0,0.0
B,L,"[6, 4]",0.0,0.0,0.23302912712097168,1.937211036682129,0.7100187966331521,45.0,458.0,0.0
R,U,"[5, 4]",0.0,0.0,0.518775224685669,2.1272969245910645,0.604256014609077,45.0,459.0,0.0
G,D,"[6, 4]",0.0,0.0,0.1906120777130127,1.9109280109405518,0.7152955113963885,45.0,460.0,0.0
,,"(6, 6)",,,,,,45.0,,
Y,R,"[6, 7]",0.0,0.0,0.39544200897216797,3.3184101581573486,0.7337617804960518,,461.0,0.0
G,D,"[7, 7]",0.0,0.0,0.1894991397857666,1.587291955947876,0.3879858610604353,46.0,462.0,0.0
B,L,"[7, 6]",0.0,0.0,0.32288599014282227,1.9049320220947266,0.5762207353149607,46.0,463.0,0.0
R,U,"[6, 6]",0.0,0.0,0.1971299648284912,1.800096035003662,0.60963918323603,46.0,464.0,0.0
G,D,"[7, 6]",0.0,0.0,0.1873929500579834,1.4794480800628662,0.28934988035677905,46.0,465.0,0.0
B,L,"[7, 5]",0.0,0.0,0.2369251251220703,1.9212050437927246,0.6768977283692301,46.0,466.0,0.0
Y,R,"[7, 6]",0.0,0.0,0.21536803245544434,1.6944260597229004,0.48830106925376415,46.0,467.0,0.0
R,U,"[6, 6]",0.0,0.0,0.3241150379180908,1.7337591648101807,0.40531441431584264,46.0,468.0,0.0
G,D,"[7, 6]",0.0,0.0,0.3820219039916992,1.835231065750122,0.45742751993729497,46.0,469.0,0.0
B,L,"[7, 5]",0.0,0.0,0.7677998542785645,2.077699899673462,0.3185197738219237,46.0,470.0,0.0
,,"(6, 6)",,,,,,46.0,,
Y,R,"[6, 7]",0.0,0.0,0.3670051097869873,2.9544570446014404,0.42302434814203416,,471.0,0.0
G,D,"[7, 7]",0.0,0.0,0.20968008041381836,1.9327619075775146,0.7221290583911382,47.0,472.0,0.0
B,L,"[7, 6]",0.0,0.0,0.44434690475463867,2.019469976425171,0.5750777970027791,47.0,473.0,0.0
G,D,"[8, 6]",-1.0,0.0,3.0994415283203125e-06,5.710286855697632,0.5855710195432138,47.0,474.0,0.0
R,U,"[7, 6]",0.0,0.0,0.2665269374847412,1.6982600688934326,0.43402855111580246,47.0,475.0,0.0
R,U,"[6, 6]",0.0,0.0,0.2572629451751709,1.644481897354126,0.37860827832149485,47.0,476.0,0.0
R,U,"[5, 6]",1.0,1.0,0.45409202575683594,1.88478684425354,0.4299458534671627,47.0,477.0,0.0
B,L,"[5, 5]",0.0,1.0,0.4761230945587158,2.0123441219329834,0.5255895446453949,47.0,478.0,0.0
R,U,"[4, 5]",0.0,1.0,0.30922603607177734,1.9901249408721924,0.682241295953317,47.0,479.0,0.0
G,D,"[5, 5]",0.0,1.0,0.4873988628387451,1.9768860340118408,0.4761294249039726,47.0,480.0,0.0
,,"(6, 6)",,,,,,47.0,,
G,D,"[7, 6]",0.0,0.0,0.726956844329834,3.4862239360809326,0.5290708207752252,,481.0,0.0
B,L,"[7, 5]",0.0,0.0,0.16548991203308105,1.5912070274353027,0.4369971602304863,48.0,482.0,0.0
Y,R,"[7, 6]",0.0,0.0,0.3582420349121094,1.7948179244995117,0.4319224259128359,48.0,483.0,0.0
R,U,"[6, 6]",0.0,0.0,0.7935400009155273,2.149660110473633,0.3482747961520023,48.0,484.0,0.0
B,L,"[6, 5]",0.0,0.0,0.7264981269836426,1.9897358417510986,0.25476751937286296,48.0,485.0,0.0
Y,R,"[6, 6]",-2.0,0.0,2.6673429012298584,4.2007927894592285,0.5053546872141543,48.0,486.0,0.0
R,U,"[5, 6]",1.0,1.0,0.4415600299835205,2.1383309364318848,0.6934476967218786,48.0,487.0,0.0
R,U,"[4, 6]",0.0,1.0,0.2265021800994873,1.8348579406738281,0.6119716208719164,48.0,488.0,0.0
Y,R,"[4, 7]",0.0,1.0,0.7120180130004883,2.237476110458374,0.5329369154164232,48.0,489.0,0.0
G,D,"[5, 7]",-1.0,1.0,0.09144806861877441,5.54768705368042,0.31433605875211024,48.0,490.0,0.0
,,"(6, 6)",,,,,,48.0,,
B,L,"[6, 5]",0.0,0.0,0.49190402030944824,5.185573101043701,0.6496943648627489,,491.0,0.0
B,L,"[6, 4]",0.0,0.0,0.130263090133667,1.4554200172424316,0.32205433315985144,49.0,492.0,0.0
G,D,"[7, 4]",0.0,0.0,0.26114606857299805,1.7177119255065918,0.45632603264029287,49.0,493.0,0.0
R,U,"[6, 4]",0.0,0.0,0.14839696884155273,1.7914621829986572,0.6477285246829547,49.0,494.0,0.0
B,L,"[6, 3]",0.0,0.0,0.14571809768676758,1.4591760635375977,0.307079524314307,49.0,495.0,0.0
Y,R,"[6, 4]",0.0,0.0,0.3265399932861328,1.6393980979919434,0.31329433285452124,49.0,496.0,0.0
Y,R,"[6, 5]",0.0,0.0,0.35201001167297363,1.8986749649047852,0.5449524053710565,49.0,497.0,0.0
Y,R,"[6, 6]",0.0,0.0,0.17255282402038574,1.4990198612213135,0.32771959626782005,49.0,498.0,0.0
R,U,"[5, 6]",1.0,1.0,0.5004310607910156,2.0819478034973145,0.5762187483025571,49.0,499.0,0.0
B,L,"[5, 5]",0.0,1.0,0.16825199127197266,1.7849938869476318,0.6279829032151891,49.0,500.0,0.0
,,"(6, 6)",,,,,,49.0,,
R,U,"[5, 6]",1.0,1.0,0.4320969581604004,2.911923885345459,0.2902633218588478,,501.0,0.0
R,U,"[4, 6]",0.0,1.0,0.4722321033477783,2.1461589336395264,0.6693380743424583,50.0,502.0,0.0
B,L,"[4, 5]",0.0,1.0,0.2054460048675537,1.7632019519805908,0.5492615137599899,50.0,503.0,0.0
G,D,"[5, 5]",-1.0,1.0,0.09819197654724121,5.825239896774292,0.5913963627603827,50.0,504.0,0.0
G,D,"[6, 5]",0.0,1.0,0.2711660861968994,1.902418851852417,0.643646183372401,50.0,505.0,0.0
G,D,"[7, 5]",0.0,1.0,0.16651391983032227,1.6481878757476807,0.49197222337943675,50.0,506.0,0.0
Y,R,"[7, 6]",0.0,1.0,0.14822793006896973,1.5748188495635986,0.43353855025875987,50.0,507.0,0.0
B,L,"[7, 5]",0.0,1.0,0.16124916076660156,1.5654559135437012,0.41568590033458863,50.0,508.0,0.0
G,D,"[8, 5]",0.0,1.0,0.21541714668273926,1.529707908630371,0.31206625016438044,50.0,509.0,0.0
R,U,"[7, 5]",0.0,1.0,0.19928193092346191,1.8227291107177734,0.6346880979203651,50.0,510.0,0.0
,,"(6, 6)",,,,,,50.0,,
B,L,"[6, 5]",0.0,0.0,0.5699689388275146,3.6161041259765625,0.48419438690246014,,511.0,0.0
B,L,"[6, 4]",0.0,0.0,0.2782881259918213,1.8431119918823242,0.5607085154118039,51.0,512.0,0.0
B,L,"[6, 3]",0.0,0.0,0.22277498245239258,1.8811659812927246,0.6584007695290285,51.0,513.0,0.0
B,L,"[6, 2]",0.0,0.0,0.27947497367858887,1.9027040004730225,0.6278677892592229,51.0,514.0,0.0
B,L,"[6, 1]",0.0,0.0,0.44655704498291016,1.9232831001281738,0.48456047270381786,51.0,515.0,0.0
R,U,"[5, 1]",0.0,0.0,0.16522002220153809,1.6797549724578857,0.5142793766965374,51.0,516.0,0.0
G,D,"[6, 1]",0.0,0.0,0.2600729465484619,1.840580940246582,0.571424411514734,51.0,517.0,0.0
Y,R,"[6, 2]",-1.0,0.0,0.0819098949432373,5.624902963638306,0.41331860351316824,51.0,518.0,0.0
Y,R,"[6, 3]",0.0,0.0,0.6565849781036377,2.3799080848693848,0.7095536671280349,51.0,519.0,0.0
G,D,"[7, 3]",-1.0,0.0,0.011222124099731445,5.821912050247192,0.6813599351348549,51.0,520.0,0.0
,,"(6, 6)",,,,,,51.0,,
R,U,"[5, 6]",1.0,1.0,0.46976590156555176,3.6520509719848633,0.2841930032603581,,521.0,0.0
R,U,"[4, 6]",0.0,1.0,0.8369991779327393,2.226954936981201,0.37747056153861813,52.0,522.0,0.0
B,L,"[4, 5]",0.0,1.0,0.18858695030212402,1.6758430004119873,0.4866260675361044,52.0,523.0,0.0
R,U,"[3, 5]",0.0,1.0,0.45201897621154785,2.0173439979553223,0.5539020930567984,52.0,524.0,0.0
G,D,"[4, 5]",-1.0,1.0,0.09465193748474121,5.808081865310669,0.5786335730174971,52.0,525.0,0.0
R,U,"[3, 5]",0.0,1.0,0.43271303176879883,1.971458911895752,0.550224522252938,52.0,526.0,0.0
B,L,"[3, 4]",0.0,1.0,0.13449406623840332,1.4400579929351807,0.30719235888038926,52.0,527.0,0.0
G,D,"[4, 4]",0.0,1.0,0.29867982864379883,1.912165880203247,0.6189450451890371,52.0,528.0,0.0
Y,R,"[4, 5]",0.0,1.0,0.1857600212097168,1.5179378986358643,0.3373234104466575,52.0,529.0,0.0
Y,R,"[4, 6]",0.0,1.0,0.2397630214691162,1.9278881549835205,0.681453720878689,52.0,530.0,0.0
,,"(6, 6)",,,,,,52.0,,
G,D,"[7, 6]",0.0,0.0,0.4732239246368408,3.393929958343506,0.4258276410159788,,531.0,0.0
B,L,"[7, 5]",0.0,0.0,0.24048805236816406,1.5284509658813477,0.2876311139037554,53.0,532.0,0.0
R,U,"[6, 5]",0.0,0.0,0.2456650733947754,1.8062341213226318,0.5602522738514268,53.0,533.0,0.0
Y,R,"[6, 6]",0.0,0.0,0.3153059482574463,1.8372790813446045,0.5309318154709002,53.0,534.0,0.0
B,L,"[6, 5]",0.0,0.0,0.24228119850158691,1.609544038772583,0.3572697566940972,53.0,535.0,0.0
G,D,"[7, 5]",0.0,0.0,0.24231791496276855,1.6626520156860352,0.41990189432493213,53.0,536.0,0.0
Y,R,"[7, 6]",0.0,0.0,0.133774995803833,1.6390628814697266,0.5089195362934263,53.0,537.0,0.0
Y,R,"[7, 7]",0.0,0.0,0.3047759532928467,2.0269129276275635,0.7189615527056928,53.0,538.0,0.0
Y,R,"[7, 8]",0.0,0.0,0.24743199348449707,1.6160361766815186,0.36852128800082407,53.0,539.0,0.0
Y,R,"[7, 9]",0.0,0.0,0.154587984085083,1.7492079734802246,0.5844497259380865,53.0,540.0,0.0
,,"(6, 6)",,,,,,53.0,,
G,D,"[7, 6]",0.0,0.0,0.24225497245788574,3.131539821624756,0.3827670734698852,,541.0,0.0
G,D,"[8, 6]",0.0,0.0,0.1593780517578125,1.5299880504608154,0.36273322866847624,54.0,542.0,0.0
Y,R,"[8, 7]",-1.0,0.0,0.06539011001586914,5.4835898876190186,0.28001069825157465,54.0,543.0,0.0
Y,R,"[8, 8]",0.0,0.0,0.5030660629272461,1.937816858291626,0.4176333145310671,54.0,544.0,0.0
B,L,"[8, 7]",0.0,0.0,0.40354394912719727,1.843925952911377,0.4281442214497002,54.0,545.0,0.0
G,D,"[9, 7]",0.0,0.0,0.2095170021057129,1.7715880870819092,0.5662158325498643,54.0,546.0,0.0
G,D,"[10, 7]",0.0,0.0,0.5572469234466553,2.145803928375244,0.5786612661194777,54.0,547.0,0.0
R,U,"[9, 7]",0.0,0.0,0.23782896995544434,1.6731469631195068,0.4354806674075092,54.0,548.0,0.0
B,L,"[9, 6]",0.0,0.0,0.22960209846496582,1.977334976196289,0.7456354961785066,54.0,549.0,0.0
G,D,"[10, 6]",0.0,0.0,0.23147797584533691,1.6220829486846924,0.3850344660827764,54.0,550.0,0.0
,,"(6, 6)",,,,,,54.0,,
R,U,"[5, 6]",1.0,1.0,0.41101813316345215,3.5657379627227783,0.7003404604880714,,551.0,0.0
R,U,"[4, 6]",0.0,1.0,0.5244410037994385,2.2807369232177734,0.7476747090301543,55.0,552.0,0.0
B,L,"[4, 5]",0.0,1.0,0.14961910247802734,1.897784948348999,0.7456001475251111,55.0,553.0,0.0
R,U,"[3, 5]",0.0,1.0,0.23079991340637207,1.7268621921539307,0.5059485734345226,55.0,554.0,0.0
Y,R,"[3, 6]",0.0,1.0,0.5506510734558105,1.9399299621582031,0.39620183334224246,55.0,555.0,0.0
Y,R,"[3, 7]",0.0,1.0,0.31763315200805664,1.886214017868042,0.5654639454230488,55.0,556.0,0.0
G,D,"[4, 7]",0.0,1.0,0.5580151081085205,2.0538699626922607,0.48617201856082015,55.0,557.0,0.0
Y,R,"[4, 8]",0.0,1.0,0.24223613739013672,1.995572805404663,0.7483570286342388,55.0,558.0,0.0
G,D,"[5, 8]",1.0,2.0,0.1851940155029297,1.4736430644989014,0.2722002079864682,55.0,559.0,0.0
G,D,"[6, 8]",1.0,3.0,0.307844877243042,1.9664878845214844,0.6548619563836036,55.0,560.0,0.0
,,"(6, 6)",,,,,,55.0,,
G,D,"[7, 6]",0.0,0.0,0.5692999362945557,3.538214921951294,0.5765983060699293,,561.0,0.0
B,L,"[7, 5]",-1.0,0.0,0.0773019790649414,5.602961778640747,0.3966209483211846,56.0,562.0,0.0
B,L,"[7, 4]",0.0,0.0,0.8133339881896973,2.238517999649048,0.418367104591268,56.0,563.0,0.0
B,L,"[7, 3]",0.0,0.0,0.41129517555236816,1.894150972366333,0.4792765530983347,56.0,564.0,0.0
G,D,"[8, 3]",0.0,0.0,0.4717280864715576,1.994286060333252,0.5234700051272905,56.0,565.0,0.0
R,U,"[7, 3]",0.0,0.0,0.3277769088745117,1.7596549987792969,0.4331884800859463,56.0,566.0,0.0
R,U,"[6, 3]",0.0,0.0,0.32653021812438965,1.869614839553833,0.5361193653996872,56.0,567.0,0.0
Y,R,"[6, 4]",-2.0,0.0,1.0117480754852295,2.774492025375366,0.7270340822586834,56.0,568.0,0.0
Y,R,"[6, 5]",0.0,0.0,0.2661459445953369,1.567479133605957,0.31164094813837845,56.0,569.0,0.0
Y,R,"[6, 6]",0.0,0.0,0.2573709487915039,1.9765000343322754,0.720947675123761,56.0,570.0,0.0
,,"(6, 6)",,,,,,56.0,,
G,D,"[7, 6]",0.0,0.0,0.6758460998535156,4.586941957473755,0.6747123776699466,,571.0,0.0
G,D,"[8, 6]",0.0,0.0,0.2979919910430908,1.6809570789337158,0.38935842941504156,57.0,572.0,0.0
G,D,"[9, 6]",0.0,0.0,0.3026771545410156,1.9573099613189697,0.6462118334837761,57.0,573.0,0.0
G,D,"[10, 6]",0.0,0.0,0.15733098983764648,1.6205339431762695,0.45046923834509667,57.0,574.0,0.0
G,D,"[11, 6]",-1.0,0.0,0.010812997817993164,5.757296085357666,0.624302557958407,57.0,575.0,0.0
B,L,"[11, 5]",-2.0,0.0,1.070770025253296,2.7881481647491455,0.6958409514764177,57.0,576.0,0.0
B,L,"[11, 4]",0.0,0.0,0.31366896629333496,1.9883160591125488,0.6674211905839884,57.0,577.0,0.0
G,D,"[12, 4]",-3.0,0.0,0.10351204872131348,1.7557799816131592,0.6567451387274132,57.0,578.0,0.0
G,D,"[11, 4]",0.0,0.0,0.20748496055603027,1.628971815109253,0.4191827628841199,57.0,579.0,0.0
Y,R,"[11, 5]",0.0,0.0,0.26430702209472656,1.9765188694000244,0.7121465765670839,57.0,580.0,0.0
,,"(6, 6)",,,,,,57.0,,
R,U,"[5, 6]",1.0,1.0,0.4541308879852295,3.6770970821380615,0.3063046606773411,,581.0,0.0
R,U,"[4, 6]",0.0,1.0,0.38244104385375977,1.842149019241333,0.46498336036431887,58.0,582.0,0.0
G,D,"[5, 6]",0.0,1.0,0.15672993659973145,1.775244951248169,0.6067942533547772,58.0,583.0,0.0
B,L,"[5, 5]",0.0,1.0,0.21992802619934082,1.4842300415039062,0.258017195149399,58.0,584.0,0.0
R,U,"[4, 5]",0.0,1.0,0.7116940021514893,2.3375940322875977,0.6286779275672691,58.0,585.0,0.0
Y,R,"[4, 6]",-1.0,1.0,0.0036139488220214844,5.474809885025024,0.3538386475535797,58.0,586.0,0.0
Y,R,"[4, 7]",0.0,1.0,0.4630460739135742,1.9999358654022217,0.5369448935806949,58.0,587.0,0.0
B,L,"[4, 6]",0.0,1.0,0.214080810546875,1.554213047027588,0.3412485940468207,58.0,588.0,0.0
G,D,"[5, 6]",0.0,1.0,0.2425251007080078,1.6344470977783203,0.39242548895703255,58.0,589.0,0.0
B,L,"[5, 5]",0.0,1.0,0.21512389183044434,1.8172249794006348,0.6094168800551212,58.0,590.0,0.0
,,"(6, 6)",,,,,,58.0,,
Y,R,"[6, 7]",0.0,0.0,0.40204811096191406,3.1436309814453125,0.40333296432674914,,591.0,0.0
Y,R,"[6, 8]",1.0,1.0,0.29660892486572266,1.7642009258270264,0.467441550832651,59.0,592.0,0.0
Y,R,"[6, 9]",1.0,2.0,0.21461009979248047,1.5339789390563965,0.3182276830944175,59.0,593.0,0.0
Y,R,"[6, 10]",1.0,3.0,0.4017219543457031,2.1585121154785156,0.7430976330429745,59.0,594.0,0.0
Y,R,"[6, 11]",0.0,3.0,0.21998286247253418,1.8310911655426025,0.6075533202251929,59.0,595.0,0.0
G,D,"[7, 11]",0.0,3.0,0.4747169017791748,1.918632984161377,0.4431568352394671,59.0,596.0,0.0
B,L,"[7, 10]",0.0,3.0,0.21688294410705566,1.6038870811462402,0.3969467432895226,59.0,597.0,0.0
G,D,"[8, 10]",0.0,3.0,0.29427289962768555,1.6205289363861084,0.3177457833890545,59.0,598.0,0.0
R,U,"[7, 10]",0.0,3.0,0.22883892059326172,1.6653001308441162,0.4328678988620091,59.0,599.0,0.0
R,U,"[6, 10]",0.0,3.0,0.25827693939208984,1.5462861061096191,0.279393614901184,59.0,600.0,0.0
,,"(6, 6)",,,,,,59.0,,
G,D,"[7, 6]",0.0,0.0,0.38705897331237793,3.230664014816284,0.6098770347905322,,601.0,0.0
B,L,"[7, 5]",0.0,0.0,0.4477670192718506,2.023285150527954,0.5828100354978404,60.0,602.0,0.0
Y,R,"[7, 6]",-1.0,0.0,0.09362196922302246,5.838361978530884,0.6047301174433579,60.0,603.0,0.0
G,D,"[8, 6]",0.0,0.0,0.3221428394317627,1.6767659187316895,0.3483650121052982,60.0,604.0,0.0
B,L,"[8, 5]",0.0,0.0,0.26377105712890625,1.9057090282440186,0.6372997684383765,60.0,605.0,0.0
Y,R,"[8, 6]",-1.0,0.0,0.023471832275390625,5.559578895568848,0.4137684635910835,60.0,606.0,0.0
B,L,"[8, 5]",0.0,0.0,0.7686028480529785,2.2768828868865967,0.5072532892744768,60.0,607.0,0.0
G,D,"[9, 5]",0.0,0.0,0.23681402206420898,1.939173936843872,0.6961917033179972,60.0,608.0,0.0
B,L,"[9, 4]",0.0,0.0,0.11004304885864258,1.5164217948913574,0.39632072338019864,60.0,609.0,0.0
R,U,"[8, 4]",0.0,0.0,0.19125914573669434,1.7128620147705078,0.5091388704423027,60.0,610.0,0.0
,,"(6, 6)",,,,,,60.0,,
B,L,"[6, 5]",0.0,0.0,0.3447251319885254,3.6308600902557373,0.40699225599634076,,611.0,0.0
Y,R,"[6, 6]",0.0,0.0,0.1961658000946045,1.449970006942749,0.2568903110348098,61.0,612.0,0.0
G,D,"[7, 6]",0.0,0.0,0.20319819450378418,1.856212854385376,0.6460737547571668,61.0,613.0,0.0
R,U,"[6, 6]",0.0,0.0,0.22255492210388184,1.5014069080352783,0.26446924229518654,61.0,614.0,0.0
B,L,"[6, 5]",0.0,0.0,0.23756098747253418,1.6689209938049316,0.41675814793528904,61.0,615.0,0.0
G,D,"[7, 5]",0.0,0.0,0.19700980186462402,1.617645025253296,0.41781522496946777,61.0,616.0,0.0
R,U,"[6, 5]",0.0,0.0,0.34633803367614746,1.9866001605987549,0.6374128645234731,61.0,617.0,0.0
Y,R,"[6, 6]",0.0,0.0,0.15072202682495117,1.6830930709838867,0.5372132946477524,61.0,618.0,0.0
G,D,"[7, 6]",-1.0,0.0,0.09272503852844238,5.483710050582886,0.2546946003837337,61.0,619.0,0.0
G,D,"[8, 6]",-1.0,0.0,0.007169961929321289,5.498802900314331,0.3700076865111697,61.0,620.0,0.0
,,"(6, 6)",,,,,,61.0,,
G,D,"[7, 6]",0.0,0.0,0.9224898815155029,4.595960855484009,0.3161478493004125,,621.0,0.0
B,L,"[7, 5]",0.0,0.0,0.29995298385620117,1.57204008102417,0.27157041461777837,62.0,622.0,0.0
B,L,"[7, 4]",0.0,0.0,0.4790370464324951,1.741826057434082,0.26345663697050326,62.0,623.0,0.0
Y,R,"[7, 5]",0.0,0.0,0.29453206062316895,2.0234639644622803,0.7197918071988514,62.0,624.0,0.0
G,D,"[8, 5]",0.0,0.0,0.45012903213500977,2.022878885269165,0.5762561784058622,62.0,625.0,0.0
R,U,"[7, 5]",0.0,0.0,0.1961369514465332,1.4526629447937012,0.2625448356416887,62.0,626.0,0.0
B,L,"[7, 4]",0.0,0.0,0.5242631435394287,2.128091812133789,0.6067832841346396,62.0,627.0,0.0
Y,R,"[7, 5]",0.0,0.0,0.9913110733032227,2.345107078552246,0.35217689620700326,62.0,628.0,0.0
B,L,"[7, 4]",-2.0,0.0,1.241405963897705,2.891274929046631,0.6100750030986171,62.0,629.0,0.0
G,D,"[8, 4]",-2.0,0.0,1.412872076034546,2.8073790073394775,0.3677341438510468,62.0,630.0,0.0
,,"(6, 6)",,,,,,62.0,,
G,D,"[7, 6]",0.0,0.0,0.3397181034088135,3.4711570739746094,0.538905224954806,,631.0,0.0
R,U,"[6, 6]",0.0,0.0,0.22526001930236816,1.708867073059082,0.4810080393395362,63.0,632.0,0.0
Y,R,"[6, 7]",0.0,0.0,0.3260781764984131,1.9227280616760254,0.5870025945302261,63.0,633.0,0.0
G,D,"[7, 7]",0.0,0.0,0.20536303520202637,1.5120620727539062,0.2993963686133395,63.0,634.0,0.0
B,L,"[7, 6]",0.0,0.0,0.291856050491333,1.9981698989868164,0.697331505698334,63.0,635.0,0.0
R,U,"[6, 6]",0.0,0.0,0.23241901397705078,1.8156850337982178,0.5796572333671055,63.0,636.0,0.0
Y,R,"[6, 7]",0.0,0.0,0.1825411319732666,1.541454792022705,0.3546776425603265,63.0,637.0,0.0
G,D,"[7, 7]",0.0,0.0,0.2648928165435791,1.6965599060058594,0.4344849189107895,63.0,638.0,0.0
B,L,"[7, 6]",0.0,0.0,0.17025208473205566,1.6756749153137207,0.49362278136112714,63.0,639.0,0.0
B,L,"[7, 5]",0.0,0.0,0.20136404037475586,1.5738818645477295,0.35087831074607106,63.0,640.0,0.0
,,"(6, 6)",,,,,,63.0,,
B,L,"[6, 5]",0.0,0.0,0.5573008060455322,3.0717477798461914,0.3393355837173656,,641.0,0.0
G,D,"[7, 5]",0.0,0.0,0.19781804084777832,1.552760124206543,0.35860227610758416,64.0,642.0,0.0
R,U,"[6, 5]",0.0,0.0,0.17970585823059082,1.4737751483917236,0.29941092580014306,64.0,643.0,0.0
Y,R,"[6, 6]",0.0,0.0,0.12544488906860352,1.6898729801177979,0.5556719728020492,64.0,644.0,0.0
Y,R,"[6, 7]",0.0,0.0,0.21815204620361328,1.7790589332580566,0.551323176988467,64.0,645.0,0.0
Y,R,"[6, 8]",1.0,1.0,0.23492002487182617,1.5545480251312256,0.30621357272255884,64.0,646.0,0.0
Y,R,"[6, 9]",1.0,2.0,0.274838924407959,1.5671539306640625,0.29003323712567486,64.0,647.0,0.0
Y,R,"[6, 10]",1.0,3.0,0.20078516006469727,1.5710039138793945,0.3610852892929624,64.0,648.0,0.0
Y,R,"[6, 11]",0.0,3.0,0.20585203170776367,1.4582068920135498,0.25269420955534316,64.0,649.0,0.0
G,D,"[7, 11]",0.0,3.0,0.328233003616333,1.80448317527771,0.4736065172310815,64.0,650.0,0.0
,,"(6, 6)",,,,,,64.0,,
B,L,"[6, 5]",0.0,0.0,0.8713629245758057,4.016756057739258,0.5236893919329628,,651.0,0.0
G,D,"[7, 5]",0.0,0.0,0.285628080368042,1.8510761260986328,0.5579950138378733,65.0,652.0,0.0
Y,R,"[7, 6]",0.0,0.0,0.10988283157348633,1.767167091369629,0.6585925795651595,65.0,653.0,0.0
R,U,"[6, 6]",0.0,0.0,0.35706615447998047,2.0382699966430664,0.6800634946941759,65.0,654.0,0.0
G,D,"[7, 6]",0.0,0.0,0.21619892120361328,1.526068925857544,0.3067314341864997,65.0,655.0,0.0
B,L,"[7, 5]",0.0,0.0,0.23949718475341797,1.509422779083252,0.2827202260498597,65.0,656.0,0.0
Y,R,"[7, 6]",0.0,0.0,0.6760351657867432,1.9825470447540283,0.29871569497691847,65.0,657.0,0.0
G,D,"[8, 6]",0.0,0.0,0.32761311531066895,2.0020620822906494,0.6670946495091322,65.0,658.0,0.0
B,L,"[8, 5]",0.0,0.0,0.32364606857299805,1.6839730739593506,0.35125479278449256,65.0,659.0,0.0
G,D,"[9, 5]",0.0,0.0,0.40639591217041016,1.9321300983428955,0.5166341115426603,65.0,660.0,0.0
,,"(6, 6)",,,,,,65.0,,
R,U,"[5, 6]",1.0,1.0,0.4964449405670166,3.43298602104187,0.46641304203070977,,661.0,0.0
R,U,"[4, 6]",0.0,1.0,0.20789694786071777,1.7257850170135498,0.5088597534515538,66.0,662.0,0.0
B,L,"[4, 5]",0.0,1.0,0.3262298107147217,1.645226001739502,0.32080182793083933,66.0,663.0,0.0
Y,R,"[4, 6]",0.0,1.0,0.5221462249755859,1.8932061195373535,0.36406280111633244,66.0,664.0,0.0
G,D,"[5, 6]",0.0,1.0,0.4324641227722168,2.002916097640991,0.5668639179806845,66.0,665.0,0.0
Y,R,"[5, 7]",1.0,2.0,0.2598998546600342,1.592716932296753,0.3263999481239566,66.0,666.0,0.0
G,D,"[6, 7]",0.0,2.0,0.3553280830383301,1.9262199401855469,0.5691945121887305,66.0,667.0,0.0
Y,R,"[6, 8]",1.0,3.0,0.23583292961120605,1.5235590934753418,0.27620089998918107,66.0,668.0,0.0
Y,R,"[6, 9]",1.0,4.0,0.22559499740600586,1.5527880191802979,0.32917071795309377,66.0,669.0,0.0
B,L,"[6, 8]",0.0,4.0,0.4132699966430664,1.7647089958190918,0.3605093490941629,66.0,670.0,0.0
,,"(6, 6)",,,,,,66.0,,
Y,R,"[6, 7]",0.0,0.0,0.3682870864868164,3.121504068374634,0.5819447847419179,,671.0,0.0
R,U,"[5, 7]",1.0,1.0,0.32384300231933594,1.702643871307373,0.3680386922973459,67.0,672.0,0.0
B,L,"[5, 6]",1.0,2.0,0.6617040634155273,2.1233408451080322,0.4573730520800549,67.0,673.0,0.0
R,U,"[4, 6]",0.0,2.0,0.5138909816741943,1.941335916519165,0.4327268685650538,67.0,674.0,0.0
B,L,"[4, 5]",0.0,2.0,0.25322699546813965,1.8597378730773926,0.5923225168050299,67.0,675.0,0.0
G,D,"[5, 5]",0.0,2.0,0.18831300735473633,1.6963138580322266,0.5053615387637779,67.0,676.0,0.0
G,D,"[6, 5]",0.0,2.0,0.2622809410095215,1.8358168601989746,0.5745160226774448,67.0,677.0,0.0
G,D,"[7, 5]",0.0,2.0,0.20491695404052734,1.8371798992156982,0.6449586209161176,67.0,678.0,0.0
G,D,"[8, 5]",0.0,2.0,0.29060816764831543,1.599912166595459,0.3120124752456483,67.0,679.0,0.0
R,U,"[7, 5]",0.0,2.0,0.37175416946411133,2.088510036468506,0.7167506919979696,67.0,680.0,0.0
,,"(6, 6)",,,,,,67.0,,
B,L,"[6, 5]",0.0,0.0,0.8560390472412109,3.548218011856079,0.41526855082509917,,681.0,0.0
G,D,"[7, 5]",0.0,0.0,0.3267800807952881,1.9172618389129639,0.5825206275345713,68.0,682.0,0.0
G,D,"[8, 5]",-1.0,0.0,0.07097792625427246,5.456986904144287,0.2565518152849259,68.0,683.0,0.0
G,D,"[9, 5]",0.0,0.0,0.5143489837646484,2.1770639419555664,0.6665744974202474,68.0,684.0,0.0
B,L,"[9, 4]",-2.0,0.0,1.9822158813476562,3.6617400646209717,0.6449073329553042,68.0,685.0,0.0
B,L,"[9, 3]",0.0,0.0,0.26128697395324707,1.971181869506836,0.7160695069681597,68.0,686.0,0.0
Y,R,"[9, 4]",0.0,0.0,0.2700169086456299,1.9325718879699707,0.6487665652045741,68.0,687.0,0.0
R,U,"[8, 4]",0.0,0.0,0.29079198837280273,1.9147319793701172,0.6135187858232267,68.0,688.0,0.0
R,U,"[7, 4]",-2.0,0.0,1.139286994934082,2.7943880558013916,0.607968899801453,68.0,689.0,0.0
R,U,"[6, 4]",0.0,0.0,0.21503210067749023,1.6017110347747803,0.39325768847792825,68.0,690.0,0.0
,,"(6, 6)",,,,,,68.0,,
R,U,"[5, 6]",1.0,1.0,0.5026209354400635,3.0746078491210938,0.334731788984255,,691.0,0.0
R,U,"[4, 6]",0.0,1.0,0.20179104804992676,1.801481008529663,0.5860018268128061,69.0,692.0,0.0
G,D,"[5, 6]",0.0,1.0,0.22684192657470703,1.8638520240783691,0.6331419464354844,69.0,693.0,0.0
B,L,"[5, 5]",0.0,1.0,0.32822084426879883,2.051877975463867,0.7182300623299835,69.0,694.0,0.0
Y,R,"[5, 6]",0.0,1.0,0.11963391304016113,1.6691601276397705,0.5542486744128052,69.0,695.0,0.0
G,D,"[6, 6]",0.0,1.0,0.5571150779724121,2.086488962173462,0.52410287555509,69.0,696.0,0.0
B,L,"[6, 5]",0.0,1.0,0.3192710876464844,1.7088940143585205,0.39994517113931827,69.0,697.0,0.0
G,D,"[7, 5]",0.0,1.0,0.3447151184082031,1.681274175643921,0.33118042879548854,69.0,698.0,0.0
G,D,"[8, 5]",0.0,1.0,0.24681711196899414,1.8593709468841553,0.6069466755728483,69.0,699.0,0.0
R,U,"[7, 5]",0.0,1.0,0.1646270751953125,1.796442985534668,0.6368429932493016,69.0,700.0,0.0
,,"(6, 6)",,,,,,69.0,,
G,D,"[7, 6]",0.0,0.0,0.6282329559326172,3.4632749557495117,0.3837195252759045,,701.0,0.0
G,D,"[8, 6]",0.0,0.0,0.2560110092163086,1.8475308418273926,0.5809912207134016,70.0,702.0,0.0
B,L,"[8, 5]",0.0,0.0,0.28327488899230957,1.9139349460601807,0.6283640094571812,70.0,703.0,0.0
G,D,"[9, 5]",0.0,0.0,0.33821916580200195,1.8715078830718994,0.533321078519868,70.0,704.0,0.0
G,D,"[10, 5]",-1.0,0.0,0.028136014938354492,5.664816856384277,0.4980482187669017,70.0,705.0,0.0
G,D,"[11, 5]",0.0,0.0,0.327394962310791,1.9264349937438965,0.5913346369627409,70.0,706.0,0.0
G,D,"[12, 5]",-3.0,0.0,0.3558540344238281,1.7033329010009766,0.34484165128149824,70.0,707.0,0.0
B,L,"[11, 5]",0.0,0.0,0.719871997833252,1.9960510730743408,0.27428219584549984,70.0,708.0,0.0
G,D,"[12, 5]",-3.0,0.0,0.3950228691101074,1.8024020195007324,0.409923574635218,70.0,709.0,0.0
G,D,"[11, 5]",0.0,0.0,0.307506799697876,1.9206740856170654,0.6136506324402495,70.0,710.0,0.0
,,"(6, 6)",,,,,,70.0,,
G,D,"[7, 6]",0.0,0.0,0.3650040626525879,2.71384596824646,0.29463796117041924,,711.0,0.0
G,D,"[8, 6]",0.0,0.0,0.28406786918640137,1.839724063873291,0.5674192317029942,71.0,712.0,0.0
G,D,"[9, 6]",-1.0,0.0,0.05730390548706055,5.500078916549683,0.31778489242576663,71.0,713.0,0.0
G,D,"[10, 6]",0.0,0.0,0.4960498809814453,1.8829820156097412,0.3842234569610758,71.0,714.0,0.0
Y,R,"[10, 7]",0.0,0.0,0.38280296325683594,1.7040290832519531,0.32148632047651104,71.0,715.0,0.0
R,U,"[9, 7]",0.0,0.0,0.6709518432617188,2.0552492141723633,0.3768235575593498,71.0,716.0,0.0
B,L,"[9, 6]",0.0,0.0,0.2222151756286621,1.7642650604248047,0.5408823886747809,71.0,717.0,0.0
G,D,"[10, 6]",0.0,0.0,0.2126598358154297,1.7385880947113037,0.5295837227527804,71.0,718.0,0.0
Y,R,"[10, 7]",-1.0,0.0,0.06167888641357422,5.458927154541016,0.25545512380414515,71.0,719.0,0.0
Y,R,"[10, 8]",0.0,0.0,0.3966219425201416,1.8943181037902832,0.49991052133302505,71.0,720.0,0.0
,,"(6, 6)",,,,,,71.0,,
Y,R,"[6, 7]",0.0,0.0,0.45174598693847656,3.6140849590301514,0.5470765246522639,,721.0,0.0
R,U,"[5, 7]",1.0,1.0,0.5671350955963135,2.2156660556793213,0.6293521903322259,72.0,722.0,0.0
B,L,"[5, 6]",1.0,2.0,0.7796130180358887,2.4579038619995117,0.6705629367795681,72.0,723.0,0.0
R,U,"[4, 6]",0.0,2.0,0.27222299575805664,1.8673138618469238,0.5880652103050439,72.0,724.0,0.0
B,L,"[4, 5]",0.0,2.0,0.23965907096862793,1.9573719501495361,0.7118777215148566,72.0,725.0,0.0
G,D,"[5, 5]",0.0,2.0,0.39196109771728516,1.9004290103912354,0.5126075174629703,72.0,726.0,0.0
Y,R,"[5, 6]",0.0,2.0,0.34543299674987793,1.6855180263519287,0.33169625671585196,72.0,727.0,0.0
R,U,"[4, 6]",0.0,2.0,0.45619797706604004,1.7757689952850342,0.30741910270743844,72.0,728.0,0.0
B,L,"[4, 5]",0.0,2.0,0.2255268096923828,1.8315558433532715,0.6054509622011128,72.0,729.0,0.0
G,D,"[5, 5]",-1.0,2.0,0.05651593208312988,5.73829984664917,0.5600301745978279,72.0,730.0,0.0
,,"(6, 6)",,,,,,72.0,,
G,D,"[7, 6]",0.0,0.0,0.5052340030670166,4.344566822052002,0.6717764930345717,,731.0,0.0
Y,R,"[7, 7]",0.0,0.0,0.39734601974487305,2.0505759716033936,0.6557571732703453,73.0,732.0,0.0
Y,R,"[7, 8]",0.0,0.0,0.22534489631652832,1.8551759719848633,0.6276396030083653,73.0,733.0,0.0
Y,R,"[7, 9]",0.0,0.0,0.2662191390991211,1.688425064086914,0.43290252140246616,73.0,734.0,0.0
Y,R,"[7, 10]",0.0,0.0,0.45833396911621094,1.9249141216278076,0.4575782425642683,73.0,735.0,0.0
Y,R,"[7, 11]",0.0,0.0,0.24303603172302246,1.9202909469604492,0.6778706482543501,73.0,736.0,0.0
G,D,"[8, 11]",0.0,0.0,0.5390620231628418,2.1687629222869873,0.6300271894351089,73.0,737.0,0.0
G,D,"[9, 11]",0.0,0.0,0.26001691818237305,1.5587241649627686,0.28913319628607814,73.0,738.0,0.0
G,D,"[10, 11]",0.0,0.0,0.4349520206451416,1.7406680583953857,0.3131335010755135,73.0,739.0,0.0
B,L,"[10, 10]",0.0,0.0,0.5182299613952637,1.924286127090454,0.40406278620572966,73.0,740.0,0.0
,,"(6, 6)",,,,,,73.0,,
B,L,"[6, 5]",0.0,0.0,0.4630920886993408,3.3769071102142334,0.6643181148766448,,741.0,0.0
B,L,"[6, 4]",0.0,0.0,0.5194559097290039,2.0962719917297363,0.5436144704173995,74.0,742.0,0.0
G,D,"[7, 4]",0.0,0.0,0.22793984413146973,1.7638380527496338,0.541116226994381,74.0,743.0,0.0
Y,R,"[7, 5]",0.0,0.0,0.30646419525146484,1.8220767974853516,0.5131776053850556,74.0,744.0,0.0
Y,R,"[7, 6]",0.0,0.0,0.2340691089630127,1.7362210750579834,0.49941046706747844,74.0,745.0,0.0
Y,R,"[7, 7]",0.0,0.0,0.18991589546203613,1.564573049545288,0.36414192741389007,74.0,746.0,0.0
Y,R,"[7, 8]",0.0,0.0,0.37819385528564453,1.8398051261901855,0.45379327818309556,74.0,747.0,0.0
R,U,"[6, 8]",1.0,1.0,0.36359190940856934,1.6356439590454102,0.27291483942097483,74.0,748.0,0.0
B,L,"[6, 7]",0.0,1.0,0.6106619834899902,2.070918083190918,0.46054872947795517,74.0,749.0,0.0
R,U,"[5, 7]",1.0,2.0,0.18501591682434082,1.5952680110931396,0.40594182325628425,74.0,750.0,0.0
,,"(6, 6)",,,,,,74.0,,
R,U,"[5, 6]",1.0,1.0,0.4615330696105957,3.913673162460327,0.5194356815067862,,751.0,0.0
R,U,"[4, 6]",-1.0,1.0,0.015047073364257812,5.7497289180755615,0.6025019860857679,75.0,752.0,0.0
R,U,"[3, 6]",0.0,1.0,0.44175100326538086,2.180026054382324,0.7324540827606514,75.0,753.0,0.0
B,L,"[3, 5]",0.0,1.0,0.37128496170043945,1.8794300556182861,0.495457122913235,75.0,754.0,0.0
G,D,"[4, 5]",0.0,1.0,0.23680400848388672,1.7428650856018066,0.5050237774858743,75.0,755.0,0.0
G,D,"[5, 5]",0.0,1.0,0.2507660388946533,1.8479390144348145,0.6028724935314239,75.0,756.0,0.0
G,D,"[6, 5]",0.0,1.0,0.283890962600708,1.9235239028930664,0.6429190834252683,75.0,757.0,0.0
Y,R,"[6, 6]",-1.0,1.0,0.00463104248046875,5.792961835861206,0.6694934260995706,75.0,758.0,0.0
Y,R,"[6, 7]",0.0,1.0,0.3264579772949219,1.8943610191345215,0.5639221097429694,75.0,759.0,0.0
B,L,"[6, 6]",0.0,1.0,0.9877471923828125,2.4050400257110596,0.40248124127876084,75.0,760.0,0.0
,,"(6, 6)",,,,,,75.0,,
B,L,"[6, 5]",0.0,0.0,0.777094841003418,4.014000177383423,0.46667562068276325,,761.0,0.0
B,L,"[6, 4]",0.0,0.0,0.303023099899292,2.0025269985198975,0.6854397216045143,76.0,762.0,0.0
G,D,"[7, 4]",0.0,0.0,0.2952611446380615,1.8016362190246582,0.5041436137989155,76.0,763.0,0.0
R,U,"[6, 4]",0.0,0.0,0.9858510494232178,2.262208938598633,0.26653804019852,76.0,764.0,0.0
Y,R,"[6, 5]",0.0,0.0,0.7986888885498047,2.1743569374084473,0.3740690380994807,76.0,765.0,0.0
G,D,"[7, 5]",0.0,0.0,0.40911316871643066,1.868514060974121,0.459217901761637,76.0,766.0,0.0
B,L,"[7, 4]",0.0,0.0,0.23065805435180664,1.612407922744751,0.3884069695485044,76.0,767.0,0.0
Y,R,"[7, 5]",0.0,0.0,0.3641500473022461,1.6939971446990967,0.3325642809082541,76.0,768.0,0.0
R,U,"[6, 5]",0.0,0.0,0.4210970401763916,1.9210081100463867,0.48666721722628,76.0,769.0,0.0
G,D,"[7, 5]",0.0,0.0,0.2976059913635254,1.9513728618621826,0.6545088480941649,76.0,770.0,0.0
,,"(6, 6)",,,,,,76.0,,
B,L,"[6, 5]",0.0,0.0,0.5506970882415771,3.802762985229492,0.640801605703716,,771.0,0.0
G,D,"[7, 5]",0.0,0.0,0.36165714263916016,2.0034570693969727,0.6442968649264245,77.0,772.0,0.0
Y,R,"[7, 6]",0.0,0.0,0.16456294059753418,1.9031181335449219,0.7473008744999323,77.0,773.0,0.0
R,U,"[6, 6]",0.0,0.0,0.31815409660339355,1.758993148803711,0.4401046260268583,77.0,774.0,0.0
G,D,"[7, 6]",0.0,0.0,0.5680298805236816,2.041574001312256,0.4815501525780634,77.0,775.0,0.0
B,L,"[7, 5]",0.0,0.0,0.3441150188446045,1.6998538970947266,0.3482465311028263,77.0,776.0,0.0
G,D,"[8, 5]",0.0,0.0,0.8553562164306641,2.1239418983459473,0.25575668824908804,77.0,777.0,0.0
R,U,"[7, 5]",0.0,0.0,0.5086309909820557,1.8219990730285645,0.3108009820489427,77.0,778.0,0.0
B,L,"[7, 4]",0.0,0.0,0.921968936920166,2.4462242126464844,0.5237043843056398,77.0,779.0,0.0
Y,R,"[7, 5]",0.0,0.0,0.5881240367889404,2.085218906402588,0.4923108795206522,77.0,780.0,0.0
,,"(6, 6)",,,,,,77.0,,
G,D,"[7, 6]",0.0,0.0,0.393265962600708,2.815042018890381,0.29093691715129943,,781.0,0.0
Y,R,"[7, 7]",0.0,0.0,0.24830079078674316,1.6001739501953125,0.35756221229967433,78.0,782.0,0.0
B,L,"[7, 6]",0.0,0.0,0.12035703659057617,1.7664740085601807,0.6406333710312373,78.0,783.0,0.0
Y,R,"[7, 7]",-2.0,0.0,2.2316620349884033,3.6580450534820557,0.39903011936602695,78.0,784.0,0.0
Y,R,"[7, 8]",0.0,0.0,0.3720400333404541,2.0253942012786865,0.6409101731071944,78.0,785.0,0.0
G,D,"[8, 8]",0.0,0.0,0.3206501007080078,2.0385921001434326,0.712692738158778,78.0,786.0,0.0
G,D,"[9, 8]",0.0,0.0,0.2526969909667969,1.6142430305480957,0.34409123583732565,78.0,787.0,0.0
G,D,"[10, 8]",0.0,0.0,0.5436351299285889,2.109050989151001,0.5696499685667306,78.0,788.0,0.0
G,D,"[11, 8]",0.0,0.0,0.466170072555542,2.1517090797424316,0.6878107989013972,78.0,789.0,0.0
Y,R,"[11, 9]",0.0,0.0,0.45990920066833496,1.7146010398864746,0.25297893181626196,78.0,790.0,0.0
,,"(6, 6)",,,,,,78.0,,
Y,R,"[6, 7]",0.0,0.0,0.36768317222595215,3.2234010696411133,0.5761073612397098,,791.0,0.0
Y,R,"[6, 8]",-1.0,0.0,0.014142990112304688,5.45404577255249,0.3138608214673792,79.0,792.0,0.0
Y,R,"[6, 9]",-2.0,0.0,1.7856900691986084,3.1318371295928955,0.3123888971824604,79.0,793.0,0.0
Y,R,"[6, 10]",1.0,1.0,0.41402101516723633,1.9485530853271484,0.5438948609337733,79.0,794.0,0.0
Y,R,"[6, 11]",0.0,1.0,0.4809451103210449,1.9867210388183594,0.5140749879781394,79.0,795.0,0.0
R,U,"[5, 11]",0.0,1.0,0.2142782211303711,1.8756179809570312,0.6562693363175695,79.0,796.0,0.0
G,D,"[6, 11]",0.0,1.0,0.15140795707702637,1.7567968368530273,0.6131913719849633,79.0,797.0,0.0
B,L,"[6, 10]",0.0,1.0,0.22382593154907227,1.8981008529663086,0.6616637656043168,79.0,798.0,0.0
G,D,"[7, 10]",-1.0,1.0,0.03176307678222656,5.881961822509766,0.7264395279966984,79.0,799.0,0.0
G,D,"[8, 10]",0.0,1.0,0.7854111194610596,2.4853599071502686,0.7120804635528017,79.0,800.0,0.0
,,"(6, 6)",,,,,,79.0,,
R,U,"[5, 6]",1.0,1.0,0.6884310245513916,3.9591469764709473,0.6045780412625817,,801.0,0.0
B,L,"[5, 5]",0.0,1.0,0.18092608451843262,1.5340511798858643,0.35569947527840595,80.0,802.0,0.0
R,U,"[4, 5]",0.0,1.0,0.2688930034637451,1.6416890621185303,0.3639629547423858,80.0,803.0,0.0
R,U,"[3, 5]",0.0,1.0,0.24432587623596191,1.9276480674743652,0.6746907785185471,80.0,804.0,0.0
G,D,"[4, 5]",-1.0,1.0,0.009212970733642578,5.448119878768921,0.32327721103671836,80.0,805.0,0.0
G,D,"[5, 5]",0.0,1.0,0.2809150218963623,1.872135877609253,0.5952442066024328,80.0,806.0,0.0
B,L,"[5, 4]",-2.0,1.0,2.1143088340759277,3.703847885131836,0.5656693288229586,80.0,807.0,0.0
B,L,"[5, 3]",0.0,1.0,0.635045051574707,2.2791690826416016,0.6448168416157068,80.0,808.0,0.0
B,L,"[5, 2]",0.0,1.0,0.4311399459838867,1.8419489860534668,0.420393519050273,80.0,809.0,0.0
Y,R,"[5, 3]",0.0,1.0,0.6689341068267822,2.301348924636841,0.6215726024800481,80.0,810.0,0.0
,,"(6, 6)",,,,,,80.0,,
Y,R,"[6, 7]",0.0,0.0,0.3742368221282959,3.901082992553711,0.5560498837595904,,811.0,0.0
G,D,"[7, 7]",0.0,0.0,0.5074620246887207,2.0214920043945312,0.5111745991808705,81.0,812.0,0.0
B,L,"[7, 6]",0.0,0.0,0.19498205184936523,1.551973819732666,0.3632157299407302,81.0,813.0,0.0
B,L,"[7, 5]",0.0,0.0,0.3302650451660156,1.6977219581604004,0.3610906504074119,81.0,814.0,0.0
G,D,"[8, 5]",0.0,0.0,0.7933981418609619,2.3824758529663086,0.5932578089387601,81.0,815.0,0.0
G,D,"[9, 5]",0.0,0.0,0.15302395820617676,1.8823049068450928,0.7254131044588857,81.0,816.0,0.0
Y,R,"[9, 6]",0.0,0.0,0.21245598793029785,1.9246470928192139,0.7167595415393522,81.0,817.0,0.0
B,L,"[9, 5]",0.0,0.0,0.15827417373657227,1.8960411548614502,0.7295845997320307,81.0,818.0,0.0
B,L,"[9, 4]",-1.0,0.0,0.024167776107788086,5.499434947967529,0.3461863042261608,81.0,819.0,0.0
G,D,"[10, 4]",-2.0,0.0,1.043287992477417,2.713793992996216,0.6263090852406545,81.0,820.0,0.0
,,"(6, 6)",,,,,,81.0,,
Y,R,"[6, 7]",0.0,0.0,0.327711820602417,2.912891149520874,0.37287564511758,,821.0,0.0
G,D,"[7, 7]",0.0,0.0,0.472912073135376,1.8922371864318848,0.41511007908782477,82.0,822.0,0.0
B,L,"[7, 6]",0.0,0.0,0.386120080947876,2.0147640705108643,0.6131004726909088,82.0,823.0,0.0
R,U,"[6, 6]",0.0,0.0,0.20339512825012207,1.6777939796447754,0.45788780173912313,82.0,824.0,0.0
G,D,"[7, 6]",0.0,0.0,0.21775102615356445,1.4636578559875488,0.2548865632286777,82.0,825.0,0.0
B,L,"[7, 5]",0.0,0.0,0.20804190635681152,1.9177119731903076,0.705611810563412,82.0,826.0,0.0
R,U,"[6, 5]",0.0,0.0,0.16354012489318848,1.8331561088562012,0.6721524843091211,82.0,827.0,0.0
Y,R,"[6, 6]",0.0,0.0,0.1733260154724121,1.5082659721374512,0.330664207593085,82.0,828.0,0.0
G,D,"[7, 6]",0.0,0.0,0.2066481113433838,1.7436189651489258,0.5241392160081714,82.0,829.0,0.0
G,D,"[8, 6]",0.0,0.0,0.26834607124328613,1.7543840408325195,0.4952507143219263,82.0,830.0,0.0
,,"(6, 6)",,,,,,82.0,,
B,L,"[6, 5]",0.0,0.0,0.5272181034088135,3.929034948348999,0.5576151204431942,,831.0,0.0
B,L,"[6, 4]",0.0,0.0,0.49924802780151367,1.8035919666290283,0.311702661512184,83.0,832.0,0.0
Y,R,"[6, 5]",0.0,0.0,0.46027398109436035,1.9117629528045654,0.45645805395529787,83.0,833.0,0.0
G,D,"[7, 5]",0.0,0.0,0.1836869716644287,1.5411169528961182,0.36439721003668485,83.0,834.0,0.0
B,L,"[7, 4]",0.0,0.0,0.3035919666290283,1.8494560718536377,0.5304425448165389,83.0,835.0,0.0
B,L,"[7, 3]",0.0,0.0,0.2699921131134033,1.744338035583496,0.45822696497869864,83.0,836.0,0.0
G,D,"[8, 3]",0.0,0.0,0.22605299949645996,1.8414101600646973,0.6161790836522998,83.0,837.0,0.0
R,U,"[7, 3]",0.0,0.0,0.20254898071289062,1.9456710815429688,0.7450151850472444,83.0,838.0,0.0
Y,R,"[7, 4]",0.0,0.0,0.21149921417236328,1.4635581970214844,0.25912814345493107,83.0,839.0,0.0
B,L,"[7, 3]",0.0,0.0,0.3670370578765869,1.6516668796539307,0.2941003004447738,83.0,840.0,0.0
,,"(6, 6)",,,,,,83.0,,
B,L,"[6, 5]",0.0,0.0,0.42144012451171875,4.05734395980835,0.5179976787295428,,841.0,0.0
G,D,"[7, 5]",0.0,0.0,0.17235589027404785,1.8033719062805176,0.6213353252130434,84.0,842.0,0.0
R,U,"[6, 5]",0.0,0.0,0.24062609672546387,1.5659410953521729,0.3209251707898094,84.0,843.0,0.0
B,L,"[6, 4]",0.0,0.0,0.3885059356689453,1.733483076095581,0.3376773705326611,84.0,844.0,0.0
B,L,"[6, 3]",0.0,0.0,0.28986692428588867,1.7399051189422607,0.44418494282835647,84.0,845.0,0.0
R,U,"[5, 3]",0.0,0.0,0.2663290500640869,1.9292638301849365,0.6733124897869537,84.0,846.0,0.0
Y,R,"[5, 4]",0.0,0.0,0.28317785263061523,1.746001958847046,0.46959748403401996,84.0,847.0,0.0
G,D,"[6, 4]",0.0,0.0,0.26498913764953613,1.8213140964508057,0.5573734184470234,84.0,848.0,0.0
B,L,"[6, 3]",0.0,0.0,0.2145671844482422,1.742393970489502,0.5333055795725388,84.0,849.0,0.0
R,U,"[5, 3]",0.0,0.0,0.34444308280944824,1.694706916809082,0.34475693435774657,84.0,850.0,0.0
,,"(6, 6)",,,,,,84.0,,
Y,R,"[6, 7]",0.0,0.0,0.40669703483581543,3.1152431964874268,0.41009086226302516,,851.0,0.0
R,U,"[5, 7]",1.0,1.0,0.2798421382904053,1.854423999786377,0.5808184808686061,85.0,852.0,0.0
R,U,"[4, 7]",0.0,1.0,0.26284003257751465,1.6308331489562988,0.3620175355786219,85.0,853.0,0.0
R,U,"[3, 7]",0.0,1.0,0.2521381378173828,1.8502111434936523,0.6120825213501826,85.0,854.0,0.0
G,D,"[4, 7]",-1.0,1.0,0.09818696975708008,5.944974899291992,0.7237545835432122,85.0,855.0,0.0
R,U,"[3, 7]",0.0,1.0,0.6075911521911621,2.044071912765503,0.43484017508386646,85.0,856.0,0.0
B,L,"[3, 6]",0.0,1.0,0.3286149501800537,2.06050181388855,0.7282148121625086,85.0,857.0,0.0
G,D,"[4, 6]",0.0,1.0,0.23765993118286133,1.5339770317077637,0.2960584866757158,85.0,858.0,0.0
G,D,"[5, 6]",1.0,2.0,0.28537487983703613,2.0225861072540283,0.7349091128443106,85.0,859.0,0.0
G,D,"[6, 6]",0.0,2.0,0.21030402183532715,1.6936900615692139,0.4788784299444453,85.0,860.0,0.0
,,"(6, 6)",,,,,,85.0,,
G,D,"[7, 6]",0.0,0.0,0.4549250602722168,3.554705858230591,0.2504875349604465,,861.0,0.0
B,L,"[7, 5]",0.0,0.0,0.2257850170135498,1.9589128494262695,0.7256421925076334,86.0,862.0,0.0
B,L,"[7, 4]",0.0,0.0,0.39534687995910645,1.696315050125122,0.30581758233231343,86.0,863.0,0.0
B,L,"[7, 3]",0.0,0.0,0.48239994049072266,1.9752628803253174,0.4975628493010635,86.0,864.0,0.0
B,L,"[7, 2]",0.0,0.0,0.27834606170654297,2.0132079124450684,0.7270880612809107,86.0,865.0,0.0
B,L,"[7, 1]",0.0,0.0,0.16918301582336426,1.6227948665618896,0.4502951237793824,86.0,866.0,0.0
B,L,"[7, 0]",-3.0,0.0,0.3119468688964844,1.8149797916412354,0.4986694231461204,86.0,867.0,0.0
B,L,"[7, 1]",0.0,0.0,0.20827794075012207,1.5504438877105713,0.33259126892864765,86.0,868.0,0.0
R,U,"[6, 1]",0.0,0.0,0.22863411903381348,1.7357959747314453,0.5016115171332525,86.0,869.0,0.0
Y,R,"[6, 2]",0.0,0.0,0.3069639205932617,1.7158308029174805,0.4008968872046323,86.0,870.0,0.0
,,"(6, 6)",,,,,,86.0,,
R,U,"[5, 6]",1.0,1.0,0.5364549160003662,3.3972439765930176,0.43145897722522175,,871.0,0.0
B,L,"[5, 5]",0.0,1.0,0.22064805030822754,1.7776761054992676,0.5423853321451644,87.0,872.0,0.0
R,U,"[4, 5]",0.0,1.0,0.21805810928344727,1.869387149810791,0.6617210107676822,87.0,873.0,0.0
R,U,"[3, 5]",0.0,1.0,0.22752904891967773,1.896406888961792,0.6748442959818526,87.0,874.0,0.0
R,U,"[2, 5]",0.0,1.0,0.23658514022827148,1.7414300441741943,0.49981207876205996,87.0,875.0,0.0
B,L,"[2, 4]",0.0,1.0,0.2375330924987793,1.5925168991088867,0.3424830271494318,87.0,876.0,0.0
Y,R,"[2, 5]",0.0,1.0,0.2941780090332031,1.7441520690917969,0.4532523776360822,87.0,877.0,0.0
Y,R,"[2, 6]",0.0,1.0,0.16738200187683105,1.436953067779541,0.27375557429973874,87.0,878.0,0.0
Y,R,"[2, 7]",0.0,1.0,0.7199890613555908,2.223673105239868,0.49727253670554045,87.0,879.0,0.0
Y,R,"[2, 8]",0.0,1.0,0.23081707954406738,1.863205909729004,0.6269869383307397,87.0,880.0,0.0
,,"(6, 6)",,,,,,87.0,,
Y,R,"[6, 7]",0.0,0.0,0.3758218288421631,4.273800849914551,0.38436630879320094,,881.0,0.0
B,L,"[6, 6]",0.0,0.0,0.18757915496826172,1.7355930805206299,0.5365167593788265,88.0,882.0,0.0
G,D,"[7, 6]",0.0,0.0,0.17331600189208984,1.6679940223693848,0.4880549200536434,88.0,883.0,0.0
B,L,"[7, 5]",0.0,0.0,0.20660614967346191,1.5430960655212402,0.33135376467336985,88.0,884.0,0.0
R,U,"[6, 5]",0.0,0.0,0.3018641471862793,1.7258131504058838,0.4069965918642748,88.0,885.0,0.0
R,U,"[5, 5]",0.0,0.0,0.34509897232055664,1.9962470531463623,0.6530396114278199,88.0,886.0,0.0
R,U,"[4, 5]",0.0,0.0,0.17912793159484863,1.7090868949890137,0.5289371060940651,88.0,887.0,0.0
G,D,"[5, 5]",0.0,0.0,0.2562592029571533,1.5134868621826172,0.2595331712279174,88.0,888.0,0.0
G,D,"[6, 5]",0.0,0.0,0.32759881019592285,1.933755874633789,0.6095041357332458,88.0,889.0,0.0
B,L,"[6, 4]",-1.0,0.0,0.050496816635131836,5.555287837982178,0.38187218957874486,88.0,890.0,0.0
,,"(6, 6)",,,,,,88.0,,
B,L,"[6, 5]",0.0,0.0,0.7303359508514404,4.016795873641968,0.43203016694114615,,891.0,0.0
B,L,"[6, 4]",-1.0,0.0,0.04372906684875488,5.839390993118286,0.6545258510924271,89.0,892.0,0.0
B,L,"[6, 3]",0.0,0.0,0.3210620880126953,2.013129949569702,0.6842968230740462,89.0,893.0,0.0
B,L,"[6, 2]",0.0,0.0,0.3496279716491699,1.7298860549926758,0.3812492329097393,89.0,894.0,0.0
B,L,"[6, 1]",0.0,0.0,0.7032139301300049,2.0774569511413574,0.35875504353546794,89.0,895.0,0.0
G,D,"[7, 1]",0.0,0.0,0.6258959770202637,2.272347927093506,0.6475438656711854,89.0,896.0,0.0
R,U,"[6, 1]",0.0,0.0,0.5273289680480957,2.253147840499878,0.7174153233570413,89.0,897.0,0.0
R,U,"[5, 1]",0.0,0.0,0.22827601432800293,1.5719449520111084,0.33965297616404205,89.0,898.0,0.0
G,D,"[6, 1]",0.0,0.0,0.41579604148864746,2.0095529556274414,0.5989865005996481,89.0,899.0,0.0
B,L,"[6, 0]",-3.0,0.0,0.2773120403289795,1.6751539707183838,0.39116197519124735,89.0,900.0,0.0
,,"(6, 6)",,,,,,89.0,,
Y,R,"[6, 7]",0.0,0.0,0.6673829555511475,3.5041110515594482,0.4118261625188287,,901.0,0.0
Y,R,"[6, 8]",1.0,1.0,0.22391605377197266,1.5922420024871826,0.37085535688435933,90.0,902.0,0.0
Y,R,"[6, 9]",1.0,2.0,0.32865381240844727,1.8617749214172363,0.5324889429489569,90.0,903.0,0.0
Y,R,"[6, 10]",1.0,3.0,0.20248699188232422,1.8155930042266846,0.614692912038117,90.0,904.0,0.0
Y,R,"[6, 11]",0.0,3.0,0.12195515632629395,1.602341890335083,0.4672175447799839,90.0,905.0,0.0
B,L,"[6, 10]",0.0,3.0,0.17065811157226562,1.656006097793579,0.4732629650674438,90.0,906.0,0.0
B,L,"[6, 9]",0.0,3.0,0.12176394462585449,1.738184928894043,0.6114547625200915,90.0,907.0,0.0
G,D,"[7, 9]",0.0,3.0,0.13373994827270508,1.5746159553527832,0.45277730251641934,90.0,908.0,0.0
G,D,"[8, 9]",0.0,3.0,0.16612505912780762,1.7752761840820312,0.611295568804382,90.0,909.0,0.0
B,L,"[8, 8]",0.0,3.0,0.26005005836486816,1.6091830730438232,0.354219692188096,90.0,910.0,0.0
,,"(6, 6)",,,,,,90.0,,
R,U,"[5, 6]",1.0,1.0,0.6690089702606201,3.3919880390167236,0.26291283913947583,,911.0,0.0
B,L,"[5, 5]",0.0,1.0,0.31113100051879883,1.9943749904632568,0.6736518322818141,91.0,912.0,0.0
R,U,"[4, 5]",0.0,1.0,0.20591020584106445,1.5323939323425293,0.32302578921972114,91.0,913.0,0.0
R,U,"[3, 5]",0.0,1.0,0.20668697357177734,1.5214917659759521,0.3111785602073872,91.0,914.0,0.0
G,D,"[4, 5]",0.0,1.0,0.23316597938537598,1.548429012298584,0.32616841404765573,91.0,915.0,0.0
B,L,"[4, 4]",0.0,1.0,0.3059229850769043,1.9553101062774658,0.6481359916198027,91.0,916.0,0.0
G,D,"[5, 4]",0.0,1.0,0.23540782928466797,1.8020009994506836,0.5668832832797167,91.0,917.0,0.0
G,D,"[6, 4]",0.0,1.0,0.2527611255645752,1.6770079135894775,0.41066965825825513,91.0,918.0,0.0
B,L,"[6, 3]",0.0,1.0,0.3107938766479492,2.0238089561462402,0.7175432697569262,91.0,919.0,0.0
B,L,"[6, 2]",0.0,1.0,0.20768094062805176,1.5149860382080078,0.2997142025346759,91.0,920.0,0.0
,,"(6, 6)",,,,,,91.0,,
Y,R,"[6, 7]",0.0,0.0,0.5079281330108643,3.756410837173462,0.7058691699674954,,921.0,0.0
B,L,"[6, 6]",0.0,0.0,0.26406192779541016,1.807136058807373,0.5463706963090658,92.0,922.0,0.0
B,L,"[6, 5]",0.0,0.0,0.20843195915222168,1.9459638595581055,0.7256500547931982,92.0,923.0,0.0
B,L,"[6, 4]",0.0,0.0,0.42035508155822754,2.1182138919830322,0.6937648728504597,92.0,924.0,0.0
G,D,"[7, 4]",0.0,0.0,0.2634749412536621,1.7178139686584473,0.4618574476238473,92.0,925.0,0.0
B,L,"[7, 3]",0.0,0.0,0.49323201179504395,1.943608045578003,0.4555267862873209,92.0,926.0,0.0
Y,R,"[7, 4]",-2.0,0.0,1.3992588520050049,2.8593850135803223,0.4316033027000509,92.0,927.0,0.0
Y,R,"[7, 5]",0.0,0.0,0.18361496925354004,1.7357079982757568,0.550520104940769,92.0,928.0,0.0
Y,R,"[7, 6]",0.0,0.0,0.197052001953125,1.563856840133667,0.3646819788864063,92.0,929.0,0.0
Y,R,"[7, 7]",0.0,0.0,0.4505758285522461,1.7453570365905762,0.29344961673277403,92.0,930.0,0.0
,,"(6, 6)",,,,,,92.0,,
R,U,"[5, 6]",1.0,1.0,0.48125600814819336,3.3736071586608887,0.6833742004817516,,931.0,0.0
R,U,"[4, 6]",0.0,1.0,0.19020509719848633,1.675436019897461,0.47576527847161193,93.0,932.0,0.0
B,L,"[4, 5]",0.0,1.0,0.3928959369659424,1.8766381740570068,0.4856659636840438,93.0,933.0,0.0
G,D,"[5, 5]",0.0,1.0,0.2682149410247803,1.751127004623413,0.4703685481096791,93.0,934.0,0.0
R,U,"[4, 5]",0.0,1.0,0.3073239326477051,1.8384578227996826,0.525469861828614,93.0,935.0,0.0
Y,R,"[4, 6]",0.0,1.0,0.19823002815246582,1.6085619926452637,0.4173502055802151,93.0,936.0,0.0
B,L,"[4, 5]",-1.0,1.0,0.06865096092224121,5.887160062789917,0.6876819199246278,93.0,937.0,0.0
B,L,"[4, 4]",0.0,1.0,0.3840479850769043,1.6624958515167236,0.26731697375215596,93.0,938.0,0.0
B,L,"[4, 3]",0.0,1.0,0.49866604804992676,1.9717059135437012,0.4721862476498963,93.0,939.0,0.0
Y,R,"[4, 4]",0.0,1.0,0.9323759078979492,2.5852341651916504,0.6572867257269397,93.0,940.0,0.0
,,"(6, 6)",,,,,,93.0,,
G,D,"[7, 6]",0.0,0.0,0.7579560279846191,4.203678131103516,0.3946557539136567,,941.0,0.0
G,D,"[8, 6]",0.0,0.0,0.5658860206604004,2.0051839351654053,0.4499001669449082,94.0,942.0,0.0
G,D,"[9, 6]",0.0,0.0,0.3762178421020508,1.792078971862793,0.40861031921002344,94.0,943.0,0.0
B,L,"[9, 5]",0.0,0.0,0.883991003036499,2.352962017059326,0.47829033083968187,94.0,944.0,0.0
Y,R,"[9, 6]",-2.0,0.0,1.2141079902648926,2.5706419944763184,0.3324222879730343,94.0,945.0,0.0
Y,R,"[9, 7]",0.0,0.0,0.303804874420166,1.9999809265136719,0.6820404030718907,94.0,946.0,0.0
Y,R,"[9, 8]",0.0,0.0,0.3580200672149658,2.056334972381592,0.6883860473431194,94.0,947.0,0.0
G,D,"[10, 8]",0.0,0.0,0.37604498863220215,1.924644947052002,0.5465709975270765,94.0,948.0,0.0
G,D,"[11, 8]",0.0,0.0,0.4356858730316162,1.881636142730713,0.42827904822629154,94.0,949.0,0.0
G,D,"[12, 8]",-3.0,0.0,0.33510899543762207,2.05570912361145,0.7336700543380839,94.0,950.0,0.0
,,"(6, 6)",,,,,,94.0,,
G,D,"[7, 6]",0.0,0.0,0.5471768379211426,3.4520480632781982,0.7359362510619354,,951.0,0.0
B,L,"[7, 5]",0.0,0.0,0.4266390800476074,2.1026480197906494,0.6720093879283531,95.0,952.0,0.0
R,U,"[6, 5]",-1.0,0.0,0.06919598579406738,5.818809986114502,0.6243342033107023,95.0,953.0,0.0
R,U,"[5, 5]",0.0,0.0,0.26624202728271484,1.890805959701538,0.6317480167193504,95.0,954.0,0.0
Y,R,"[5, 6]",1.0,1.0,0.24425816535949707,1.6548938751220703,0.40361032190429014,95.0,955.0,0.0
Y,R,"[5, 7]",1.0,2.0,0.1964280605316162,1.946052074432373,0.749367643560285,95.0,956.0,0.0
Y,R,"[5, 8]",1.0,3.0,0.2077028751373291,1.738253116607666,0.5211905408538371,95.0,957.0,0.0
Y,R,"[5, 9]",0.0,3.0,0.23711085319519043,1.9379730224609375,0.6922763810537707,95.0,958.0,0.0
G,D,"[6, 9]",1.0,4.0,0.2698240280151367,1.7782540321350098,0.5042051268533347,95.0,959.0,0.0
G,D,"[7, 9]",0.0,4.0,0.2433929443359375,1.7812061309814453,0.5354040285367572,95.0,960.0,0.0
,,"(6, 6)",,,,,,95.0,,
Y,R,"[6, 7]",0.0,0.0,0.736936092376709,3.3647451400756836,0.4003211480581838,,961.0,0.0
Y,R,"[6, 8]",1.0,1.0,0.16093802452087402,1.6995689868927002,0.5331971943462253,96.0,962.0,0.0
Y,R,"[6, 9]",1.0,2.0,0.19992613792419434,1.9378788471221924,0.7207966220208876,96.0,963.0,0.0
Y,R,"[6, 10]",-1.0,2.0,0.07618594169616699,5.601940870285034,0.3897345354100329,96.0,964.0,0.0
Y,R,"[6, 11]",0.0,2.0,0.19677019119262695,1.939544916152954,0.7457734446576728,96.0,965.0,0.0
G,D,"[7, 11]",0.0,2.0,0.23774313926696777,1.570378065109253,0.3166381795551994,96.0,966.0,0.0
G,D,"[8, 11]",0.0,2.0,0.3131439685821533,1.8192501068115234,0.5025062606923543,96.0,967.0,0.0
G,D,"[9, 11]",0.0,2.0,0.26662611961364746,1.9678621292114258,0.7035205376882376,96.0,968.0,0.0
G,D,"[10, 11]",0.0,2.0,0.37474894523620605,1.8032770156860352,0.42370186859895714,96.0,969.0,0.0
B,L,"[10, 10]",0.0,2.0,0.4051837921142578,1.959416151046753,0.5664262154772317,96.0,970.0,0.0
,,"(6, 6)",,,,,,96.0,,
B,L,"[6, 5]",0.0,0.0,0.691943883895874,3.107800006866455,0.34122458365232367,,971.0,0.0
B,L,"[6, 4]",0.0,0.0,0.25142598152160645,1.7683801651000977,0.5092320403645983,97.0,972.0,0.0
B,L,"[6, 3]",0.0,0.0,0.20187115669250488,1.5596580505371094,0.3692438622650172,97.0,973.0,0.0
Y,R,"[6, 4]",0.0,0.0,0.31130313873291016,1.9519901275634766,0.637486487850648,97.0,974.0,0.0
Y,R,"[6, 5]",0.0,0.0,0.22130513191223145,1.5006301403045654,0.2720327660452735,97.0,975.0,0.0
R,U,"[5, 5]",0.0,0.0,0.4613151550292969,1.983950138092041,0.5224529157130311,97.0,976.0,0.0
R,U,"[4, 5]",0.0,0.0,0.17623090744018555,1.463310956954956,0.28590388344924095,97.0,977.0,0.0
B,L,"[4, 4]",0.0,0.0,0.5438470840454102,2.2780699729919434,0.7302487796794956,97.0,978.0,0.0
G,D,"[5, 4]",0.0,0.0,0.23723101615905762,1.9396557807922363,0.6866535493636358,97.0,979.0,0.0
Y,R,"[5, 5]",0.0,0.0,0.23714518547058105,1.7108988761901855,0.4645902891428362,97.0,980.0,0.0
,,"(6, 6)",,,,,,97.0,,
Y,R,"[6, 7]",0.0,0.0,0.42611002922058105,2.9566938877105713,0.27140295117613294,,981.0,0.0
Y,R,"[6, 8]",1.0,1.0,0.22151899337768555,1.5676100254058838,0.33903018148296826,98.0,982.0,0.0
Y,R,"[6, 9]",1.0,2.0,0.11009693145751953,1.6204359531402588,0.5092690017236412,98.0,983.0,0.0
Y,R,"[6, 10]",-1.0,2.0,0.020333051681518555,5.5657830238342285,0.4253639912573943,98.0,984.0,0.0
Y,R,"[6, 11]",0.0,2.0,0.4000840187072754,2.1225979328155518,0.7308729560379087,98.0,985.0,0.0
G,D,"[7, 11]",0.0,2.0,0.25488901138305664,1.6901659965515137,0.4214008302672224,98.0,986.0,0.0
G,D,"[8, 11]",0.0,2.0,0.20686888694763184,1.5571460723876953,0.34530589408383344,98.0,987.0,0.0
G,D,"[9, 11]",0.0,2.0,0.23728299140930176,1.9822790622711182,0.7439894812532941,98.0,988.0,0.0
G,D,"[10, 11]",0.0,2.0,0.16018891334533691,1.8683898448944092,0.7124428476655658,98.0,989.0,0.0
B,L,"[10, 10]",0.0,2.0,0.20078802108764648,1.9491279125213623,0.7448833877877743,98.0,990.0,0.0
,,"(6, 6)",,,,,,98.0,,
R,U,"[5, 6]",1.0,1.0,0.5581181049346924,4.100207090377808,0.5286523840481574,,991.0,0.0
R,U,"[4, 6]",0.0,1.0,0.34558820724487305,1.6185882091522217,0.28080333594079304,99.0,992.0,0.0
B,L,"[4, 5]",0.0,1.0,0.3832821846008301,2.0084619522094727,0.6223437713835728,99.0,993.0,0.0
R,U,"[3, 5]",0.0,1.0,0.2443850040435791,1.9722349643707275,0.7278554209319603,99.0,994.0,0.0
G,D,"[4, 5]",0.0,1.0,0.22072601318359375,1.6240460872650146,0.40233091566912704,99.0,995.0,0.0
Y,R,"[4, 6]",0.0,1.0,0.24569082260131836,1.8307440280914307,0.5829685244325845,99.0,996.0,0.0
B,L,"[4, 5]",0.0,1.0,0.5272090435028076,2.208472967147827,0.6744992820871651,99.0,997.0,0.0
Y,R,"[4, 6]",-1.0,1.0,0.07988691329956055,5.861366033554077,0.6527513196141006,99.0,998.0,0.0
Y,R,"[4, 7]",0.0,1.0,0.8940060138702393,2.2190139293670654,0.32224290805501443,99.0,999.0,0.0
Y,R,"[4, 8]",0.0,1.0,0.6473031044006348,2.2789340019226074,0.634243935829991,99.0,1000.0,0.0
