button_choice,action_choice,coordinate_choice,reward,cumulative_reward,rt,total_trial_time,iti,block_n,trial_n,trial_type
Y,R,"[6, 7]",-2.0,0.0,1.3234810829162598,2.866366147994995,0.5006922603234978,0.0,1.0,0.0
G,D,"[7, 7]",0.0,0.0,0.4141380786895752,1.966533899307251,0.4503401842015319,0.0,2.0,0.0
B,L,"[7, 6]",0.0,0.0,0.4321460723876953,2.0161490440368652,0.4830224698469012,0.0,3.0,0.0
R,U,"[6, 6]",0.0,0.0,0.24675512313842773,1.8670251369476318,0.516675278989456,0.0,4.0,0.0
R,U,"[5, 6]",1.0,1.0,0.20551514625549316,1.8450710773468018,0.5450005021196764,0.0,5.0,0.0
Y,R,"[5, 7]",-1.0,1.0,0.06016111373901367,5.468074083328247,0.29626641091474776,0.0,6.0,0.0
Y,R,"[5, 8]",1.0,2.0,0.5283670425415039,2.0194480419158936,0.3823484606351367,0.0,7.0,0.0
B,L,"[5, 7]",0.0,2.0,0.40051889419555664,2.1605780124664307,0.6592347228513149,0.0,8.0,0.0
G,D,"[6, 7]",0.0,2.0,0.3635289669036865,2.083307981491089,0.6259099268407088,0.0,9.0,0.0
R,U,"[5, 7]",0.0,2.0,0.32428598403930664,2.1024580001831055,0.6781641742232061,0.0,10.0,0.0
,,"(6, 6)",,,,,,,,
R,U,"[5, 6]",1.0,1.0,0.5844178199768066,6.921596050262451,0.38315855823232564,1.0,11.0,0.0
G,D,"[6, 6]",0.0,1.0,0.37566709518432617,1.766794204711914,0.2833629119817449,1.0,12.0,0.0
B,L,"[6, 5]",0.0,1.0,0.3863039016723633,1.8002729415893555,0.3168042957296718,1.0,13.0,0.0
Y,R,"[6, 6]",0.0,1.0,0.2569618225097656,2.028765916824341,0.6784781967523906,1.0,14.0,0.0
B,L,"[6, 5]",0.0,1.0,0.2126779556274414,1.8513109683990479,0.5462057538876502,1.0,15.0,0.0
G,D,"[7, 5]",0.0,1.0,0.3547379970550537,1.8504409790039062,0.3804225694345098,1.0,16.0,0.0
R,U,"[6, 5]",0.0,1.0,0.20855283737182617,2.049072027206421,0.7283349155521586,1.0,17.0,0.0
G,D,"[7, 5]",0.0,1.0,0.30748987197875977,1.6777091026306152,0.25714259983068444,1.0,18.0,0.0
B,L,"[7, 4]",0.0,1.0,0.3121941089630127,1.7338590621948242,0.32435463525312525,1.0,19.0,0.0
Y,R,"[7, 5]",0.0,1.0,0.3545510768890381,1.8757638931274414,0.4332712961827024,1.0,20.0,0.0
,,"(6, 6)",,,,,,,,
R,U,"[5, 6]",1.0,1.0,0.724390983581543,4.705415964126587,0.4550712297378368,2.0,21.0,0.0
G,D,"[6, 6]",0.0,1.0,0.2512390613555908,1.9853198528289795,0.640096969365652,2.0,22.0,0.0
B,L,"[6, 5]",0.0,1.0,0.2596909999847412,1.7076160907745361,0.34790894122675203,2.0,23.0,0.0
Y,R,"[6, 6]",0.0,1.0,0.2960798740386963,1.753058910369873,0.3510098506449658,2.0,24.0,0.0
B,L,"[6, 5]",0.0,1.0,0.19599699974060059,1.9669020175933838,0.667458288003103,2.0,25.0,0.0
G,D,"[7, 5]",0.0,1.0,0.21622490882873535,1.9242308139801025,0.6083463531671116,2.0,26.0,0.0
R,U,"[6, 5]",0.0,1.0,0.15457487106323242,1.8746988773345947,0.6161449739998299,2.0,27.0,0.0
G,D,"[7, 5]",0.0,1.0,0.25818800926208496,1.8545830249786377,0.48773837178146645,2.0,28.0,0.0
B,L,"[7, 4]",0.0,1.0,0.19181203842163086,1.6347999572753906,0.33912093078134864,2.0,29.0,0.0
Y,R,"[7, 5]",0.0,1.0,0.30582094192504883,2.0907540321350098,0.6796380293643955,2.0,30.0,0.0
,,"(6, 6)",,,,,,,,
R,U,"[5, 6]",1.0,1.0,0.6015050411224365,3.5380349159240723,0.4510699439049345,3.0,31.0,0.0
G,D,"[6, 6]",0.0,1.0,0.35138988494873047,1.837507963180542,0.38849792683679807,3.0,32.0,0.0
B,L,"[6, 5]",0.0,1.0,0.3020138740539551,1.6948721408843994,0.30019219811734704,3.0,33.0,0.0
Y,R,"[6, 6]",0.0,1.0,0.3439829349517822,2.1112120151519775,0.6610713482101794,3.0,34.0,0.0
B,L,"[6, 5]",0.0,1.0,0.21999311447143555,1.894819974899292,0.5891724439740698,3.0,35.0,0.0
G,D,"[7, 5]",0.0,1.0,0.22527503967285156,1.9796130657196045,0.6518454811227244,3.0,36.0,0.0
R,U,"[6, 5]",0.0,1.0,0.24460101127624512,1.8080010414123535,0.45994500156225754,3.0,37.0,0.0
G,D,"[7, 5]",0.0,1.0,0.2526588439941406,1.6102910041809082,0.270497643692984,3.0,38.0,0.0
R,U,"[6, 5]",0.0,1.0,0.36780214309692383,1.8596069812774658,0.3965898216444825,3.0,39.0,0.0
R,U,"[5, 5]",0.0,1.0,0.23913216590881348,1.9977591037750244,0.6440549967143401,3.0,40.0,0.0
,,"(6, 6)",,,,,,,,
R,U,"[5, 6]",1.0,1.0,0.4722609519958496,3.4807209968566895,0.4746880615714936,4.0,41.0,0.0
R,U,"[4, 6]",0.0,1.0,0.34578704833984375,2.1335508823394775,0.6914354565926031,4.0,42.0,0.0
G,D,"[5, 6]",0.0,1.0,0.17852497100830078,1.8326458930969238,0.5573068292749341,4.0,43.0,0.0
G,D,"[6, 6]",0.0,1.0,0.18478178977966309,1.9497020244598389,0.6735146124210242,4.0,44.0,0.0
B,L,"[6, 5]",0.0,1.0,0.17882299423217773,1.9618959426879883,0.6854978634460385,4.0,45.0,0.0
B,L,"[6, 4]",0.0,1.0,0.16211700439453125,1.9739890098571777,0.7092048822941117,4.0,46.0,0.0
Y,R,"[6, 5]",0.0,1.0,0.14835309982299805,1.98978590965271,0.7490195389384042,4.0,47.0,0.0
Y,R,"[6, 6]",-1.0,1.0,0.08220696449279785,5.802093982696533,0.5843456330597576,4.0,48.0,0.0
Y,R,"[6, 7]",0.0,1.0,0.2671170234680176,2.0495431423187256,0.6837865283883755,4.0,49.0,0.0
B,L,"[6, 6]",0.0,1.0,0.22811412811279297,1.9936339855194092,0.6606714649213781,4.0,50.0,0.0
,,"(6, 6)",,,,,,,,
R,U,"[5, 6]",1.0,1.0,0.4713470935821533,3.5028629302978516,0.7467068299313727,5.0,51.0,0.0
Y,R,"[5, 7]",1.0,2.0,0.20700597763061523,2.001350164413452,0.6979606627516897,5.0,52.0,0.0
G,D,"[6, 7]",0.0,2.0,0.20003390312194824,1.9746620655059814,0.6725472123776817,5.0,53.0,0.0
G,D,"[7, 7]",0.0,2.0,0.18141984939575195,1.8117830753326416,0.5345552996254883,5.0,54.0,0.0
B,L,"[7, 6]",0.0,2.0,0.2275841236114502,1.739490032196045,0.4074818649718408,5.0,55.0,0.0
R,U,"[6, 6]",0.0,2.0,0.2864260673522949,1.9339370727539062,0.5577886564555914,5.0,56.0,0.0
Y,R,"[6, 7]",0.0,2.0,0.2319948673248291,2.0142550468444824,0.6883765807386557,5.0,57.0,0.0
G,D,"[7, 7]",0.0,2.0,0.21934795379638672,1.905447006225586,0.5940075963760754,5.0,58.0,0.0
R,U,"[6, 7]",0.0,2.0,0.20830392837524414,1.8426060676574707,0.5367171402779756,5.0,59.0,0.0
B,L,"[6, 6]",0.0,2.0,0.19807004928588867,1.6140520572662354,0.3173585177702293,5.0,60.0,0.0
,,"(6, 6)",,,,,,,,
R,U,"[5, 6]",1.0,1.0,0.5570628643035889,3.447199821472168,0.5808638017995491,6.0,61.0,0.0
Y,R,"[5, 7]",1.0,2.0,0.2113950252532959,1.8550519943237305,0.536174725297889,6.0,62.0,0.0
B,L,"[5, 6]",0.0,2.0,0.201369047164917,2.0472841262817383,0.7496728790684098,6.0,63.0,0.0
B,L,"[5, 5]",0.0,2.0,0.1523439884185791,1.7834789752960205,0.5332663930417865,6.0,64.0,0.0
Y,R,"[5, 6]",0.0,2.0,0.23409819602966309,1.9083900451660156,0.5747645907304841,6.0,65.0,0.0
G,D,"[6, 6]",0.0,2.0,0.22012805938720703,1.5910470485687256,0.28279487921408997,6.0,66.0,0.0
R,U,"[5, 6]",0.0,2.0,0.3361170291900635,2.144423007965088,0.710101740165887,6.0,67.0,0.0
Y,R,"[5, 7]",0.0,2.0,0.2302539348602295,1.8389101028442383,0.5157199376910468,6.0,68.0,0.0
B,L,"[5, 6]",0.0,2.0,0.26899003982543945,2.021944999694824,0.654242366345182,6.0,69.0,0.0
R,U,"[4, 6]",0.0,2.0,0.21507906913757324,1.5786969661712646,0.26657706365736034,6.0,70.0,0.0
,,"(6, 6)",,,,,,,,
R,U,"[5, 6]",1.0,1.0,0.6256899833679199,3.5399539470672607,0.4729274164170733,7.0,71.0,0.0
Y,R,"[5, 7]",1.0,2.0,0.3781118392944336,2.182584047317505,0.7050397218468243,7.0,72.0,0.0
R,U,"[4, 7]",0.0,2.0,0.2122809886932373,1.7810320854187012,0.4697192831034353,7.0,73.0,0.0
G,D,"[5, 7]",0.0,2.0,0.23636698722839355,1.6461811065673828,0.31596600491681287,7.0,74.0,0.0
B,L,"[5, 6]",0.0,2.0,0.28971195220947266,2.121896982192993,0.7207927856968938,7.0,75.0,0.0
R,U,"[4, 6]",0.0,2.0,0.23435592651367188,1.6332950592041016,0.3043409507966048,7.0,76.0,0.0
Y,R,"[4, 7]",0.0,2.0,0.2829558849334717,2.1050519943237305,0.7255077280471091,7.0,77.0,0.0
G,D,"[5, 7]",0.0,2.0,0.26540398597717285,1.84443998336792,0.48681415513118287,7.0,78.0,0.0
R,U,"[4, 7]",0.0,2.0,0.32205700874328613,2.1478800773620605,0.7180394111753656,7.0,79.0,0.0
Y,R,"[4, 8]",0.0,2.0,0.3214988708496094,1.7590880393981934,0.327258570014979,7.0,80.0,0.0
,,"(6, 6)",,,,,,,,
Y,R,"[6, 7]",0.0,0.0,0.6167540550231934,3.884406089782715,0.5612861191925934,8.0,81.0,0.0
Y,R,"[6, 8]",1.0,1.0,0.19778800010681152,1.5733489990234375,0.28485990403166944,8.0,82.0,0.0
Y,R,"[6, 9]",1.0,2.0,0.5146090984344482,2.1517810821533203,0.5362032328564896,8.0,83.0,0.0
Y,R,"[6, 10]",1.0,3.0,0.2034010887145996,1.7873790264129639,0.4903383631794945,8.0,84.0,0.0
Y,R,"[6, 11]",0.0,3.0,0.19901585578918457,1.8194348812103271,0.5262457009781332,8.0,85.0,0.0
R,U,"[5, 11]",0.0,3.0,0.2485489845275879,1.9894788265228271,0.6489120296516988,8.0,86.0,0.0
Y,R,"[6, 11]",-3.0,3.0,0.1392371654510498,1.6101100444793701,0.3592309211228298,8.0,87.0,0.0
G,D,"[7, 11]",0.0,3.0,0.2742800712585449,1.9184861183166504,0.544265782480579,8.0,88.0,0.0
B,L,"[7, 10]",0.0,3.0,0.224761962890625,1.9859719276428223,0.6631943281633272,8.0,89.0,0.0
R,U,"[6, 10]",0.0,3.0,0.21969819068908691,1.6646649837493896,0.34493048368926693,8.0,90.0,0.0
,,"(6, 6)",,,,,,,,
R,U,"[5, 6]",1.0,1.0,0.46488404273986816,3.517609119415283,0.6785991762442576,9.0,91.0,0.0
Y,R,"[5, 7]",1.0,2.0,0.18678808212280273,1.7752251625061035,0.5040872441649393,9.0,92.0,0.0
Y,R,"[5, 8]",1.0,3.0,0.1981520652770996,1.7886991500854492,0.49199096740682674,9.0,93.0,0.0
B,L,"[5, 7]",0.0,3.0,0.18908286094665527,1.722491979598999,0.44849046999163933,9.0,94.0,0.0
G,D,"[6, 7]",0.0,3.0,0.32669901847839355,1.7463979721069336,0.3116457631032936,9.0,95.0,0.0
R,U,"[5, 7]",0.0,3.0,0.2674100399017334,2.043452024459839,0.68809753795261,9.0,96.0,0.0
B,L,"[5, 6]",0.0,3.0,0.207597017288208,1.7351000308990479,0.4232780647149197,9.0,97.0,0.0
G,D,"[6, 6]",0.0,3.0,0.24109983444213867,1.9273569583892822,0.5837616964298998,9.0,98.0,0.0
B,L,"[6, 5]",0.0,3.0,0.22258591651916504,1.6949279308319092,0.3622589933457381,9.0,99.0,0.0
G,D,"[7, 5]",0.0,3.0,0.23131489753723145,1.9471549987792969,0.6257596161915955,9.0,100.0,0.0
,,"(6, 6)",,,,,,,,
R,U,"[5, 6]",1.0,1.0,0.47580409049987793,3.279979944229126,0.35579061821512664,10.0,101.0,0.0
Y,R,"[5, 7]",1.0,2.0,0.26616597175598145,2.107947826385498,0.7466667505334725,10.0,102.0,0.0
Y,R,"[5, 8]",1.0,3.0,0.1902480125427246,2.0246710777282715,0.7212801026942548,10.0,103.0,0.0
G,D,"[6, 8]",1.0,4.0,0.20194196701049805,1.5767579078674316,0.2816940687028943,10.0,104.0,0.0
R,U,"[5, 8]",0.0,4.0,0.31519007682800293,1.86838698387146,0.44986333806681833,10.0,105.0,0.0
G,D,"[6, 8]",0.0,4.0,0.17852306365966797,1.898838996887207,0.6156001988277999,10.0,106.0,0.0
G,D,"[7, 8]",0.0,4.0,0.20644211769104004,1.7527408599853516,0.43464339279737874,10.0,107.0,0.0
G,D,"[8, 8]",0.0,4.0,0.19739508628845215,1.9041519165039062,0.605255237092196,10.0,108.0,0.0
G,D,"[9, 8]",0.0,4.0,0.19340300559997559,1.7377159595489502,0.44330606550837587,10.0,109.0,0.0
G,D,"[10, 8]",0.0,4.0,0.22996306419372559,1.6702799797058105,0.34684989686704093,10.0,110.0,0.0
,,"(6, 6)",,,,,,,,
R,U,"[5, 6]",1.0,1.0,0.4075438976287842,3.168097972869873,0.48121775976391096,11.0,111.0,0.0
Y,R,"[5, 7]",1.0,2.0,0.10697007179260254,1.5954148769378662,0.3768494988389954,11.0,112.0,0.0
Y,R,"[5, 8]",1.0,3.0,0.23554205894470215,1.602748155593872,0.2795587577792918,11.0,113.0,0.0
G,D,"[6, 8]",1.0,4.0,0.32695794105529785,1.9050920009613037,0.4677355921839705,11.0,114.0,0.0
B,L,"[6, 7]",0.0,4.0,0.2207958698272705,1.7724487781524658,0.4568094437297137,11.0,115.0,0.0
G,D,"[7, 7]",0.0,4.0,0.2971150875091553,1.9946038722991943,0.6012192539420078,11.0,116.0,0.0
G,D,"[8, 7]",0.0,4.0,0.18813300132751465,1.6661889553070068,0.3676343620814645,11.0,117.0,0.0
B,L,"[8, 6]",0.0,4.0,0.20050311088562012,1.6255879402160645,0.32649612171361636,11.0,118.0,0.0
Y,R,"[8, 7]",0.0,4.0,0.23409700393676758,1.9973220825195312,0.6734906313973305,11.0,119.0,0.0
R,U,"[7, 7]",0.0,4.0,0.389711856842041,2.1329710483551025,0.639653101900234,11.0,120.0,0.0
,,"(6, 6)",,,,,,,,
R,U,"[5, 6]",1.0,1.0,0.4465749263763428,3.2391178607940674,0.6121060901148627,12.0,121.0,0.0
Y,R,"[5, 7]",1.0,2.0,0.2269289493560791,1.6299688816070557,0.30891659806989963,12.0,122.0,0.0
Y,R,"[5, 8]",1.0,3.0,0.28865694999694824,1.8404700756072998,0.44926931394697045,12.0,123.0,0.0
G,D,"[6, 8]",1.0,4.0,0.25168609619140625,2.0928518772125244,0.741633442993032,12.0,124.0,0.0
Y,R,"[6, 9]",-1.0,4.0,0.07516098022460938,5.9479780197143555,0.7394017613764524,12.0,125.0,0.0
Y,R,"[6, 10]",1.0,5.0,0.28308606147766113,1.6722991466522217,0.2954629110395677,12.0,126.0,0.0
Y,R,"[6, 11]",0.0,5.0,0.2114269733428955,1.8369030952453613,0.5324959268140412,12.0,127.0,0.0
G,D,"[7, 11]",0.0,5.0,0.23047780990600586,1.6840450763702393,0.34967936847175074,12.0,128.0,0.0
G,D,"[8, 11]",0.0,5.0,0.47620391845703125,2.299410820007324,0.7157349313916728,12.0,129.0,0.0
B,L,"[8, 10]",0.0,5.0,0.2800588607788086,2.0791590213775635,0.6943651646139024,12.0,130.0,0.0
,,"(6, 6)",,,,,,,,
R,U,"[5, 6]",1.0,1.0,0.44502806663513184,3.2931249141693115,0.5708571579361865,13.0,131.0,0.0
Y,R,"[5, 7]",1.0,2.0,0.2856428623199463,1.7909018993377686,0.4119027431651292,13.0,132.0,0.0
Y,R,"[5, 8]",1.0,3.0,0.27090001106262207,1.6307098865509033,0.2759738539241776,13.0,133.0,0.0
G,D,"[6, 8]",1.0,4.0,0.39748597145080566,1.9863569736480713,0.49534242291225933,13.0,134.0,0.0
Y,R,"[6, 9]",1.0,5.0,0.2641489505767822,1.7395670413970947,0.38507723943746786,13.0,135.0,0.0
R,U,"[5, 9]",0.0,5.0,0.22411584854125977,1.6737229824066162,0.3421368404791835,13.0,136.0,0.0
G,D,"[6, 9]",0.0,5.0,0.3135261535644531,2.0584819316864014,0.6501106831089498,13.0,137.0,0.0
Y,R,"[6, 10]",1.0,6.0,0.19866681098937988,1.8179690837860107,0.5181189505049463,13.0,138.0,0.0
G,D,"[7, 10]",0.0,6.0,0.20204901695251465,1.970973014831543,0.6727780945374204,13.0,139.0,0.0
Y,R,"[7, 11]",0.0,6.0,0.2756330966949463,1.7383389472961426,0.36083662995706095,13.0,140.0,0.0
,,"(6, 6)",,,,,,,,
R,U,"[5, 6]",1.0,1.0,0.410236120223999,3.0247440338134766,0.5354337887126952,14.0,141.0,0.0
Y,R,"[5, 7]",1.0,2.0,0.18762993812561035,1.655742883682251,0.3578575179209089,14.0,142.0,0.0
Y,R,"[5, 8]",1.0,3.0,0.2976710796356201,1.6838300228118896,0.2917590893963202,14.0,143.0,0.0
G,D,"[6, 8]",1.0,4.0,0.46720004081726074,2.0736091136932373,0.5149971733952787,14.0,144.0,0.0
Y,R,"[6, 9]",1.0,5.0,0.18882298469543457,1.5827600955963135,0.2812678941255428,14.0,145.0,0.0
B,L,"[6, 8]",0.0,5.0,0.30142712593078613,1.702584981918335,0.30052347462520884,14.0,146.0,0.0
Y,R,"[6, 9]",0.0,5.0,0.22653794288635254,1.6718459129333496,0.3389801147733409,14.0,147.0,0.0
Y,R,"[6, 10]",1.0,6.0,0.19710803031921387,1.5786378383636475,0.284333050081676,14.0,148.0,0.0
Y,R,"[6, 11]",0.0,6.0,0.31839585304260254,1.909301996231079,0.49332180479795307,14.0,149.0,0.0
Y,R,"[6, 10]",-3.0,6.0,0.2733941078186035,1.9392211437225342,0.5658908583549225,14.0,150.0,0.0
,,"(6, 6)",,,,,,,,
R,U,"[5, 6]",1.0,1.0,0.5631799697875977,5.958250999450684,0.47390794867698244,15.0,151.0,0.0
Y,R,"[5, 7]",1.0,2.0,0.21623587608337402,1.9335448741912842,0.6239033327831238,15.0,152.0,0.0
Y,R,"[5, 8]",-1.0,2.0,0.0052149295806884766,5.454081058502197,0.32800094538631674,15.0,153.0,0.0
Y,R,"[5, 9]",0.0,2.0,0.24383997917175293,1.783440113067627,0.4445637478044236,15.0,154.0,0.0
G,D,"[6, 9]",1.0,3.0,0.15659499168395996,1.615657091140747,0.36038432517898783,15.0,155.0,0.0
Y,R,"[6, 10]",-1.0,3.0,0.05423903465270996,5.749407052993774,0.57600578329364,15.0,156.0,0.0
Y,R,"[6, 11]",0.0,3.0,0.458698034286499,2.154775857925415,0.5973837990658754,15.0,157.0,0.0
R,U,"[5, 11]",0.0,3.0,0.2189631462097168,1.9451541900634766,0.6256914803705479,15.0,158.0,0.0
R,U,"[4, 11]",0.0,3.0,0.3017439842224121,2.0251710414886475,0.6342251703360364,15.0,159.0,0.0
R,U,"[3, 11]",0.0,3.0,0.40543198585510254,1.9323108196258545,0.4332357659414149,15.0,160.0,0.0
,,"(6, 6)",,,,,,,,
R,U,"[5, 6]",1.0,1.0,0.6314020156860352,3.6024270057678223,0.6853828872124164,16.0,161.0,0.0
Y,R,"[5, 7]",1.0,2.0,0.21521496772766113,1.6198480129241943,0.30541205078687744,16.0,162.0,0.0
Y,R,"[5, 8]",1.0,3.0,0.4711611270904541,2.0031208992004395,0.42508386684124744,16.0,163.0,0.0
G,D,"[6, 8]",1.0,4.0,0.4202718734741211,1.7710649967193604,0.262803251427985,16.0,164.0,0.0
Y,R,"[6, 9]",1.0,5.0,0.28585004806518555,2.0424039363861084,0.6552942382011048,16.0,165.0,0.0
G,D,"[7, 9]",-2.0,5.0,1.2758009433746338,2.8160200119018555,0.504318233716144,16.0,166.0,0.0
G,D,"[8, 9]",0.0,5.0,0.29338693618774414,1.7297630310058594,0.334133535686924,16.0,167.0,0.0
Y,R,"[8, 10]",0.0,5.0,0.257296085357666,1.8336989879608154,0.4676195939116695,16.0,168.0,0.0
Y,R,"[8, 11]",0.0,5.0,0.1788630485534668,1.8453729152679443,0.5629372783769152,16.0,169.0,0.0
Y,R,"[8, 10]",-3.0,5.0,0.1928861141204834,1.6415250301361084,0.3379820443287916,16.0,170.0,0.0
,,"(6, 6)",,,,,,,,
R,U,"[5, 6]",1.0,1.0,0.5244021415710449,3.791490077972412,0.3460423454106196,17.0,171.0,0.0
Y,R,"[5, 7]",1.0,2.0,0.2785470485687256,1.9008769989013672,0.5131900276465273,17.0,172.0,0.0
Y,R,"[5, 8]",1.0,3.0,0.18646693229675293,2.005495071411133,0.7187557269614783,17.0,173.0,0.0
G,D,"[6, 8]",1.0,4.0,0.23942208290100098,2.0174810886383057,0.6859305507788778,17.0,174.0,0.0
Y,R,"[6, 9]",1.0,5.0,0.14879798889160156,1.8124749660491943,0.5652385783125495,17.0,175.0,0.0
G,D,"[7, 9]",0.0,5.0,0.22904109954833984,1.9712319374084473,0.636195402534429,17.0,176.0,0.0
R,U,"[6, 9]",-1.0,5.0,0.07544112205505371,5.686041831970215,0.47230250821904207,17.0,177.0,0.0
R,U,"[5, 9]",0.0,5.0,0.3399980068206787,1.7539989948272705,0.3096723431107016,17.0,178.0,0.0
R,U,"[4, 9]",1.0,6.0,0.20106005668640137,2.0261189937591553,0.7354087645218622,17.0,179.0,0.0
R,U,"[3, 9]",1.0,7.0,0.2165520191192627,2.0406808853149414,0.7260313688141511,17.0,180.0,0.0
,,"(6, 6)",,,,,,,,
R,U,"[5, 6]",1.0,1.0,0.4339439868927002,3.1241679191589355,0.3837413658507706,18.0,181.0,0.0
Y,R,"[5, 7]",1.0,2.0,0.20479178428649902,1.9407219886779785,0.640835261403415,18.0,182.0,0.0
Y,R,"[5, 8]",1.0,3.0,0.20347905158996582,1.5475120544433594,0.25526377319683036,18.0,183.0,0.0
G,D,"[6, 8]",1.0,4.0,0.28643298149108887,2.0262861251831055,0.6477585361555522,18.0,184.0,0.0
Y,R,"[6, 9]",1.0,5.0,0.22802209854125977,1.7948880195617676,0.45946195642498505,18.0,185.0,0.0
Y,R,"[6, 10]",-2.0,5.0,1.162714958190918,2.908169984817505,0.7172388598533852,18.0,186.0,0.0
Y,R,"[6, 11]",0.0,5.0,0.2219851016998291,1.759450912475586,0.44358154895274565,18.0,187.0,0.0
R,U,"[5, 11]",0.0,5.0,0.25513792037963867,2.096529960632324,0.7398536940409672,18.0,188.0,0.0
R,U,"[4, 11]",0.0,5.0,0.23998403549194336,1.6934010982513428,0.3667799267083309,18.0,189.0,0.0
R,U,"[3, 11]",0.0,5.0,0.28692197799682617,1.77174711227417,0.3885037327600086,18.0,190.0,0.0
,,"(6, 6)",,,,,,,,
R,U,"[5, 6]",1.0,1.0,0.5538749694824219,3.114706039428711,0.3698423539018164,19.0,191.0,0.0
Y,R,"[5, 7]",1.0,2.0,0.27419400215148926,1.9901151657104492,0.6095301914329369,19.0,192.0,0.0
Y,R,"[5, 8]",1.0,3.0,0.1786198616027832,1.5651581287384033,0.2916640738740339,19.0,193.0,0.0
G,D,"[6, 8]",1.0,4.0,0.28246021270751953,1.9428739547729492,0.5675286245560156,19.0,194.0,0.0
Y,R,"[6, 9]",1.0,5.0,0.23838400840759277,1.6166839599609375,0.2512746505294309,19.0,195.0,0.0
G,D,"[7, 9]",0.0,5.0,0.7696559429168701,2.4891679286956787,0.6233374513621519,19.0,196.0,0.0
B,L,"[7, 8]",0.0,5.0,0.22732281684875488,1.6249370574951172,0.29837758691043337,19.0,197.0,0.0
R,U,"[6, 8]",0.0,5.0,0.25199294090270996,1.8744351863861084,0.5226937499654826,19.0,198.0,0.0
Y,R,"[6, 9]",0.0,5.0,0.2693650722503662,1.8563461303710938,0.49570778196744153,19.0,199.0,0.0
R,U,"[5, 9]",0.0,5.0,0.3312981128692627,2.1378800868988037,0.7165266409033355,19.0,200.0,0.0
,,"(6, 6)",,,,,,,,
R,U,"[5, 6]",1.0,1.0,0.5471470355987549,3.077802896499634,0.294585634673673,20.0,201.0,0.0
Y,R,"[5, 7]",1.0,2.0,0.20069289207458496,1.9493107795715332,0.6601507831436901,20.0,202.0,0.0
Y,R,"[5, 8]",1.0,3.0,0.17867183685302734,1.5861790180206299,0.31337825343554043,20.0,203.0,0.0
G,D,"[6, 8]",1.0,4.0,0.30545592308044434,1.860018014907837,0.45655632055350315,20.0,204.0,0.0
Y,R,"[6, 9]",1.0,5.0,0.34941601753234863,1.9334778785705566,0.48993561496993815,20.0,205.0,0.0
Y,R,"[6, 10]",1.0,6.0,0.6971080303192139,2.150460958480835,0.3571462799108156,20.0,206.0,0.0
G,D,"[7, 10]",0.0,6.0,0.29906392097473145,1.9573149681091309,0.5640710386920018,20.0,207.0,0.0
Y,R,"[7, 11]",0.0,6.0,0.2732870578765869,2.018428087234497,0.6323007022614441,20.0,208.0,0.0
R,U,"[6, 11]",0.0,6.0,0.3966078758239746,2.0452799797058105,0.5444624362518873,20.0,209.0,0.0
G,D,"[7, 11]",0.0,6.0,0.24839210510253906,1.6446959972381592,0.3059822986786161,20.0,210.0,0.0
,,"(6, 6)",,,,,,,,
R,U,"[5, 6]",1.0,1.0,0.5462558269500732,2.9787139892578125,0.3845590597363707,21.0,211.0,0.0
Y,R,"[5, 7]",1.0,2.0,0.35382986068725586,1.8694179058074951,0.42044300756773506,21.0,212.0,0.0
Y,R,"[5, 8]",1.0,3.0,0.21505308151245117,1.7139320373535156,0.40088139895749453,21.0,213.0,0.0
G,D,"[6, 8]",1.0,4.0,0.3244600296020508,2.04585599899292,0.613337666102884,21.0,214.0,0.0
Y,R,"[6, 9]",1.0,5.0,0.1907210350036621,1.9946329593658447,0.6911080181495131,21.0,215.0,0.0
Y,R,"[6, 10]",1.0,6.0,0.25313496589660645,1.962920904159546,0.6206431759372395,21.0,216.0,0.0
R,U,"[5, 10]",1.0,7.0,0.2571558952331543,1.7601041793823242,0.39771287402476585,21.0,217.0,0.0
Y,R,"[5, 11]",0.0,7.0,0.3647580146789551,2.1412861347198486,0.6719739579526631,21.0,218.0,0.0
R,U,"[4, 11]",0.0,7.0,0.23147988319396973,1.719001054763794,0.39109987980987776,21.0,219.0,0.0
Y,R,"[5, 11]",-3.0,7.0,0.2750110626220703,2.116564989089966,0.7405294054433222,21.0,220.0,0.0
,,"(6, 6)",,,,,,,,
R,U,"[5, 6]",1.0,1.0,0.49339890480041504,2.622781991958618,0.2969606242545995,22.0,221.0,0.0
Y,R,"[5, 7]",1.0,2.0,0.25260210037231445,1.739231824874878,0.38626882032839893,22.0,222.0,0.0
Y,R,"[5, 8]",1.0,3.0,0.12439417839050293,1.506929874420166,0.27655523092186257,22.0,223.0,0.0
G,D,"[6, 8]",1.0,4.0,0.315295934677124,2.1061649322509766,0.6992303993938496,22.0,224.0,0.0
Y,R,"[6, 9]",1.0,5.0,0.21680903434753418,1.8505501747131348,0.5328983093364339,22.0,225.0,0.0
Y,R,"[6, 10]",1.0,6.0,0.22658801078796387,2.049511194229126,0.7155323559184494,22.0,226.0,0.0
R,U,"[5, 10]",1.0,7.0,0.21042704582214355,1.691659927368164,0.3740330999530269,22.0,227.0,0.0
R,U,"[4, 10]",1.0,8.0,0.30611681938171387,1.8649098873138428,0.4554164736739261,22.0,228.0,0.0
Y,R,"[4, 11]",0.0,8.0,0.2514510154724121,1.997986078262329,0.6531701473866864,22.0,229.0,0.0
Y,R,"[4, 10]",-3.0,8.0,0.19320893287658691,1.7716121673583984,0.4749831185071684,22.0,230.0,0.0
,,"(6, 6)",,,,,,,,
R,U,"[5, 6]",1.0,1.0,0.484238862991333,3.1002469062805176,0.5249684810041357,23.0,231.0,0.0
Y,R,"[5, 7]",1.0,2.0,0.19672298431396484,1.8682808876037598,0.5765072454760227,23.0,232.0,0.0
Y,R,"[5, 8]",1.0,3.0,0.19293808937072754,1.6539180278778076,0.3639111509342922,23.0,233.0,0.0
G,D,"[6, 8]",1.0,4.0,0.23832488059997559,2.0181660652160645,0.6818566709087925,23.0,234.0,0.0
Y,R,"[6, 9]",1.0,5.0,0.1405320167541504,1.65460205078125,0.40331064959118906,23.0,235.0,0.0
Y,R,"[6, 10]",1.0,6.0,0.24273991584777832,1.9172320365905762,0.5701305529838026,23.0,236.0,0.0
R,U,"[5, 10]",1.0,7.0,0.22756099700927734,1.6817600727081299,0.3521812039989353,23.0,237.0,0.0
R,U,"[4, 10]",1.0,8.0,0.8328909873962402,2.608232021331787,0.6766243288736856,23.0,238.0,0.0
B,L,"[4, 9]",1.0,9.0,0.40750980377197266,2.0986568927764893,0.592041476610202,23.0,239.0,0.0
Y,R,"[4, 10]",0.0,9.0,0.19554495811462402,2.0343899726867676,0.7429389900452725,23.0,240.0,0.0
,,"(6, 6)",,,,,,,,
R,U,"[5, 6]",1.0,1.0,0.5149738788604736,3.019529104232788,0.5791635109749027,24.0,241.0,0.0
Y,R,"[5, 7]",1.0,2.0,0.20763087272644043,2.0322811603546143,0.711268738100829,24.0,242.0,0.0
Y,R,"[5, 8]",1.0,3.0,0.18208003044128418,1.631554126739502,0.3596721911077969,24.0,243.0,0.0
G,D,"[6, 8]",1.0,4.0,0.26470208168029785,1.9095489978790283,0.5523930337581726,24.0,244.0,0.0
Y,R,"[6, 9]",1.0,5.0,0.18413496017456055,1.567842960357666,0.2870253469567388,24.0,245.0,0.0
Y,R,"[6, 10]",1.0,6.0,0.2558917999267578,1.8347411155700684,0.471818792591854,24.0,246.0,0.0
R,U,"[5, 10]",1.0,7.0,0.5688121318817139,2.1176798343658447,0.45594329879338563,24.0,247.0,0.0
R,U,"[4, 10]",1.0,8.0,0.5763189792633057,2.1469688415527344,0.46949649718273617,24.0,248.0,0.0
B,L,"[4, 9]",1.0,9.0,0.3071250915527344,1.8779430389404297,0.4807821072405559,24.0,249.0,0.0
Y,R,"[4, 10]",0.0,9.0,0.24587202072143555,1.9337060451507568,0.5811712616161616,24.0,250.0,0.0
,,"(6, 6)",,,,,,,,
R,U,"[5, 6]",1.0,1.0,0.46555399894714355,2.865769863128662,0.28012927605212623,25.0,251.0,0.0
Y,R,"[5, 7]",1.0,2.0,0.2426769733428955,2.0790369510650635,0.7254353730514982,25.0,252.0,0.0
Y,R,"[5, 8]",1.0,3.0,0.16100406646728516,1.7780349254608154,0.5202337986418469,25.0,253.0,0.0
G,D,"[6, 8]",1.0,4.0,0.1652979850769043,1.566498041152954,0.30361310795874874,25.0,254.0,0.0
Y,R,"[6, 9]",1.0,5.0,0.34062814712524414,1.9162991046905518,0.469790916364757,25.0,255.0,0.0
Y,R,"[6, 10]",1.0,6.0,0.26938605308532715,2.1123931407928467,0.7482481330408958,25.0,256.0,0.0
R,U,"[5, 10]",1.0,7.0,0.23648405075073242,2.026154041290283,0.6912148518484549,25.0,257.0,0.0
R,U,"[4, 10]",1.0,8.0,0.22490406036376953,1.7780239582061768,0.45264328672691556,25.0,258.0,0.0
B,L,"[4, 9]",1.0,9.0,0.23880410194396973,2.0159969329833984,0.6684452504750592,25.0,259.0,0.0
R,U,"[3, 9]",1.0,10.0,0.20686984062194824,1.5644171237945557,0.266479091036732,25.0,260.0,0.0
,,"(6, 6)",,,,,,,,
R,U,"[5, 6]",1.0,1.0,0.6189379692077637,4.623311996459961,0.3396804849905233,26.0,261.0,0.0
Y,R,"[5, 7]",1.0,2.0,0.2774238586425781,1.9729890823364258,0.5956298507195624,26.0,262.0,0.0
Y,R,"[5, 8]",1.0,3.0,0.19798803329467773,1.8182711601257324,0.5139444507589169,26.0,263.0,0.0
G,D,"[6, 8]",1.0,4.0,0.27665114402770996,1.653075933456421,0.2670771026558697,26.0,264.0,0.0
Y,R,"[6, 9]",1.0,5.0,0.3652920722961426,1.8337650299072266,0.36738621065125404,26.0,265.0,0.0
Y,R,"[6, 10]",1.0,6.0,0.2758629322052002,1.9750370979309082,0.5921809119589385,26.0,266.0,0.0
R,U,"[5, 10]",1.0,7.0,0.22323203086853027,1.7444980144500732,0.42009788818186206,26.0,267.0,0.0
R,U,"[4, 10]",1.0,8.0,0.1998739242553711,1.7311010360717773,0.43450896506379877,26.0,268.0,0.0
B,L,"[4, 9]",1.0,9.0,0.22179698944091797,1.7222201824188232,0.3900024175091522,26.0,269.0,0.0
R,U,"[3, 9]",1.0,10.0,0.22812294960021973,1.8669109344482422,0.5403180022194083,26.0,270.0,0.0
,,"(6, 6)",,,,,,,,
R,U,"[5, 6]",1.0,1.0,0.5596301555633545,3.4465339183807373,0.5535262536628485,27.0,271.0,0.0
Y,R,"[5, 7]",1.0,2.0,0.20104718208312988,1.858703851699829,0.5617627058349103,27.0,272.0,0.0
Y,R,"[5, 8]",-1.0,2.0,0.0944981575012207,5.8553619384765625,0.6335860596681664,27.0,273.0,0.0
Y,R,"[5, 9]",0.0,2.0,0.2825429439544678,1.7273759841918945,0.3445015139297501,27.0,274.0,0.0
G,D,"[6, 9]",1.0,3.0,0.16110897064208984,1.7582790851593018,0.5026615494502127,27.0,275.0,0.0
Y,R,"[6, 10]",1.0,4.0,0.41112399101257324,2.0322511196136475,0.5181106068606511,27.0,276.0,0.0
Y,R,"[6, 11]",0.0,4.0,0.1948699951171875,2.0476081371307373,0.7487674626788874,27.0,277.0,0.0
R,U,"[5, 11]",0.0,4.0,0.20581912994384766,2.063667058944702,0.745997728060142,27.0,278.0,0.0
G,D,"[6, 11]",0.0,4.0,0.30211400985717773,1.9023628234863281,0.49819243200408486,27.0,279.0,0.0
R,U,"[5, 11]",0.0,4.0,0.29510998725891113,1.695693016052246,0.2939925248056841,27.0,280.0,0.0
,,"(6, 6)",,,,,,,,
R,U,"[5, 6]",1.0,1.0,0.40053510665893555,3.318571090698242,0.6621995936168674,28.0,281.0,0.0
Y,R,"[5, 7]",1.0,2.0,0.16307592391967773,1.5871250629425049,0.33282787351870013,28.0,282.0,0.0
Y,R,"[5, 8]",1.0,3.0,0.2860078811645508,2.021705150604248,0.637525009890564,28.0,283.0,0.0
G,D,"[6, 8]",1.0,4.0,0.2929210662841797,2.027996063232422,0.6322590470038445,28.0,284.0,0.0
Y,R,"[6, 9]",1.0,5.0,0.23590612411499023,1.881692886352539,0.5472076994855365,28.0,285.0,0.0
Y,R,"[6, 10]",1.0,6.0,0.26154088973999023,1.868021011352539,0.4985293552845142,28.0,286.0,0.0
R,U,"[5, 10]",1.0,7.0,0.29697108268737793,1.7499949932098389,0.3486121625468354,28.0,287.0,0.0
R,U,"[4, 10]",1.0,8.0,0.2498340606689453,2.0371718406677246,0.6853965325687182,28.0,288.0,0.0
B,L,"[4, 9]",1.0,9.0,0.23490405082702637,1.7104508876800537,0.379492451960826,28.0,289.0,0.0
R,U,"[3, 9]",1.0,10.0,0.2827749252319336,2.0195250511169434,0.6320877053110128,28.0,290.0,0.0
,,"(6, 6)",,,,,,,,
R,U,"[5, 6]",1.0,1.0,0.6016571521759033,3.7579431533813477,0.6564460732304673,29.0,291.0,0.0
Y,R,"[5, 7]",1.0,2.0,0.17315006256103516,1.9780900478363037,0.7011190642198497,29.0,292.0,0.0
Y,R,"[5, 8]",1.0,3.0,0.18481993675231934,1.9850811958312988,0.7028520625257191,29.0,293.0,0.0
G,D,"[6, 8]",1.0,4.0,0.2514219284057617,1.9575629234313965,0.6104308119920352,29.0,294.0,0.0
Y,R,"[6, 9]",1.0,5.0,0.22733402252197266,1.7502110004425049,0.42747359351050296,29.0,295.0,0.0
Y,R,"[6, 10]",1.0,6.0,0.2866230010986328,1.947817087173462,0.5749918356742014,29.0,296.0,0.0
R,U,"[5, 10]",1.0,7.0,0.2804710865020752,1.7646980285644531,0.38973295243385986,29.0,297.0,0.0
R,U,"[4, 10]",1.0,8.0,0.30350589752197266,1.8019928932189941,0.40847271621822256,29.0,298.0,0.0
B,L,"[4, 9]",1.0,9.0,0.308535099029541,2.050745964050293,0.6422672410148207,29.0,299.0,0.0
R,U,"[3, 9]",1.0,10.0,0.20654988288879395,1.8405070304870605,0.532684531212052,29.0,300.0,0.0
,,"(6, 6)",,,,,,,,
R,U,"[5, 6]",1.0,1.0,0.5211238861083984,3.0848488807678223,0.4010198131518279,30.0,301.0,0.0
Y,R,"[5, 7]",1.0,2.0,0.26903796195983887,1.8311219215393066,0.4653316210090878,30.0,302.0,0.0
Y,R,"[5, 8]",1.0,3.0,0.2676570415496826,2.057224988937378,0.6894304060807701,30.0,303.0,0.0
G,D,"[6, 8]",1.0,4.0,0.22063589096069336,1.801145076751709,0.49024794432281193,30.0,304.0,0.0
Y,R,"[6, 9]",1.0,5.0,0.2647218704223633,1.61686110496521,0.25717187554988863,30.0,305.0,0.0
Y,R,"[6, 10]",1.0,6.0,0.3599851131439209,1.8377840518951416,0.37816971799100874,30.0,306.0,0.0
R,U,"[5, 10]",1.0,7.0,0.3356130123138428,1.6864128112792969,0.2646251904973047,30.0,307.0,0.0
R,U,"[4, 10]",1.0,8.0,0.32065606117248535,1.8352389335632324,0.4164080417193173,30.0,308.0,0.0
B,L,"[4, 9]",1.0,9.0,0.2831730842590332,2.0513641834259033,0.6673781914901191,30.0,309.0,0.0
R,U,"[3, 9]",1.0,10.0,0.3231828212738037,1.75777006149292,0.3255101196306919,30.0,310.0,0.0
,,"(6, 6)",,,,,,,,
R,U,"[5, 6]",1.0,1.0,0.6205928325653076,3.398282051086426,0.6898977474376837,31.0,311.0,0.0
Y,R,"[5, 7]",1.0,2.0,0.2011890411376953,1.9679310321807861,0.674355472842416,31.0,312.0,0.0
Y,R,"[5, 8]",1.0,3.0,0.1954050064086914,1.833137035369873,0.5410307025016294,31.0,313.0,0.0
G,D,"[6, 8]",1.0,4.0,0.3180360794067383,1.8135590553283691,0.4047744930399467,31.0,314.0,0.0
Y,R,"[6, 9]",1.0,5.0,0.33492302894592285,2.1096441745758057,0.6806960614322846,31.0,315.0,0.0
Y,R,"[6, 10]",1.0,6.0,0.27169084548950195,1.8080520629882812,0.43897146458154546,31.0,316.0,0.0
R,U,"[5, 10]",1.0,7.0,0.2886378765106201,1.977776050567627,0.5831039462267915,31.0,317.0,0.0
R,U,"[4, 10]",1.0,8.0,0.2582380771636963,1.9672040939331055,0.6003334002792189,31.0,318.0,0.0
B,L,"[4, 9]",1.0,9.0,0.37154698371887207,1.9680421352386475,0.5017253150180436,31.0,319.0,0.0
R,U,"[3, 9]",1.0,10.0,0.33296799659729004,1.873995065689087,0.442342248883239,31.0,320.0,0.0
,,"(6, 6)",,,,,,,,
R,U,"[5, 6]",1.0,1.0,0.5656030178070068,3.0137171745300293,0.43923847234973334,32.0,321.0,0.0
Y,R,"[5, 7]",1.0,2.0,0.2628040313720703,1.9848361015319824,0.6239053607014574,32.0,322.0,0.0
Y,R,"[5, 8]",1.0,3.0,0.2792069911956787,1.8702490329742432,0.49446256072017425,32.0,323.0,0.0
G,D,"[6, 8]",1.0,4.0,0.2594161033630371,1.7660861015319824,0.4103061414948639,32.0,324.0,0.0
Y,R,"[6, 9]",1.0,5.0,0.2947499752044678,2.0845260620117188,0.6945484385271454,32.0,325.0,0.0
Y,R,"[6, 10]",1.0,6.0,0.18836021423339844,1.9593820571899414,0.6871984066280357,32.0,326.0,0.0
R,U,"[5, 10]",1.0,7.0,0.3163738250732422,1.939276933670044,0.5264554962476674,32.0,327.0,0.0
R,U,"[4, 10]",1.0,8.0,0.19062304496765137,1.8973140716552734,0.6070687947792299,32.0,328.0,0.0
B,L,"[4, 9]",1.0,9.0,0.3884449005126953,2.073106050491333,0.5966805504992501,32.0,329.0,0.0
R,U,"[3, 9]",1.0,10.0,0.22586488723754883,1.6364250183105469,0.3000673532313137,32.0,330.0,0.0
,,"(6, 6)",,,,,,,,
R,U,"[5, 6]",1.0,1.0,0.453416109085083,2.894361972808838,0.5107875531397542,33.0,331.0,0.0
Y,R,"[5, 7]",1.0,2.0,0.19331097602844238,1.5862510204315186,0.29723493384099536,33.0,332.0,0.0
Y,R,"[5, 8]",1.0,3.0,0.322070837020874,2.035222053527832,0.5987990032367932,33.0,333.0,0.0
G,D,"[6, 8]",1.0,4.0,0.22475600242614746,1.597717046737671,0.2633601727156166,33.0,334.0,0.0
Y,R,"[6, 9]",1.0,5.0,0.418720006942749,2.0229108333587646,0.5027041603282663,33.0,335.0,0.0
Y,R,"[6, 10]",1.0,6.0,0.2526278495788574,2.029977798461914,0.6824927787809413,33.0,336.0,0.0
R,U,"[5, 10]",1.0,7.0,0.24464893341064453,2.0074360370635986,0.6565608983987461,33.0,337.0,0.0
R,U,"[4, 10]",1.0,8.0,0.23465514183044434,1.8444340229034424,0.5177426718203902,33.0,338.0,0.0
B,L,"[4, 9]",1.0,9.0,0.1895589828491211,1.9558000564575195,0.6565507605373113,33.0,339.0,0.0
R,U,"[3, 9]",1.0,10.0,0.2565767765045166,1.7514269351959229,0.39147787232089853,33.0,340.0,0.0
,,"(6, 6)",,,,,,,,
R,U,"[5, 6]",1.0,1.0,0.29217100143432617,3.45619797706604,0.7139606485405758,34.0,341.0,0.0
Y,R,"[5, 7]",1.0,2.0,0.20490097999572754,1.9089210033416748,0.5896982097543686,34.0,342.0,0.0
Y,R,"[5, 8]",1.0,3.0,0.23785901069641113,1.9720849990844727,0.6450561530541794,34.0,343.0,0.0
G,D,"[6, 8]",1.0,4.0,0.18446111679077148,1.9370028972625732,0.6652683287845863,34.0,344.0,0.0
Y,R,"[6, 9]",1.0,5.0,0.21708083152770996,1.6936330795288086,0.3756710433003504,34.0,345.0,0.0
Y,R,"[6, 10]",1.0,6.0,0.7957689762115479,2.566694974899292,0.675453437899123,34.0,346.0,0.0
R,U,"[5, 10]",1.0,7.0,0.22008395195007324,1.9153199195861816,0.607277049504813,34.0,347.0,0.0
R,U,"[4, 10]",1.0,8.0,0.19238495826721191,1.6147589683532715,0.32233508483135825,34.0,348.0,0.0
B,L,"[4, 9]",1.0,9.0,0.3187370300292969,1.7368052005767822,0.32579637806262973,34.0,349.0,0.0
R,U,"[3, 9]",1.0,10.0,0.28328800201416016,1.66798996925354,0.2937081815515059,34.0,350.0,0.0
,,"(6, 6)",,,,,,,,
R,U,"[5, 6]",1.0,1.0,0.37541699409484863,3.8217790126800537,0.4318734261991662,35.0,351.0,0.0
Y,R,"[5, 7]",1.0,2.0,0.23671507835388184,1.9514009952545166,0.6163648354966522,35.0,352.0,0.0
Y,R,"[5, 8]",1.0,3.0,0.2451341152191162,2.05184006690979,0.7015058352210781,35.0,353.0,0.0
G,D,"[6, 8]",1.0,4.0,0.19642901420593262,1.6610658168792725,0.36277756552112933,35.0,354.0,0.0
Y,R,"[6, 9]",1.0,5.0,0.26340293884277344,1.9653289318084717,0.5945733001640815,35.0,355.0,0.0
Y,R,"[6, 10]",1.0,6.0,0.12275004386901855,1.7897100448608398,0.5842799333371453,35.0,356.0,0.0
R,U,"[5, 10]",1.0,7.0,0.25937485694885254,1.8805460929870605,0.5146979150591713,35.0,357.0,0.0
R,U,"[4, 10]",-1.0,7.0,0.0393221378326416,5.822603940963745,0.653600503856383,35.0,358.0,0.0
R,U,"[3, 10]",0.0,7.0,0.2493751049041748,2.0143468379974365,0.6679465318275633,35.0,359.0,0.0
B,L,"[3, 9]",1.0,8.0,0.25082993507385254,2.038532018661499,0.6898290301566237,35.0,360.0,0.0
,,"(6, 6)",,,,,,,,
R,U,"[5, 6]",1.0,1.0,0.3209068775177002,3.1906189918518066,0.4803796359078464,36.0,361.0,0.0
Y,R,"[5, 7]",1.0,2.0,0.3032040596008301,2.0410830974578857,0.6380650065481646,36.0,362.0,0.0
Y,R,"[5, 8]",1.0,3.0,0.24689197540283203,1.8927841186523438,0.547445559300903,36.0,363.0,0.0
G,D,"[6, 8]",1.0,4.0,0.29970288276672363,1.7871530055999756,0.38474003899565645,36.0,364.0,0.0
Y,R,"[6, 9]",1.0,5.0,0.288438081741333,2.130748987197876,0.7322498342018906,36.0,365.0,0.0
Y,R,"[6, 10]",1.0,6.0,0.2490229606628418,2.03086519241333,0.6793378737850566,36.0,366.0,0.0
R,U,"[5, 10]",1.0,7.0,0.2970578670501709,2.1243350505828857,0.7201204638746632,36.0,367.0,0.0
R,U,"[4, 10]",1.0,8.0,0.27467894554138184,1.978053092956543,0.5982665218691934,36.0,368.0,0.0
B,L,"[4, 9]",1.0,9.0,0.28469204902648926,1.7949399948120117,0.4100121155723962,36.0,369.0,0.0
R,U,"[3, 9]",1.0,10.0,0.35527706146240234,1.8251919746398926,0.38524942927624173,36.0,370.0,0.0
,,"(6, 6)",,,,,,,,
R,U,"[5, 6]",1.0,1.0,0.5849549770355225,3.70603084564209,0.7073978270238608,37.0,371.0,0.0
Y,R,"[5, 7]",1.0,2.0,0.30699801445007324,1.8732240200042725,0.4643103558053678,37.0,372.0,0.0
Y,R,"[5, 8]",1.0,3.0,0.3024451732635498,2.133668899536133,0.7308968438162116,37.0,373.0,0.0
G,D,"[6, 8]",1.0,4.0,0.4041910171508789,1.7782618999481201,0.2762241809518269,37.0,374.0,0.0
Y,R,"[6, 9]",1.0,5.0,0.47040295600891113,2.0195469856262207,0.4622316489601594,37.0,375.0,0.0
Y,R,"[6, 10]",1.0,6.0,0.3297739028930664,1.9875459671020508,0.5661356238388977,37.0,376.0,0.0
R,U,"[5, 10]",1.0,7.0,0.2659001350402832,1.840609073638916,0.47348420049722656,37.0,377.0,0.0
R,U,"[4, 10]",1.0,8.0,0.27137303352355957,1.9975919723510742,0.6207942248343661,37.0,378.0,0.0
B,L,"[4, 9]",1.0,9.0,0.2620878219604492,1.8710768222808838,0.5087287222707012,37.0,379.0,0.0
R,U,"[3, 9]",1.0,10.0,0.28862905502319336,1.7501230239868164,0.35892482262822717,37.0,380.0,0.0
,,"(6, 6)",,,,,,,,
R,U,"[5, 6]",1.0,1.0,0.5970380306243896,3.524061918258667,0.6492886949287654,38.0,381.0,0.0
Y,R,"[5, 7]",1.0,2.0,0.21732091903686523,1.6987800598144531,0.3816217977955766,38.0,382.0,0.0
Y,R,"[5, 8]",1.0,3.0,0.3031630516052246,2.0827159881591797,0.6805238949076853,38.0,383.0,0.0
G,D,"[6, 8]",1.0,4.0,0.2128748893737793,1.9789891242980957,0.6598419714018686,38.0,384.0,0.0
Y,R,"[6, 9]",1.0,5.0,0.19814205169677734,1.9439799785614014,0.6534238653084812,38.0,385.0,0.0
Y,R,"[6, 10]",1.0,6.0,0.21619296073913574,1.6919260025024414,0.37887908880854,38.0,386.0,0.0
R,U,"[5, 10]",1.0,7.0,0.41872501373291016,2.1971700191497803,0.6923964246664975,38.0,387.0,0.0
R,U,"[4, 10]",1.0,8.0,0.3217639923095703,1.762740135192871,0.3387018282820461,38.0,388.0,0.0
B,L,"[4, 9]",1.0,9.0,0.3191080093383789,2.10540509223938,0.6937822178542135,38.0,389.0,0.0
B,L,"[4, 8]",0.0,9.0,0.29998207092285156,1.708664894104004,0.31943703433321186,38.0,390.0,0.0
,,"(6, 6)",,,,,,,,
R,U,"[5, 6]",1.0,1.0,0.4663429260253906,3.319675922393799,0.5720063210540791,39.0,391.0,0.0
Y,R,"[5, 7]",1.0,2.0,0.2536640167236328,1.7332208156585693,0.38880860652370486,39.0,392.0,0.0
Y,R,"[5, 8]",1.0,3.0,0.31739091873168945,1.6902949810028076,0.2790714325041857,39.0,393.0,0.0
G,D,"[6, 8]",1.0,4.0,0.43381595611572266,1.8717429637908936,0.35058521452604,39.0,394.0,0.0
Y,R,"[6, 9]",1.0,5.0,0.4548051357269287,2.0279109477996826,0.4616439699490832,39.0,395.0,0.0
Y,R,"[6, 10]",1.0,6.0,0.2988440990447998,1.8848869800567627,0.4964592921625329,39.0,396.0,0.0
R,U,"[5, 10]",1.0,7.0,0.4337451457977295,2.1535089015960693,0.616491667657544,39.0,397.0,0.0
R,U,"[4, 10]",1.0,8.0,0.21897602081298828,2.0191540718078613,0.702302285889181,39.0,398.0,0.0
B,L,"[4, 9]",1.0,9.0,0.26415586471557617,1.687204122543335,0.3231426102394177,39.0,399.0,0.0
R,U,"[3, 9]",1.0,10.0,0.4116950035095215,1.7697110176086426,0.2594545021929317,39.0,400.0,0.0
,,"(6, 6)",,,,,,,,
R,U,"[5, 6]",1.0,1.0,0.5151350498199463,3.111332893371582,0.4205871269922908,40.0,401.0,0.0
Y,R,"[5, 7]",1.0,2.0,0.2771000862121582,1.85263991355896,0.4730647009874861,40.0,402.0,0.0
Y,R,"[5, 8]",1.0,3.0,0.24219703674316406,1.9451408386230469,0.6013307318567289,40.0,403.0,0.0
G,D,"[6, 8]",1.0,4.0,0.2745020389556885,1.7578890323638916,0.37604648890283887,40.0,404.0,0.0
Y,R,"[6, 9]",1.0,5.0,0.35133910179138184,1.9417941570281982,0.50102786862591,40.0,405.0,0.0
Y,R,"[6, 10]",1.0,6.0,0.2982940673828125,1.6610510349273682,0.26216737841641047,40.0,406.0,0.0
R,U,"[5, 10]",1.0,7.0,0.4381520748138428,1.8770341873168945,0.3390920051533313,40.0,407.0,0.0
R,U,"[4, 10]",1.0,8.0,0.40977001190185547,2.257761001586914,0.7464923251678033,40.0,408.0,0.0
B,L,"[4, 9]",1.0,9.0,0.2850170135498047,1.9172639846801758,0.5305867667704083,40.0,409.0,0.0
R,U,"[3, 9]",1.0,10.0,0.3223440647125244,1.9998209476470947,0.5635853395152228,40.0,410.0,0.0
,,"(6, 6)",,,,,,,,
R,U,"[5, 6]",1.0,1.0,0.49533796310424805,3.0337748527526855,0.7140742024446143,41.0,411.0,0.0
Y,R,"[5, 7]",1.0,2.0,0.2770841121673584,1.6693289279937744,0.283550137915419,41.0,412.0,0.0
Y,R,"[5, 8]",1.0,3.0,0.4066300392150879,2.2381582260131836,0.7212226574414493,41.0,413.0,0.0
G,D,"[6, 8]",1.0,4.0,0.2552008628845215,1.6614739894866943,0.316399866974872,41.0,414.0,0.0
Y,R,"[6, 9]",1.0,5.0,0.3502540588378906,1.8714611530303955,0.42085812106863457,41.0,415.0,0.0
Y,R,"[6, 10]",1.0,6.0,0.4651792049407959,2.0791079998016357,0.516616200861927,41.0,416.0,0.0
R,U,"[5, 10]",1.0,7.0,0.29749608039855957,1.7347798347473145,0.33471158813861496,41.0,417.0,0.0
R,U,"[4, 10]",1.0,8.0,0.39283180236816406,1.8006608486175537,0.3020900698485498,41.0,418.0,0.0
B,L,"[4, 9]",1.0,9.0,0.4118461608886719,2.012699842453003,0.49789456502590385,41.0,419.0,0.0
R,U,"[3, 9]",1.0,10.0,0.30799198150634766,2.1215460300445557,0.7024232459286377,41.0,420.0,0.0
,,"(6, 6)",,,,,,,,
R,U,"[5, 6]",1.0,1.0,0.6103940010070801,3.2586801052093506,0.42796763954067,42.0,421.0,0.0
Y,R,"[5, 7]",1.0,2.0,0.3575010299682617,2.100277900695801,0.6447490376422773,42.0,422.0,0.0
Y,R,"[5, 8]",1.0,3.0,0.23915910720825195,1.8971858024597168,0.5584818723165985,42.0,423.0,0.0
G,D,"[6, 8]",1.0,4.0,0.41327595710754395,2.244536876678467,0.7362364618978011,42.0,424.0,0.0
Y,R,"[6, 9]",1.0,5.0,0.23910212516784668,1.9807238578796387,0.6501930560845746,42.0,425.0,0.0
Y,R,"[6, 10]",1.0,6.0,0.24910902976989746,1.7316160202026367,0.38209644540716514,42.0,426.0,0.0
R,U,"[5, 10]",1.0,7.0,0.3094959259033203,2.027209997177124,0.6090149107521978,42.0,427.0,0.0
R,U,"[4, 10]",1.0,8.0,0.2588779926300049,1.8653068542480469,0.5076496866551088,42.0,428.0,0.0
B,L,"[4, 9]",1.0,9.0,0.27613210678100586,2.029547929763794,0.6536491534649909,42.0,429.0,0.0
R,U,"[3, 9]",1.0,10.0,0.28840017318725586,1.681818962097168,0.2857646709730875,42.0,430.0,0.0
,,"(6, 6)",,,,,,,,
R,U,"[5, 6]",1.0,1.0,0.6424250602722168,3.2293190956115723,0.4649130793642362,43.0,431.0,0.0
Y,R,"[5, 7]",1.0,2.0,0.35745716094970703,1.835880994796753,0.36752600434112753,43.0,432.0,0.0
Y,R,"[5, 8]",1.0,3.0,0.30069589614868164,2.138904094696045,0.7396371240386725,43.0,433.0,0.0
G,D,"[6, 8]",1.0,4.0,0.24743103981018066,1.6125919818878174,0.26916066556235646,43.0,434.0,0.0
Y,R,"[6, 9]",1.0,5.0,0.5086500644683838,2.2474310398101807,0.6325612289210146,43.0,435.0,0.0
Y,R,"[6, 10]",1.0,6.0,0.2245311737060547,1.7841150760650635,0.45019955112288707,43.0,436.0,0.0
R,U,"[5, 10]",1.0,7.0,0.30216002464294434,1.707543134689331,0.30773714588789475,43.0,437.0,0.0
R,U,"[4, 10]",1.0,8.0,0.3271660804748535,1.9658429622650146,0.5400150288851213,43.0,438.0,0.0
B,L,"[4, 9]",1.0,9.0,0.28876304626464844,2.137002944946289,0.7433788748474439,43.0,439.0,0.0
R,U,"[3, 9]",1.0,10.0,0.3630678653717041,2.1804850101470947,0.7239171270845255,43.0,440.0,0.0
,,"(6, 6)",,,,,,,,
R,U,"[5, 6]",1.0,1.0,0.36356186866760254,6.1172590255737305,0.5910082630541335,44.0,441.0,0.0
Y,R,"[5, 7]",1.0,2.0,0.2141420841217041,1.678624153137207,0.36978916654460875,44.0,442.0,0.0
Y,R,"[5, 8]",1.0,3.0,0.3446519374847412,1.7291290760040283,0.28237359885508007,44.0,443.0,0.0
G,D,"[6, 8]",1.0,4.0,0.3601949214935303,1.8446311950683594,0.37691039819468963,44.0,444.0,0.0
Y,R,"[6, 9]",1.0,5.0,0.3320188522338867,1.9626810550689697,0.5395191405909842,44.0,445.0,0.0
Y,R,"[6, 10]",1.0,6.0,0.2601621150970459,2.05997896194458,0.6990512671936739,44.0,446.0,0.0
R,U,"[5, 10]",1.0,7.0,0.19745898246765137,1.5661509037017822,0.26562995738315387,44.0,447.0,0.0
R,U,"[4, 10]",1.0,8.0,0.2897801399230957,1.7231419086456299,0.3218707614937251,44.0,448.0,0.0
Y,R,"[4, 11]",0.0,8.0,0.2732388973236084,2.0755069255828857,0.6970383545069156,44.0,449.0,0.0
Y,R,"[4, 10]",-3.0,8.0,0.2957730293273926,1.9677200317382812,0.5647417099231572,44.0,450.0,0.0
,,"(6, 6)",,,,,,,,
R,U,"[5, 6]",1.0,1.0,0.45559120178222656,5.7874369621276855,0.41875583796265176,45.0,451.0,0.0
Y,R,"[5, 7]",1.0,2.0,0.24472594261169434,1.6925039291381836,0.3446721013737978,45.0,452.0,0.0
Y,R,"[5, 8]",1.0,3.0,0.2165229320526123,1.808229923248291,0.5030634089922874,45.0,453.0,0.0
G,D,"[6, 8]",1.0,4.0,0.18982911109924316,1.7302889823913574,0.4330393212705665,45.0,454.0,0.0
B,L,"[6, 7]",0.0,4.0,0.20223212242126465,1.6429901123046875,0.34266573056983063,45.0,455.0,0.0
B,L,"[6, 6]",0.0,4.0,0.26001501083374023,1.9854021072387695,0.6278648064257941,45.0,456.0,0.0
B,L,"[6, 5]",0.0,4.0,0.16849899291992188,1.8974218368530273,0.6418476542229914,45.0,457.0,0.0
B,L,"[6, 4]",-1.0,4.0,0.08052492141723633,5.678448915481567,0.47017495532291514,45.0,458.0,0.0
B,L,"[6, 3]",0.0,4.0,0.2549121379852295,1.890077829360962,0.5269183036568641,45.0,459.0,0.0
B,L,"[6, 2]",0.0,4.0,0.27591681480407715,1.7791540622711182,0.4060595380160959,45.0,460.0,0.0
,,"(6, 6)",,,,,,,,
R,U,"[5, 6]",1.0,1.0,0.6783947944641113,3.141983985900879,0.5477296575348337,46.0,461.0,0.0
Y,R,"[5, 7]",1.0,2.0,0.25626707077026367,1.77821683883667,0.40948655846176013,46.0,462.0,0.0
Y,R,"[5, 8]",1.0,3.0,0.28558897972106934,1.9128358364105225,0.5387669876299033,46.0,463.0,0.0
G,D,"[6, 8]",1.0,4.0,0.3048739433288574,1.7053158283233643,0.2941786981384453,46.0,464.0,0.0
Y,R,"[6, 9]",1.0,5.0,0.3098750114440918,1.701145887374878,0.2952230154195826,46.0,465.0,0.0
Y,R,"[6, 10]",1.0,6.0,0.3159458637237549,2.1311378479003906,0.7259751838314883,46.0,466.0,0.0
R,U,"[5, 10]",1.0,7.0,0.3046281337738037,1.7163078784942627,0.325736874464974,46.0,467.0,0.0
R,U,"[4, 10]",1.0,8.0,0.30275607109069824,1.9138028621673584,0.5226475599667564,46.0,468.0,0.0
B,L,"[4, 9]",1.0,9.0,0.26308107376098633,1.7724080085754395,0.4116192260332906,46.0,469.0,0.0
R,U,"[3, 9]",1.0,10.0,0.33036279678344727,1.936535120010376,0.5147022570644765,46.0,470.0,0.0
,,"(6, 6)",,,,,,,,
R,U,"[5, 6]",1.0,1.0,0.5856168270111084,2.785320997238159,0.3501258897026816,47.0,471.0,0.0
Y,R,"[5, 7]",1.0,2.0,0.3921220302581787,1.792846918106079,0.29301273546108597,47.0,472.0,0.0
Y,R,"[5, 8]",1.0,3.0,0.31075310707092285,1.845276117324829,0.4380381545792027,47.0,473.0,0.0
G,D,"[6, 8]",1.0,4.0,0.3171560764312744,1.6741139888763428,0.2621479867362236,47.0,474.0,0.0
Y,R,"[6, 9]",1.0,5.0,0.5579161643981934,2.2878739833831787,0.6330137429168065,47.0,475.0,0.0
Y,R,"[6, 10]",1.0,6.0,0.23081302642822266,1.9301831722259521,0.5963487363688791,47.0,476.0,0.0
R,U,"[5, 10]",1.0,7.0,0.2689070701599121,2.04866099357605,0.6781585198807514,47.0,477.0,0.0
R,U,"[4, 10]",1.0,8.0,0.24309301376342773,1.6041569709777832,0.2660915539153164,47.0,478.0,0.0
B,L,"[4, 9]",1.0,9.0,0.40541887283325195,1.9794001579284668,0.4451617573994949,47.0,479.0,0.0
R,U,"[3, 9]",1.0,10.0,0.2947819232940674,2.0760819911956787,0.6875641091398854,47.0,480.0,0.0
,,"(6, 6)",,,,,,,,
R,U,"[5, 6]",1.0,1.0,0.5313351154327393,2.71541690826416,0.38637887082735056,48.0,481.0,0.0
Y,R,"[5, 7]",1.0,2.0,0.35036706924438477,2.1067609786987305,0.65943681982344,48.0,482.0,0.0
Y,R,"[5, 8]",1.0,3.0,0.2377300262451172,1.954766035079956,0.6308309984408949,48.0,483.0,0.0
G,D,"[6, 8]",1.0,4.0,0.2099318504333496,1.9875400066375732,0.6683894170254041,48.0,484.0,0.0
Y,R,"[6, 9]",1.0,5.0,0.2775421142578125,1.7901570796966553,0.4086677808228788,48.0,485.0,0.0
Y,R,"[6, 10]",1.0,6.0,0.37624382972717285,2.1601409912109375,0.6850531810114842,48.0,486.0,0.0
R,U,"[5, 10]",1.0,7.0,0.33698201179504395,2.0677859783172607,0.6361961374631175,48.0,487.0,0.0
R,U,"[4, 10]",1.0,8.0,0.26421093940734863,1.814234972000122,0.4504533417155367,48.0,488.0,0.0
B,L,"[4, 9]",1.0,9.0,0.33829402923583984,2.010673999786377,0.5608846769334179,48.0,489.0,0.0
R,U,"[3, 9]",1.0,10.0,0.2722289562225342,1.6566200256347656,0.2843675168040023,48.0,490.0,0.0
,,"(6, 6)",,,,,,,,
R,U,"[5, 6]",1.0,1.0,0.6022858619689941,3.0061609745025635,0.2904021834500942,49.0,491.0,0.0
Y,R,"[5, 7]",1.0,2.0,0.40749216079711914,1.8881821632385254,0.3783792269355221,49.0,492.0,0.0
Y,R,"[5, 8]",1.0,3.0,0.4272041320800781,2.2705459594726562,0.7485383871061019,49.0,493.0,0.0
G,D,"[6, 8]",1.0,4.0,0.20070791244506836,2.009610891342163,0.7080199070677088,49.0,494.0,0.0
Y,R,"[6, 9]",1.0,5.0,0.2547769546508789,1.7420358657836914,0.38374281229614066,49.0,495.0,0.0
Y,R,"[6, 10]",1.0,6.0,0.31053686141967773,1.6912620067596436,0.27493180301615283,49.0,496.0,0.0
R,U,"[5, 10]",1.0,7.0,0.34317898750305176,1.7408111095428467,0.29907297862096555,49.0,497.0,0.0
R,U,"[4, 10]",1.0,8.0,0.2961759567260742,2.0107901096343994,0.6094053145867507,49.0,498.0,0.0
B,L,"[4, 9]",1.0,9.0,0.3743159770965576,2.1444039344787598,0.6702561043478406,49.0,499.0,0.0
R,U,"[3, 9]",1.0,10.0,0.3118250370025635,1.8782868385314941,0.4654206914877059,49.0,500.0,0.0
,,"(6, 6)",,,,,,,,
R,U,"[5, 6]",1.0,1.0,0.5810139179229736,2.9864370822906494,0.41845916972466707,50.0,501.0,0.0
Y,R,"[5, 7]",1.0,2.0,0.3925638198852539,2.115955114364624,0.6173416165911363,50.0,502.0,0.0
Y,R,"[5, 8]",1.0,3.0,0.24168801307678223,1.9397759437561035,0.5904690289392547,50.0,503.0,0.0
G,D,"[6, 8]",1.0,4.0,0.3374180793762207,1.777392864227295,0.3346437598237928,50.0,504.0,0.0
Y,R,"[6, 9]",1.0,5.0,0.3270418643951416,1.8741979598999023,0.4419591747259957,50.0,505.0,0.0
Y,R,"[6, 10]",1.0,6.0,0.252392053604126,1.9244999885559082,0.5829743585851357,50.0,506.0,0.0
R,U,"[5, 10]",1.0,7.0,0.270967960357666,2.016510009765625,0.649347496627489,50.0,507.0,0.0
R,U,"[4, 10]",1.0,8.0,0.2533237934112549,1.6364169120788574,0.2859623827332666,50.0,508.0,0.0
B,L,"[4, 9]",1.0,9.0,0.44901609420776367,1.8072021007537842,0.25971780965524116,50.0,509.0,0.0
R,U,"[3, 9]",1.0,10.0,0.39586591720581055,1.9675440788269043,0.4771193099297349,50.0,510.0,0.0
,,"(6, 6)",,,,,,,,
R,U,"[5, 6]",1.0,1.0,0.5813510417938232,3.275122880935669,0.4686630161884891,51.0,511.0,0.0
Y,R,"[5, 7]",1.0,2.0,0.32384204864501953,1.6822738647460938,0.25117722102997975,51.0,512.0,0.0
Y,R,"[5, 8]",1.0,3.0,0.45745301246643066,2.0558998584747314,0.48997715120051655,51.0,513.0,0.0
G,D,"[6, 8]",1.0,4.0,0.3883650302886963,2.015655040740967,0.5221761232276726,51.0,514.0,0.0
Y,R,"[6, 9]",1.0,5.0,0.38198399543762207,2.0422589778900146,0.5643429195359135,51.0,515.0,0.0
Y,R,"[6, 10]",1.0,6.0,0.2556428909301758,2.0872089862823486,0.7347625020239215,51.0,516.0,0.0
R,U,"[5, 10]",1.0,7.0,0.23142194747924805,2.0115561485290527,0.6794619689041843,51.0,517.0,0.0
R,U,"[4, 10]",1.0,8.0,0.2655329704284668,1.6495471000671387,0.2793342479824926,51.0,518.0,0.0
B,L,"[4, 9]",1.0,9.0,0.3270440101623535,1.9962949752807617,0.5585922414068958,51.0,519.0,0.0
R,U,"[3, 9]",1.0,10.0,0.3543388843536377,1.9304938316345215,0.47234213117294177,51.0,520.0,0.0
,,"(6, 6)",,,,,,,,
R,U,"[5, 6]",1.0,1.0,0.5151000022888184,2.5075719356536865,0.3133462402880881,52.0,521.0,0.0
Y,R,"[5, 7]",1.0,2.0,0.4281601905822754,2.068274974822998,0.5314909839407156,52.0,522.0,0.0
Y,R,"[5, 8]",1.0,3.0,0.2869720458984375,1.6633532047271729,0.2782450475514247,52.0,523.0,0.0
G,D,"[6, 8]",1.0,4.0,0.4576730728149414,2.2004830837249756,0.6448804807961204,52.0,524.0,0.0
Y,R,"[6, 9]",1.0,5.0,0.2963709831237793,1.7235491275787354,0.3354107166893289,52.0,525.0,0.0
Y,R,"[6, 10]",1.0,6.0,0.38136911392211914,1.9320919513702393,0.4504771747586097,52.0,526.0,0.0
R,U,"[5, 10]",1.0,7.0,0.31974101066589355,1.7834539413452148,0.3673000290426449,52.0,527.0,0.0
R,U,"[4, 10]",1.0,8.0,0.2533109188079834,2.0332272052764893,0.6835526763921166,52.0,528.0,0.0
B,L,"[4, 9]",1.0,9.0,0.255889892578125,1.8249850273132324,0.4754583705424852,52.0,529.0,0.0
R,U,"[3, 9]",1.0,10.0,0.3902139663696289,1.88401198387146,0.39270161629386663,52.0,530.0,0.0
,,"(6, 6)",,,,,,,,
R,U,"[5, 6]",1.0,1.0,0.5760979652404785,3.4284679889678955,0.6373089578604714,53.0,531.0,0.0
Y,R,"[5, 7]",1.0,2.0,0.28522205352783203,1.716141939163208,0.33698400061228273,53.0,532.0,0.0
Y,R,"[5, 8]",1.0,3.0,0.18545198440551758,1.661271095275879,0.3814740418302015,53.0,533.0,0.0
G,D,"[6, 8]",1.0,4.0,0.2970740795135498,1.9650988578796387,0.5629479436042881,53.0,534.0,0.0
Y,R,"[6, 9]",1.0,5.0,0.2543489933013916,2.081756830215454,0.7279346505696459,53.0,535.0,0.0
Y,R,"[6, 10]",1.0,6.0,0.16083979606628418,1.831347942352295,0.5760375091790887,53.0,536.0,0.0
R,U,"[5, 10]",1.0,7.0,0.26541996002197266,1.7907538414001465,0.4337190391278184,53.0,537.0,0.0
R,U,"[4, 10]",1.0,8.0,0.3442709445953369,1.9971928596496582,0.5471682809408114,53.0,538.0,0.0
B,L,"[4, 9]",1.0,9.0,0.26437807083129883,2.009917974472046,0.6401850610335185,53.0,539.0,0.0
R,U,"[3, 9]",1.0,10.0,0.2537381649017334,1.9333159923553467,0.5901491232078334,53.0,540.0,0.0
,,"(6, 6)",,,,,,,,
R,U,"[5, 6]",1.0,1.0,0.5554900169372559,3.159379005432129,0.3495157868899137,54.0,541.0,0.0
Y,R,"[5, 7]",1.0,2.0,0.37322187423706055,2.0301220417022705,0.5460740136753288,54.0,542.0,0.0
Y,R,"[5, 8]",1.0,3.0,0.2749447822570801,1.873011827468872,0.48582030906775137,54.0,543.0,0.0
G,D,"[6, 8]",1.0,4.0,0.3081319332122803,2.1492860317230225,0.7346842905188323,54.0,544.0,0.0
Y,R,"[6, 9]",1.0,5.0,0.2813849449157715,2.1073451042175293,0.7252170153441058,54.0,545.0,0.0
Y,R,"[6, 10]",1.0,6.0,0.2670629024505615,2.046553134918213,0.6882986661424793,54.0,546.0,0.0
R,U,"[5, 10]",1.0,7.0,0.28501296043395996,2.120452880859375,0.742115385709818,54.0,547.0,0.0
R,U,"[4, 10]",1.0,8.0,0.2643468379974365,2.006211996078491,0.6482399035217645,54.0,548.0,0.0
B,L,"[4, 9]",1.0,9.0,0.2536039352416992,1.7714428901672363,0.4199515678434123,54.0,549.0,0.0
R,U,"[3, 9]",1.0,10.0,0.37632298469543457,2.0766148567199707,0.612920287406415,54.0,550.0,0.0
,,"(6, 6)",,,,,,,,
R,U,"[5, 6]",1.0,1.0,0.4494178295135498,2.8568239212036133,0.536453000494372,55.0,551.0,0.0
Y,R,"[5, 7]",1.0,2.0,0.4477829933166504,2.2027440071105957,0.6555357456595496,55.0,552.0,0.0
Y,R,"[5, 8]",1.0,3.0,0.21050810813903809,1.8763020038604736,0.5652229603807883,55.0,553.0,0.0
G,D,"[6, 8]",1.0,4.0,0.2761821746826172,2.0531868934631348,0.6681973806249748,55.0,554.0,0.0
Y,R,"[6, 9]",1.0,5.0,0.22806000709533691,1.6636998653411865,0.3321915786489575,55.0,555.0,0.0
Y,R,"[6, 10]",1.0,6.0,0.38163304328918457,1.9520490169525146,0.46731085902087244,55.0,556.0,0.0
R,U,"[5, 10]",1.0,7.0,0.23972296714782715,1.9594128131866455,0.6098899494984891,55.0,557.0,0.0
R,U,"[4, 10]",1.0,8.0,0.22931408882141113,1.8214430809020996,0.49791637123878807,55.0,558.0,0.0
B,L,"[4, 9]",1.0,9.0,0.26703691482543945,1.857206106185913,0.4883791261015652,55.0,559.0,0.0
R,U,"[3, 9]",1.0,10.0,0.36997103691101074,1.7398929595947266,0.2783809692703391,55.0,560.0,0.0
,,"(6, 6)",,,,,,,,
R,U,"[5, 6]",1.0,1.0,0.5590589046478271,3.12726092338562,0.3386851505188587,56.0,561.0,0.0
Y,R,"[5, 7]",1.0,2.0,0.33418989181518555,2.1107499599456787,0.6825646687661253,56.0,562.0,0.0
Y,R,"[5, 8]",1.0,3.0,0.17149782180786133,1.7575819492340088,0.47349336385801155,56.0,563.0,0.0
G,D,"[6, 8]",1.0,4.0,0.25052309036254883,1.610327959060669,0.2673852627247287,56.0,564.0,0.0
Y,R,"[6, 9]",1.0,5.0,0.38689517974853516,2.067260980606079,0.5841842036083476,56.0,565.0,0.0
Y,R,"[6, 10]",1.0,6.0,0.20540499687194824,2.053076982498169,0.7369869200198913,56.0,566.0,0.0
R,U,"[5, 10]",1.0,7.0,0.21785807609558105,1.642427921295166,0.32976811257802013,56.0,567.0,0.0
R,U,"[4, 10]",1.0,8.0,0.3560199737548828,1.79656982421875,0.3430491913280211,56.0,568.0,0.0
B,L,"[4, 9]",1.0,9.0,0.46871185302734375,2.0151309967041016,0.4578277561897384,56.0,569.0,0.0
R,U,"[3, 9]",1.0,10.0,0.6789829730987549,2.4013512134552,0.6256921372249097,56.0,570.0,0.0
,,"(6, 6)",,,,,,,,
R,U,"[5, 6]",1.0,1.0,0.4585268497467041,3.531967878341675,0.674035993056125,57.0,571.0,0.0
Y,R,"[5, 7]",1.0,2.0,0.20985889434814453,1.9450080394744873,0.6523891852438939,57.0,572.0,0.0
Y,R,"[5, 8]",1.0,3.0,0.2648138999938965,1.9657249450683594,0.6014402592919348,57.0,573.0,0.0
G,D,"[6, 8]",1.0,4.0,0.3162851333618164,1.8495779037475586,0.4344237897855934,57.0,574.0,0.0
Y,R,"[6, 9]",1.0,5.0,0.3459489345550537,2.076870918273926,0.6275535093431008,57.0,575.0,0.0
Y,R,"[6, 10]",1.0,6.0,0.3441309928894043,1.9401698112487793,0.5011921735712537,57.0,576.0,0.0
R,U,"[5, 10]",1.0,7.0,0.28411078453063965,1.824544906616211,0.4423756865715439,57.0,577.0,0.0
R,U,"[4, 10]",1.0,8.0,0.30054187774658203,1.8267829418182373,0.43567402298558955,57.0,578.0,0.0
B,L,"[4, 9]",1.0,9.0,0.2780008316040039,1.8293521404266357,0.44827594637728957,57.0,579.0,0.0
R,U,"[3, 9]",1.0,10.0,0.31162095069885254,1.976341962814331,0.5577438430410608,57.0,580.0,0.0
,,"(6, 6)",,,,,,,,
R,U,"[5, 6]",1.0,1.0,0.5953629016876221,3.273005962371826,0.6972441883748948,58.0,581.0,0.0
Y,R,"[5, 7]",1.0,2.0,0.27267885208129883,2.0954442024230957,0.7258846743800778,58.0,582.0,0.0
Y,R,"[5, 8]",1.0,3.0,0.24433588981628418,1.8771328926086426,0.536426940936749,58.0,583.0,0.0
G,D,"[6, 8]",1.0,4.0,0.30780506134033203,1.7971999645233154,0.38365739572994767,58.0,584.0,0.0
Y,R,"[6, 9]",1.0,5.0,0.3708629608154297,1.956885814666748,0.49025050475027565,58.0,585.0,0.0
Y,R,"[6, 10]",1.0,6.0,0.29077792167663574,1.680008888244629,0.28711898157415444,58.0,586.0,0.0
R,U,"[5, 10]",1.0,7.0,0.48519301414489746,2.18514084815979,0.6052043767871949,58.0,587.0,0.0
R,U,"[4, 10]",1.0,8.0,0.25612783432006836,1.8399040699005127,0.47846247308039996,58.0,588.0,0.0
B,L,"[4, 9]",1.0,9.0,0.2637040615081787,1.8085401058197021,0.4536918145412636,58.0,589.0,0.0
R,U,"[3, 9]",1.0,10.0,0.523108959197998,2.2180240154266357,0.5882496736276004,58.0,590.0,0.0
,,"(6, 6)",,,,,,,,
R,U,"[5, 6]",1.0,1.0,0.5369009971618652,3.093045949935913,0.7310202327076163,59.0,591.0,0.0
Y,R,"[5, 7]",1.0,2.0,0.23334288597106934,1.666090965270996,0.33067925207724846,59.0,592.0,0.0
Y,R,"[5, 8]",1.0,3.0,0.31653904914855957,2.1136090755462646,0.6936985819934468,59.0,593.0,0.0
G,D,"[6, 8]",1.0,4.0,0.22352194786071777,1.9711880683898926,0.6483969565129271,59.0,594.0,0.0
Y,R,"[6, 9]",1.0,5.0,0.2461550235748291,1.7707951068878174,0.41924817448362667,59.0,595.0,0.0
Y,R,"[6, 10]",1.0,6.0,0.3168480396270752,1.7159640789031982,0.3020120665269727,59.0,596.0,0.0
R,U,"[5, 10]",1.0,7.0,0.35692405700683594,1.801095962524414,0.33621011464888506,59.0,597.0,0.0
R,U,"[4, 10]",1.0,8.0,0.29213500022888184,1.6778960227966309,0.28087614668276495,59.0,598.0,0.0
B,L,"[4, 9]",1.0,9.0,0.40749597549438477,2.1266520023345947,0.6071373097684929,59.0,599.0,0.0
R,U,"[3, 9]",1.0,10.0,0.24971294403076172,1.7924771308898926,0.4495533305444432,59.0,600.0,0.0
,,"(6, 6)",,,,,,,,
R,U,"[5, 6]",1.0,1.0,0.42399096488952637,3.020566940307617,0.40343460277427534,60.0,601.0,0.0
Y,R,"[5, 7]",1.0,2.0,0.30167102813720703,1.7548270225524902,0.3583019750697596,60.0,602.0,0.0
Y,R,"[5, 8]",1.0,3.0,0.27789783477783203,1.907331943511963,0.532060436739251,60.0,603.0,0.0
G,D,"[6, 8]",1.0,4.0,0.24135088920593262,1.9144132137298584,0.5630299596828977,60.0,604.0,0.0
Y,R,"[6, 9]",1.0,5.0,0.27150917053222656,1.6485331058502197,0.26157911553228275,60.0,605.0,0.0
Y,R,"[6, 10]",1.0,6.0,0.3031928539276123,1.7836189270019531,0.395043826829356,60.0,606.0,0.0
R,U,"[5, 10]",1.0,7.0,0.28383302688598633,1.9923720359802246,0.620465310072782,60.0,607.0,0.0
R,U,"[4, 10]",1.0,8.0,0.15861201286315918,1.9017179012298584,0.6387601628768909,60.0,608.0,0.0
B,L,"[4, 9]",1.0,9.0,0.23588800430297852,2.015768051147461,0.6877088883145016,60.0,609.0,0.0
R,U,"[3, 9]",1.0,10.0,0.23740720748901367,1.9354791641235352,0.6066471589081012,60.0,610.0,0.0
,,"(6, 6)",,,,,,,,
R,U,"[5, 6]",1.0,1.0,0.5162580013275146,3.2307779788970947,0.7203956026602412,61.0,611.0,0.0
Y,R,"[5, 7]",1.0,2.0,0.2020890712738037,1.574164867401123,0.27839305973062173,61.0,612.0,0.0
Y,R,"[5, 8]",1.0,3.0,0.3787550926208496,2.063978910446167,0.5918905587510002,61.0,613.0,0.0
G,D,"[6, 8]",1.0,4.0,0.18026113510131836,1.648343801498413,0.3736170680655019,61.0,614.0,0.0
Y,R,"[6, 9]",1.0,5.0,0.3289070129394531,1.875519037246704,0.4490669020318179,61.0,615.0,0.0
Y,R,"[6, 10]",1.0,6.0,0.2687041759490967,1.9976449012756348,0.6297200916447321,61.0,616.0,0.0
R,U,"[5, 10]",1.0,7.0,0.2314770221710205,1.798051118850708,0.4612491881243381,61.0,617.0,0.0
R,U,"[4, 10]",1.0,8.0,0.3471519947052002,1.7031309604644775,0.26452654292889094,61.0,618.0,0.0
B,L,"[4, 9]",1.0,9.0,0.45143580436706543,1.8980848789215088,0.3457791631870021,61.0,619.0,0.0
R,U,"[3, 9]",1.0,10.0,0.32924699783325195,1.7285349369049072,0.3076884299461318,61.0,620.0,0.0
,,"(6, 6)",,,,,,,,
R,U,"[5, 6]",1.0,1.0,0.5459368228912354,3.1172640323638916,0.3912406210631077,62.0,621.0,0.0
Y,R,"[5, 7]",1.0,2.0,0.43003296852111816,2.2420780658721924,0.7163820593693662,62.0,622.0,0.0
Y,R,"[5, 8]",1.0,3.0,0.26098108291625977,1.8046181201934814,0.43788391469208815,62.0,623.0,0.0
G,D,"[6, 8]",1.0,4.0,0.3215830326080322,2.1769580841064453,0.7480788533242557,62.0,624.0,0.0
Y,R,"[6, 9]",1.0,5.0,0.257749080657959,1.8471848964691162,0.4783913655973835,62.0,625.0,0.0
Y,R,"[6, 10]",1.0,6.0,0.3263108730316162,2.0777840614318848,0.6559579139206189,62.0,626.0,0.0
R,U,"[5, 10]",1.0,7.0,0.27186107635498047,2.0541558265686035,0.6766294295866153,62.0,627.0,0.0
R,U,"[4, 10]",1.0,8.0,0.21892499923706055,1.7027108669281006,0.39633893175576196,62.0,628.0,0.0
B,L,"[4, 9]",1.0,9.0,0.38524699211120605,2.218190908432007,0.7306819158948465,62.0,629.0,0.0
R,U,"[3, 9]",1.0,10.0,0.22072291374206543,1.7412519454956055,0.42225757414662246,62.0,630.0,0.0
,,"(6, 6)",,,,,,,,
R,U,"[5, 6]",1.0,1.0,0.568803071975708,2.6495440006256104,0.3383477746945422,63.0,631.0,0.0
Y,R,"[5, 7]",1.0,2.0,0.42919087409973145,1.9682581424713135,0.43976055361989963,63.0,632.0,0.0
Y,R,"[5, 8]",1.0,3.0,0.3503429889678955,1.893975019454956,0.4503349530122679,63.0,633.0,0.0
G,D,"[6, 8]",1.0,4.0,0.3153111934661865,1.7625508308410645,0.3462903771823817,63.0,634.0,0.0
Y,R,"[6, 9]",1.0,5.0,0.3566408157348633,1.736577033996582,0.2828233844553454,63.0,635.0,0.0
Y,R,"[6, 10]",1.0,6.0,0.4052770137786865,1.8035321235656738,0.2862525369660732,63.0,636.0,0.0
R,U,"[5, 10]",1.0,7.0,0.34754085540771484,2.0729169845581055,0.6254999149710607,63.0,637.0,0.0
R,U,"[4, 10]",1.0,8.0,0.24259400367736816,1.7029809951782227,0.3620077415520334,63.0,638.0,0.0
B,L,"[4, 9]",1.0,9.0,0.27849793434143066,1.8507771492004395,0.47931313628148187,63.0,639.0,0.0
R,U,"[3, 9]",1.0,10.0,0.24196410179138184,2.0399179458618164,0.6856316952199351,63.0,640.0,0.0
,,"(6, 6)",,,,,,,,
Y,R,"[6, 7]",0.0,0.0,0.37933993339538574,2.113374948501587,0.36576410121136865,64.0,641.0,0.0
Y,R,"[6, 8]",1.0,1.0,0.28377199172973633,1.6599180698394775,0.27561435639035164,64.0,642.0,0.0
Y,R,"[6, 9]",1.0,2.0,0.3058130741119385,1.9115569591522217,0.5035827889818747,64.0,643.0,0.0
G,D,"[7, 9]",0.0,2.0,0.22577691078186035,1.822749137878418,0.49295460567160565,64.0,644.0,0.0
Y,R,"[7, 10]",0.0,2.0,0.21436810493469238,2.016951084136963,0.7097194925129477,64.0,645.0,0.0
Y,R,"[7, 11]",-1.0,2.0,0.0530550479888916,5.774514198303223,0.6006163838072593,64.0,646.0,0.0
R,U,"[6, 11]",0.0,2.0,0.29019999504089355,1.7656259536743164,0.3664627214290997,64.0,647.0,0.0
Y,R,"[7, 11]",-3.0,2.0,0.2616910934448242,1.9069371223449707,0.5399013021138553,64.0,648.0,0.0
Y,R,"[6, 11]",-3.0,2.0,0.3835299015045166,2.133073091506958,0.6560690153711317,64.0,649.0,0.0
Y,R,"[7, 11]",-3.0,2.0,0.24836087226867676,2.045203924179077,0.7010887690002668,64.0,650.0,0.0
,,"(6, 6)",,,,,,,,
R,U,"[5, 6]",1.0,1.0,0.482025146484375,3.7209370136260986,0.5720165606878638,65.0,651.0,0.0
Y,R,"[5, 7]",1.0,2.0,0.30368709564208984,1.7824690341949463,0.3880095948269416,65.0,652.0,0.0
Y,R,"[5, 8]",1.0,3.0,0.31761908531188965,1.9905271530151367,0.5784923206042035,65.0,653.0,0.0
G,D,"[6, 8]",1.0,4.0,0.3036620616912842,1.7948179244995117,0.3732418517922738,65.0,654.0,0.0
Y,R,"[6, 9]",1.0,5.0,0.29255008697509766,1.8808708190917969,0.4872305599628492,65.0,655.0,0.0
Y,R,"[6, 10]",1.0,6.0,0.2750058174133301,1.7064111232757568,0.32709531711904627,65.0,656.0,0.0
R,U,"[5, 10]",1.0,7.0,0.31324005126953125,1.764775037765503,0.358269023538466,65.0,657.0,0.0
R,U,"[4, 10]",1.0,8.0,0.2695291042327881,1.9592971801757812,0.6006869690587389,65.0,658.0,0.0
R,U,"[3, 10]",0.0,8.0,0.18989992141723633,1.5908570289611816,0.2916654663606372,65.0,659.0,0.0
B,L,"[3, 9]",1.0,9.0,0.3544929027557373,1.9975361824035645,0.5556935800753712,65.0,660.0,0.0
,,"(6, 6)",,,,,,,,
R,U,"[5, 6]",1.0,1.0,0.3506309986114502,4.6184608936309814,0.3406792083159501,66.0,661.0,0.0
Y,R,"[5, 7]",1.0,2.0,0.24379801750183105,1.6180720329284668,0.2754367231178936,66.0,662.0,0.0
Y,R,"[5, 8]",1.0,3.0,0.2580740451812744,1.6592381000518799,0.30125368208035685,66.0,663.0,0.0
G,D,"[6, 8]",1.0,4.0,0.26635098457336426,1.830265998840332,0.4647345207140006,66.0,664.0,0.0
Y,R,"[6, 9]",1.0,5.0,0.24398398399353027,1.875248908996582,0.5230804407770977,66.0,665.0,0.0
Y,R,"[6, 10]",-1.0,5.0,0.049649953842163086,5.791329860687256,0.6142169752418696,66.0,666.0,0.0
Y,R,"[6, 11]",0.0,5.0,0.24419403076171875,1.880676031112671,0.5282055259159932,66.0,667.0,0.0
R,U,"[5, 11]",0.0,5.0,0.17442107200622559,1.8420500755310059,0.570420242878148,66.0,668.0,0.0
Y,R,"[6, 11]",-3.0,5.0,0.24043989181518555,1.742204189300537,0.39577973373765174,66.0,669.0,0.0
Y,R,"[5, 11]",-3.0,5.0,0.34109997749328613,1.7033469676971436,0.2657816676749385,66.0,670.0,0.0
,,"(6, 6)",,,,,,,,
R,U,"[5, 6]",1.0,1.0,0.518622875213623,3.44899582862854,0.6976300963724407,67.0,671.0,0.0
Y,R,"[5, 7]",1.0,2.0,0.2744479179382324,1.8010809421539307,0.41575185925888547,67.0,672.0,0.0
Y,R,"[5, 8]",1.0,3.0,0.26848697662353516,1.6856939792633057,0.3179616810049724,67.0,673.0,0.0
G,D,"[6, 8]",1.0,4.0,0.3339829444885254,2.06518816947937,0.6326808959036354,67.0,674.0,0.0
B,L,"[6, 7]",0.0,4.0,0.2336890697479248,1.895216941833496,0.5613391803008484,67.0,675.0,0.0
R,U,"[5, 7]",0.0,4.0,0.29613399505615234,2.0037460327148438,0.6148833784158743,67.0,676.0,0.0
G,D,"[6, 7]",0.0,4.0,0.24445891380310059,1.7744431495666504,0.42283932809996483,67.0,677.0,0.0
Y,R,"[6, 8]",0.0,4.0,0.2657439708709717,1.924098014831543,0.5633228730322538,67.0,678.0,0.0
Y,R,"[6, 9]",1.0,5.0,0.36118483543395996,2.122174024581909,0.6519257225733012,67.0,679.0,0.0
G,D,"[7, 9]",0.0,5.0,0.5365438461303711,2.0492300987243652,0.4179963625216795,67.0,680.0,0.0
,,"(6, 6)",,,,,,,,
R,U,"[5, 6]",1.0,1.0,0.4027519226074219,2.913227081298828,0.2978831845258787,68.0,681.0,0.0
Y,R,"[5, 7]",1.0,2.0,0.3417789936065674,1.8755700588226318,0.42347928869411067,68.0,682.0,0.0
Y,R,"[5, 8]",1.0,3.0,0.2735469341278076,1.841667890548706,0.48149105226651123,68.0,683.0,0.0
G,D,"[6, 8]",1.0,4.0,0.21507787704467773,1.9168100357055664,0.5979989437715711,68.0,684.0,0.0
Y,R,"[6, 9]",1.0,5.0,0.2595789432525635,1.7194499969482422,0.35103668754154277,68.0,685.0,0.0
Y,R,"[6, 10]",1.0,6.0,0.3066258430480957,1.8124961853027344,0.41339723073909057,68.0,686.0,0.0
R,U,"[5, 10]",1.0,7.0,0.29691386222839355,2.01316499710083,0.6096475182010909,68.0,687.0,0.0
R,U,"[4, 10]",1.0,8.0,0.26293301582336426,1.6806540489196777,0.32390792138901975,68.0,688.0,0.0
B,L,"[4, 9]",1.0,9.0,0.36258411407470703,1.7996139526367188,0.3400494993099967,68.0,689.0,0.0
Y,R,"[4, 10]",0.0,9.0,0.2805941104888916,2.056708812713623,0.6796838341269396,68.0,690.0,0.0
,,"(6, 6)",,,,,,,,
R,U,"[5, 6]",1.0,1.0,0.4903860092163086,2.839777946472168,0.3362945463103699,69.0,691.0,0.0
Y,R,"[5, 7]",1.0,2.0,0.3054311275482178,1.7698278427124023,0.37271742493279325,69.0,692.0,0.0
Y,R,"[5, 8]",1.0,3.0,0.3188199996948242,1.9288098812103271,0.5181006732252217,69.0,693.0,0.0
G,D,"[6, 8]",1.0,4.0,0.2933340072631836,2.116162061691284,0.7173078056631846,69.0,694.0,0.0
Y,R,"[6, 9]",1.0,5.0,0.21960687637329102,2.031014919281006,0.714905716323853,69.0,695.0,0.0
Y,R,"[6, 10]",1.0,6.0,0.10045886039733887,1.840505838394165,0.6387419500542758,69.0,696.0,0.0
R,U,"[5, 10]",1.0,7.0,0.24001097679138184,1.6257500648498535,0.28138112102825885,69.0,697.0,0.0
R,U,"[4, 10]",1.0,8.0,0.34275388717651367,1.8103740215301514,0.3583549704917569,69.0,698.0,0.0
B,L,"[4, 9]",1.0,9.0,0.3295860290527344,1.7163469791412354,0.29128196185248884,69.0,699.0,0.0
R,U,"[3, 9]",1.0,10.0,0.325908899307251,2.0340988636016846,0.6083833724659864,69.0,700.0,0.0
,,"(6, 6)",,,,,,,,
R,U,"[5, 6]",1.0,1.0,0.5230450630187988,3.391572952270508,0.6663537962640791,70.0,701.0,0.0
Y,R,"[5, 7]",1.0,2.0,0.2417130470275879,1.6280090808868408,0.27807166760109614,70.0,702.0,0.0
Y,R,"[5, 8]",1.0,3.0,0.4458591938018799,1.911186933517456,0.3725085618538154,70.0,703.0,0.0
G,D,"[6, 8]",1.0,4.0,0.29308080673217773,1.859889030456543,0.4655008040731264,70.0,704.0,0.0
Y,R,"[6, 9]",1.0,5.0,0.4033651351928711,2.109584093093872,0.6084277856175178,70.0,705.0,0.0
Y,R,"[6, 10]",1.0,6.0,0.27240920066833496,2.044559955596924,0.6695427243024596,70.0,706.0,0.0
R,U,"[5, 10]",1.0,7.0,0.31436991691589355,2.014141798019409,0.6000654345929606,70.0,707.0,0.0
R,U,"[4, 10]",1.0,8.0,0.3196449279785156,1.7189538478851318,0.3025142513326638,70.0,708.0,0.0
B,L,"[4, 9]",1.0,9.0,0.5038859844207764,1.968095064163208,0.37048779103184454,70.0,709.0,0.0
R,U,"[3, 9]",1.0,10.0,0.34925198554992676,2.098422050476074,0.6518313119238126,70.0,710.0,0.0
,,"(6, 6)",,,,,,,,
R,U,"[5, 6]",1.0,1.0,0.48245811462402344,2.8861520290374756,0.4714228705876297,71.0,711.0,0.0
Y,R,"[5, 7]",1.0,2.0,0.2988719940185547,2.1225898265838623,0.7272686083894454,71.0,712.0,0.0
Y,R,"[5, 8]",1.0,3.0,0.25015997886657715,1.8183491230010986,0.47897409870271046,71.0,713.0,0.0
G,D,"[6, 8]",1.0,4.0,0.29028797149658203,2.0922811031341553,0.7041857920437046,71.0,714.0,0.0
Y,R,"[6, 9]",1.0,5.0,0.24112582206726074,1.9243109226226807,0.5785658306147546,71.0,715.0,0.0
Y,R,"[6, 10]",1.0,6.0,0.2321460247039795,1.9368748664855957,0.6154025695062644,71.0,716.0,0.0
R,U,"[5, 10]",1.0,7.0,0.27567100524902344,2.092155933380127,0.707228243013972,71.0,717.0,0.0
R,U,"[4, 10]",1.0,8.0,0.2557790279388428,1.6313018798828125,0.27235436688010306,71.0,718.0,0.0
B,L,"[4, 9]",1.0,9.0,0.5130000114440918,2.009674072265625,0.3984289262198346,71.0,719.0,0.0
R,U,"[3, 9]",1.0,10.0,0.3532381057739258,1.877506971359253,0.4258414116188109,71.0,720.0,0.0
,,"(6, 6)",,,,,,,,
R,U,"[5, 6]",1.0,1.0,0.4815330505371094,2.802459955215454,0.5115467181186197,72.0,721.0,0.0
Y,R,"[5, 7]",1.0,2.0,0.3235290050506592,1.6986110210418701,0.27683742235680986,72.0,722.0,0.0
Y,R,"[5, 8]",1.0,3.0,0.3114969730377197,2.154937982559204,0.747918025253993,72.0,723.0,0.0
G,D,"[6, 8]",1.0,4.0,0.2678079605102539,1.7183079719543457,0.3498906066420508,72.0,724.0,0.0
Y,R,"[6, 9]",1.0,5.0,0.2841920852661133,1.767652988433838,0.38408854524099695,72.0,725.0,0.0
Y,R,"[6, 10]",1.0,6.0,0.2833890914916992,2.087843894958496,0.7048752476460507,72.0,726.0,0.0
R,U,"[5, 10]",1.0,7.0,0.22524785995483398,2.0533008575439453,0.7247458679217447,72.0,727.0,0.0
R,U,"[4, 10]",1.0,8.0,0.2080399990081787,1.786309003829956,0.47802412807804784,72.0,728.0,0.0
B,L,"[4, 9]",1.0,9.0,0.21666908264160156,1.9308161735534668,0.6251759080084702,72.0,729.0,0.0
R,U,"[3, 9]",1.0,10.0,0.2204759120941162,1.9611239433288574,0.6363494102287721,72.0,730.0,0.0
,,"(6, 6)",,,,,,,,
R,U,"[5, 6]",1.0,1.0,0.4416470527648926,3.096061944961548,0.2659071184473281,73.0,731.0,0.0
Y,R,"[5, 7]",1.0,2.0,0.37264394760131836,1.8985381126403809,0.4309821255339988,73.0,732.0,0.0
Y,R,"[5, 8]",1.0,3.0,0.3386528491973877,1.8767449855804443,0.440824399043166,73.0,733.0,0.0
G,D,"[6, 8]",1.0,4.0,0.3370020389556885,1.7014939785003662,0.27573116456445446,73.0,734.0,0.0
Y,R,"[6, 9]",1.0,5.0,0.4749319553375244,2.165130138397217,0.5905174170193429,73.0,735.0,0.0
Y,R,"[6, 10]",1.0,6.0,0.26009488105773926,1.8164842128753662,0.45713567709999253,73.0,736.0,0.0
R,U,"[5, 10]",1.0,7.0,0.27342796325683594,1.9266059398651123,0.5501145611737965,73.0,737.0,0.0
R,U,"[4, 10]",1.0,8.0,0.2270219326019287,1.8526160717010498,0.5193966973859063,73.0,738.0,0.0
B,L,"[4, 9]",1.0,9.0,0.272136926651001,2.034524917602539,0.6704344911931821,73.0,739.0,0.0
R,U,"[3, 9]",-1.0,9.0,0.020612001419067383,5.415546894073486,0.26934739854919126,73.0,740.0,0.0
,,"(6, 6)",,,,,,,,
R,U,"[5, 6]",1.0,1.0,0.5747950077056885,3.3035590648651123,0.3895501910197587,74.0,741.0,0.0
G,D,"[6, 6]",0.0,1.0,0.5531878471374512,2.3834009170532227,0.7396233194585191,74.0,742.0,0.0
G,D,"[7, 6]",0.0,1.0,0.2124629020690918,1.6898798942565918,0.37918737148319454,74.0,743.0,0.0
G,D,"[8, 6]",0.0,1.0,0.2444159984588623,1.9623298645019531,0.6079124112090245,74.0,744.0,0.0
R,U,"[7, 6]",0.0,1.0,0.1795501708984375,1.6986818313598633,0.42345046814242465,74.0,745.0,0.0
G,D,"[8, 6]",0.0,1.0,0.20438194274902344,1.6120519638061523,0.30224870267067505,74.0,746.0,0.0
R,U,"[7, 6]",0.0,1.0,0.2202930450439453,1.863095998764038,0.5482474790698029,74.0,747.0,0.0
G,D,"[8, 6]",0.0,1.0,0.19643211364746094,1.5833981037139893,0.28196424385835367,74.0,748.0,0.0
R,U,"[7, 6]",0.0,1.0,0.2577970027923584,1.639266014099121,0.27103438703709753,74.0,749.0,0.0
R,U,"[6, 6]",0.0,1.0,0.2720949649810791,1.8709261417388916,0.49183844273270777,74.0,750.0,0.0
,,"(6, 6)",,,,,,,,
R,U,"[5, 6]",1.0,1.0,0.47524094581604004,3.193209171295166,0.6178610019324958,75.0,751.0,0.0
Y,R,"[5, 7]",1.0,2.0,0.2827720642089844,2.124974012374878,0.7427955055553228,75.0,752.0,0.0
Y,R,"[5, 8]",1.0,3.0,0.29686689376831055,1.7112607955932617,0.3212208285641798,75.0,753.0,0.0
G,D,"[6, 8]",1.0,4.0,0.358903169631958,1.8148009777069092,0.35262840089789316,75.0,754.0,0.0
Y,R,"[6, 9]",1.0,5.0,0.365556001663208,1.9040720462799072,0.43980660257042387,75.0,755.0,0.0
Y,R,"[6, 10]",1.0,6.0,0.34182286262512207,1.9099550247192383,0.46621540479287404,75.0,756.0,0.0
R,U,"[5, 10]",1.0,7.0,0.3558340072631836,1.8923389911651611,0.441820572156657,75.0,757.0,0.0
R,U,"[4, 10]",1.0,8.0,0.32540297508239746,1.7543010711669922,0.3295250690134798,75.0,758.0,0.0
B,L,"[4, 9]",1.0,9.0,0.3200850486755371,1.9835071563720703,0.5627929867854179,75.0,759.0,0.0
R,U,"[3, 9]",1.0,10.0,0.23033499717712402,1.923478126525879,0.5860593849877572,75.0,760.0,0.0
,,"(6, 6)",,,,,,,,
R,U,"[5, 6]",1.0,1.0,0.4585120677947998,2.3140180110931396,0.41695752264930597,76.0,761.0,0.0
Y,R,"[5, 7]",1.0,2.0,0.3269069194793701,2.109992027282715,0.6766099129484147,76.0,762.0,0.0
Y,R,"[5, 8]",1.0,3.0,0.2489011287689209,2.047584056854248,0.7073352306547565,76.0,763.0,0.0
G,D,"[6, 8]",1.0,4.0,0.20034313201904297,1.9179420471191406,0.6252505219755793,76.0,764.0,0.0
Y,R,"[6, 9]",1.0,5.0,0.2131640911102295,1.7717080116271973,0.46399011512660515,76.0,765.0,0.0
Y,R,"[6, 10]",1.0,6.0,0.3388030529022217,1.9117591381072998,0.4753721954393772,76.0,766.0,0.0
R,U,"[5, 10]",1.0,7.0,0.2568178176879883,1.8157999515533447,0.45784239550396477,76.0,767.0,0.0
R,U,"[4, 10]",1.0,8.0,0.2782919406890869,1.8376648426055908,0.4622263688173002,76.0,768.0,0.0
B,L,"[4, 9]",1.0,9.0,0.3200709819793701,2.006925106048584,0.6022627680379613,76.0,769.0,0.0
G,D,"[5, 9]",0.0,9.0,0.18203091621398926,1.8707048892974854,0.5894517908564214,76.0,770.0,0.0
,,"(6, 6)",,,,,,,,
R,U,"[5, 6]",1.0,1.0,0.6095559597015381,3.2074220180511475,0.7133943937380642,77.0,771.0,0.0
Y,R,"[5, 7]",1.0,2.0,0.20959687232971191,1.6070971488952637,0.2875550400328704,77.0,772.0,0.0
Y,R,"[5, 8]",1.0,3.0,0.5123062133789062,1.984795093536377,0.37216040086610397,77.0,773.0,0.0
G,D,"[6, 8]",1.0,4.0,0.2854170799255371,1.7624731063842773,0.38444112334219155,77.0,774.0,0.0
Y,R,"[6, 9]",1.0,5.0,0.43746495246887207,2.2419960498809814,0.7094671859740869,77.0,775.0,0.0
Y,R,"[6, 10]",-1.0,5.0,0.08649277687072754,5.902792930603027,0.6957524180890555,77.0,776.0,0.0
Y,R,"[6, 11]",0.0,5.0,0.250046968460083,1.8145170211791992,0.4767237953815809,77.0,777.0,0.0
G,D,"[7, 11]",0.0,5.0,0.23035883903503418,1.872060775756836,0.5486308479495619,77.0,778.0,0.0
B,L,"[7, 10]",0.0,5.0,0.2140049934387207,1.8471848964691162,0.5290216774417156,77.0,779.0,0.0
R,U,"[6, 10]",0.0,5.0,0.25990891456604004,1.7894179821014404,0.41845586224290027,77.0,780.0,0.0
,,"(6, 6)",,,,,,,,
R,U,"[5, 6]",1.0,1.0,0.4311528205871582,3.214785099029541,0.6829570239840197,78.0,781.0,0.0
Y,R,"[5, 7]",1.0,2.0,0.23794913291931152,1.976304054260254,0.6425621509079115,78.0,782.0,0.0
Y,R,"[5, 8]",1.0,3.0,0.23927903175354004,1.7530920505523682,0.4125009649198618,78.0,783.0,0.0
G,D,"[6, 8]",1.0,4.0,0.34022998809814453,1.8332839012145996,0.39558374913020916,78.0,784.0,0.0
Y,R,"[6, 9]",1.0,5.0,0.4118618965148926,1.9836390018463135,0.4791724474171177,78.0,785.0,0.0
Y,R,"[6, 10]",1.0,6.0,0.3119378089904785,2.0178470611572266,0.5966462339892202,78.0,786.0,0.0
B,L,"[6, 9]",0.0,6.0,0.21921205520629883,1.8835639953613281,0.5637140056963873,78.0,787.0,0.0
G,D,"[7, 9]",0.0,6.0,0.25890588760375977,1.8663959503173828,0.4966799221999475,78.0,788.0,0.0
Y,R,"[7, 10]",0.0,6.0,0.2689981460571289,1.8594419956207275,0.48946833923972805,78.0,789.0,0.0
Y,R,"[7, 11]",0.0,6.0,0.35607290267944336,1.916985034942627,0.4563067428223991,78.0,790.0,0.0
,,"(6, 6)",,,,,,,,
R,U,"[5, 6]",1.0,1.0,0.3172721862792969,2.9186899662017822,0.29186636064891897,79.0,791.0,0.0
Y,R,"[5, 7]",1.0,2.0,0.4196040630340576,2.0903971195220947,0.581853348838791,79.0,792.0,0.0
Y,R,"[5, 8]",1.0,3.0,0.2866330146789551,2.0314199924468994,0.6463596995791834,79.0,793.0,0.0
G,D,"[6, 8]",1.0,4.0,0.30452895164489746,1.9186100959777832,0.49840236958689543,79.0,794.0,0.0
Y,R,"[6, 9]",1.0,5.0,0.3454718589782715,1.7139370441436768,0.2626555798586985,79.0,795.0,0.0
Y,R,"[6, 10]",1.0,6.0,0.4838089942932129,2.2109057903289795,0.6396706360196793,79.0,796.0,0.0
R,U,"[5, 10]",1.0,7.0,0.2809021472930908,1.9856572151184082,0.6085469526417533,79.0,797.0,0.0
R,U,"[4, 10]",1.0,8.0,0.2354891300201416,1.8747880458831787,0.5500705560698582,79.0,798.0,0.0
B,L,"[4, 9]",1.0,9.0,0.30303406715393066,2.1232380867004395,0.7231436231878472,79.0,799.0,0.0
R,U,"[3, 9]",1.0,10.0,0.25577306747436523,1.602694034576416,0.25944816521796216,79.0,800.0,0.0
,,"(6, 6)",,,,,,,,
R,U,"[5, 6]",1.0,1.0,0.2546560764312744,2.8998801708221436,0.2759080419607359,80.0,801.0,0.0
Y,R,"[5, 7]",1.0,2.0,0.49536895751953125,2.2783169746398926,0.6871261197811318,80.0,802.0,0.0
Y,R,"[5, 8]",1.0,3.0,0.27782678604125977,1.8920199871063232,0.5124918415173165,80.0,803.0,0.0
G,D,"[6, 8]",1.0,4.0,0.2929830551147461,2.089672088623047,0.6853760141920444,80.0,804.0,0.0
Y,R,"[6, 9]",1.0,5.0,0.26757097244262695,1.8966410160064697,0.5321042922608159,80.0,805.0,0.0
Y,R,"[6, 10]",1.0,6.0,0.2835228443145752,1.8281538486480713,0.44346114611619236,80.0,806.0,0.0
R,U,"[5, 10]",1.0,7.0,0.31491899490356445,1.93013596534729,0.5234132277709362,80.0,807.0,0.0
R,U,"[4, 10]",1.0,8.0,0.27954816818237305,1.850053071975708,0.4734354571076169,80.0,808.0,0.0
B,L,"[4, 9]",1.0,9.0,0.34262895584106445,1.9658451080322266,0.5225588807078134,80.0,809.0,0.0
R,U,"[3, 9]",1.0,10.0,0.2888350486755371,2.0441040992736816,0.6502286047822696,80.0,810.0,0.0
,,"(6, 6)",,,,,,,,
R,U,"[5, 6]",1.0,1.0,0.446566104888916,2.8136961460113525,0.4803883786211654,81.0,811.0,0.0
Y,R,"[5, 7]",1.0,2.0,0.2959740161895752,1.6824939250946045,0.2794984031868961,81.0,812.0,0.0
Y,R,"[5, 8]",1.0,3.0,0.4087259769439697,2.162661075592041,0.641813301941792,81.0,813.0,0.0
G,D,"[6, 8]",1.0,4.0,0.21874499320983887,1.900141954421997,0.5919548744931822,81.0,814.0,0.0
Y,R,"[6, 9]",1.0,5.0,0.24364900588989258,1.6711208820343018,0.3297653771927074,81.0,815.0,0.0
Y,R,"[6, 10]",1.0,6.0,0.30620718002319336,1.9162888526916504,0.4959651755233869,81.0,816.0,0.0
R,U,"[5, 10]",1.0,7.0,0.2465200424194336,2.0172998905181885,0.6629093946167754,81.0,817.0,0.0
R,U,"[4, 10]",1.0,8.0,0.22191500663757324,1.8750250339508057,0.5548783225671561,81.0,818.0,0.0
B,L,"[4, 9]",1.0,9.0,0.25445103645324707,1.785520076751709,0.4402885818702745,81.0,819.0,0.0
R,U,"[3, 9]",1.0,10.0,0.24375104904174805,2.0682790279388428,0.724866904326222,81.0,820.0,0.0
,,"(6, 6)",,,,,,,,
R,U,"[5, 6]",1.0,1.0,0.5423009395599365,2.8767168521881104,0.3019307055642031,82.0,821.0,0.0
Y,R,"[5, 7]",1.0,2.0,0.2837841510772705,1.7902710437774658,0.4086413111488229,82.0,822.0,0.0
Y,R,"[5, 8]",1.0,3.0,0.2473130226135254,1.7611100673675537,0.4197151827659187,82.0,823.0,0.0
G,D,"[6, 8]",1.0,4.0,0.3125121593475342,1.8554179668426514,0.4416334666906885,82.0,824.0,0.0
Y,R,"[6, 9]",1.0,5.0,0.22866392135620117,1.594270944595337,0.269382263933927,82.0,825.0,0.0
Y,R,"[6, 10]",1.0,6.0,0.337723970413208,1.8074760437011719,0.3768068178831532,82.0,826.0,0.0
R,U,"[5, 10]",1.0,7.0,0.32054710388183594,2.069283962249756,0.6456111547541097,82.0,827.0,0.0
R,U,"[4, 10]",1.0,8.0,0.2082819938659668,1.9962878227233887,0.6752196528924526,82.0,828.0,0.0
B,L,"[4, 9]",1.0,9.0,0.23203015327453613,1.58473801612854,0.260295376648173,82.0,829.0,0.0
R,U,"[3, 9]",1.0,10.0,0.31262993812561035,2.148263931274414,0.7412568594710895,82.0,830.0,0.0
,,"(6, 6)",,,,,,,,
R,U,"[5, 6]",1.0,1.0,0.37813305854797363,2.7498250007629395,0.6412836993303713,83.0,831.0,0.0
Y,R,"[5, 7]",1.0,2.0,0.2204279899597168,1.8275630474090576,0.5187107285074644,83.0,832.0,0.0
Y,R,"[5, 8]",1.0,3.0,0.29415297508239746,2.0724599361419678,0.6744327083379201,83.0,833.0,0.0
G,D,"[6, 8]",1.0,4.0,0.36553406715393066,1.7855041027069092,0.326820086786587,83.0,834.0,0.0
Y,R,"[6, 9]",1.0,5.0,0.3340270519256592,1.998495101928711,0.5749577857490811,83.0,835.0,0.0
Y,R,"[6, 10]",1.0,6.0,0.18694686889648438,1.7514557838439941,0.47650185818518515,83.0,836.0,0.0
R,U,"[5, 10]",1.0,7.0,0.22901606559753418,1.8775060176849365,0.5538938693443597,83.0,837.0,0.0
R,U,"[4, 10]",1.0,8.0,0.2043771743774414,1.9554991722106934,0.6595409942588181,83.0,838.0,0.0
B,L,"[4, 9]",1.0,9.0,0.21257901191711426,1.8264400959014893,0.5192530003858892,83.0,839.0,0.0
R,U,"[3, 9]",1.0,10.0,0.26516199111938477,1.8083970546722412,0.4440306952199742,83.0,840.0,0.0
,,"(6, 6)",,,,,,,,
R,U,"[5, 6]",1.0,1.0,0.3404519557952881,2.020940065383911,0.2651180490798282,84.0,841.0,0.0
Y,R,"[5, 7]",1.0,2.0,0.40578413009643555,2.184837818145752,0.6661369517355595,84.0,842.0,0.0
Y,R,"[5, 8]",1.0,3.0,0.22440814971923828,1.892225980758667,0.5584049990926379,84.0,843.0,0.0
G,D,"[6, 8]",1.0,4.0,0.2532529830932617,1.9562938213348389,0.6145067755124676,84.0,844.0,0.0
Y,R,"[6, 9]",1.0,5.0,0.22142386436462402,1.6109600067138672,0.2757076340717633,84.0,845.0,0.0
Y,R,"[6, 10]",1.0,6.0,0.35533714294433594,2.050359010696411,0.5757157674701983,84.0,846.0,0.0
R,U,"[5, 10]",1.0,7.0,0.2556650638580322,2.0249059200286865,0.6838273173325802,84.0,847.0,0.0
R,U,"[4, 10]",1.0,8.0,0.23394083976745605,1.914090871810913,0.5812743954953774,84.0,848.0,0.0
B,L,"[4, 9]",1.0,9.0,0.30822205543518066,1.8586909770965576,0.43995881613060417,84.0,849.0,0.0
R,U,"[3, 9]",1.0,10.0,0.330535888671875,1.7438249588012695,0.3172305442368929,84.0,850.0,0.0
,,"(6, 6)",,,,,,,,
R,U,"[5, 6]",1.0,1.0,0.3711690902709961,3.6041479110717773,0.720974992798813,85.0,851.0,0.0
Y,R,"[5, 7]",1.0,2.0,0.2097458839416504,1.5688018798828125,0.25684676301622916,85.0,852.0,0.0
Y,R,"[5, 8]",1.0,3.0,0.4194648265838623,1.9393389225006104,0.4292506990759381,85.0,853.0,0.0
G,D,"[6, 8]",1.0,4.0,0.2494521141052246,1.9463870525360107,0.5923979038783813,85.0,854.0,0.0
Y,R,"[6, 9]",1.0,5.0,0.24712109565734863,1.7184929847717285,0.3772990673363355,85.0,855.0,0.0
Y,R,"[6, 10]",1.0,6.0,0.2973289489746094,1.9973220825195312,0.6077157140428195,85.0,856.0,0.0
R,U,"[5, 10]",1.0,7.0,0.19844388961791992,1.941127061843872,0.6486492829299154,85.0,857.0,0.0
R,U,"[4, 10]",1.0,8.0,0.24527812004089355,1.7148919105529785,0.36375671581301044,85.0,858.0,0.0
B,L,"[4, 9]",1.0,9.0,0.3116271495819092,1.7530219554901123,0.33335368329760284,85.0,859.0,0.0
R,U,"[3, 9]",1.0,10.0,0.3226001262664795,1.8918020725250244,0.4584695245633106,85.0,860.0,0.0
,,"(6, 6)",,,,,,,,
R,U,"[5, 6]",1.0,1.0,0.406696081161499,3.3983349800109863,0.6730776124436475,86.0,861.0,0.0
Y,R,"[5, 7]",1.0,2.0,0.20963811874389648,1.9800169467926025,0.6696148376999125,86.0,862.0,0.0
Y,R,"[5, 8]",1.0,3.0,0.22775793075561523,1.8051011562347412,0.47497908778104087,86.0,863.0,0.0
G,D,"[6, 8]",1.0,4.0,0.2697920799255371,1.6347970962524414,0.27643557285161113,86.0,864.0,0.0
Y,R,"[6, 9]",1.0,5.0,0.4564540386199951,2.245197057723999,0.6879538212917106,86.0,865.0,0.0
Y,R,"[6, 10]",1.0,6.0,0.21885204315185547,1.728489875793457,0.4167190536045429,86.0,866.0,0.0
R,U,"[5, 10]",1.0,7.0,0.28823399543762207,2.094316005706787,0.7105086465785818,86.0,867.0,0.0
R,U,"[4, 10]",1.0,8.0,0.22068285942077637,2.049144983291626,0.7429533718047223,86.0,868.0,0.0
B,L,"[4, 9]",1.0,9.0,0.21765899658203125,1.7969989776611328,0.49002163969423057,86.0,869.0,0.0
R,U,"[3, 9]",1.0,10.0,0.2437429428100586,1.6853060722351074,0.3421877496031265,86.0,870.0,0.0
,,"(6, 6)",,,,,,,,
Y,R,"[6, 7]",-2.0,0.0,4.417517185211182,13.440539836883545,0.5154517444702044,87.0,871.0,0.0
Y,R,"[6, 8]",1.0,1.0,0.20199990272521973,2.002218008041382,0.7007676102548249,87.0,872.0,0.0
Y,R,"[6, 9]",1.0,2.0,0.16098403930664062,1.987720012664795,0.7216717974784084,87.0,873.0,0.0
Y,R,"[6, 10]",1.0,3.0,0.16591405868530273,1.6461620330810547,0.3846919807685612,87.0,874.0,0.0
Y,R,"[6, 11]",0.0,3.0,0.2545919418334961,2.082383871078491,0.7166289504071981,87.0,875.0,0.0
Y,R,"[6, 10]",-3.0,3.0,0.1863420009613037,1.8192780017852783,0.5363683280567257,87.0,876.0,0.0
Y,R,"[6, 11]",0.0,3.0,0.2388629913330078,1.877526044845581,0.5468563719923402,87.0,877.0,0.0
Y,R,"[6, 10]",-3.0,3.0,0.27625322341918945,2.006756067276001,0.6201046312469967,87.0,878.0,0.0
Y,R,"[6, 11]",0.0,3.0,0.2818310260772705,1.9583468437194824,0.5784000110022747,87.0,879.0,0.0
Y,R,"[6, 10]",-3.0,3.0,0.24425196647644043,2.0870230197906494,0.7486556491260945,87.0,880.0,0.0
,,"(6, 6)",,,,,,,,
Y,R,"[6, 7]",0.0,0.0,0.5807230472564697,3.5986030101776123,0.6637231732844098,88.0,881.0,0.0
Y,R,"[6, 8]",1.0,1.0,0.5281119346618652,2.001199960708618,0.3651681479441534,88.0,882.0,0.0
Y,R,"[6, 9]",1.0,2.0,0.29511189460754395,2.056684970855713,0.6548374871633316,88.0,883.0,0.0
Y,R,"[6, 10]",1.0,3.0,0.20403790473937988,1.6834897994995117,0.38861458891494194,88.0,884.0,0.0
Y,R,"[6, 11]",0.0,3.0,0.22666382789611816,1.8688199520111084,0.5404147599866649,88.0,885.0,0.0
Y,R,"[6, 10]",-3.0,3.0,0.17894315719604492,1.5840141773223877,0.3079229005376178,88.0,886.0,0.0
Y,R,"[6, 11]",0.0,3.0,0.2578868865966797,2.027733087539673,0.6685911959486055,88.0,887.0,0.0
Y,R,"[6, 10]",-1.0,3.0,0.03463101387023926,5.455677032470703,0.291088194575938,88.0,888.0,0.0
Y,R,"[6, 11]",0.0,3.0,0.2736830711364746,1.7358839511871338,0.3603084672640511,88.0,889.0,0.0
Y,R,"[6, 10]",-3.0,3.0,0.25179386138916016,1.9307150840759277,0.5907390027740359,88.0,890.0,0.0
,,"(6, 6)",,,,,,,,
Y,R,"[6, 7]",0.0,0.0,0.39361000061035156,2.9399170875549316,0.3639991216001903,89.0,891.0,0.0
Y,R,"[6, 8]",1.0,1.0,0.3633248805999756,2.1354331970214844,0.665782349708584,89.0,892.0,0.0
Y,R,"[6, 9]",1.0,2.0,0.24597597122192383,2.0197808742523193,0.6687970122687785,89.0,893.0,0.0
Y,R,"[6, 10]",1.0,3.0,0.2104341983795166,1.6440529823303223,0.3297462254766135,89.0,894.0,0.0
Y,R,"[6, 11]",0.0,3.0,0.30835700035095215,1.7847929000854492,0.36447267292974067,89.0,895.0,0.0
Y,R,"[6, 10]",-3.0,3.0,0.3839230537414551,2.061272144317627,0.575582751412984,89.0,896.0,0.0
Y,R,"[6, 11]",0.0,3.0,0.25493812561035156,2.0494179725646973,0.7081148036663618,89.0,897.0,0.0
Y,R,"[6, 10]",-2.0,3.0,1.207474946975708,2.527026891708374,0.28547110897826694,89.0,898.0,0.0
Y,R,"[6, 11]",0.0,3.0,0.43048787117004395,2.0968971252441406,0.5653258816264821,89.0,899.0,0.0
Y,R,"[6, 10]",-3.0,3.0,0.31446003913879395,2.0584940910339355,0.6403364317077662,89.0,900.0,0.0
,,"(6, 6)",,,,,,,,
Y,R,"[6, 7]",0.0,0.0,0.3198211193084717,2.691896915435791,0.6487529910877176,90.0,901.0,0.0
Y,R,"[6, 8]",1.0,1.0,0.23635101318359375,1.7808918952941895,0.4463207951878221,90.0,902.0,0.0
Y,R,"[6, 9]",1.0,2.0,0.25406479835510254,1.8952040672302246,0.5248408577700945,90.0,903.0,0.0
Y,R,"[6, 10]",1.0,3.0,0.25169897079467773,2.0379819869995117,0.6958592950282534,90.0,904.0,0.0
Y,R,"[6, 11]",0.0,3.0,0.2125871181488037,1.7921948432922363,0.4715738359949879,90.0,905.0,0.0
Y,R,"[6, 10]",-3.0,3.0,0.30851101875305176,1.7850968837738037,0.37335564874940375,90.0,906.0,0.0
Y,R,"[6, 11]",0.0,3.0,0.25394105911254883,1.7054588794708252,0.32879473499356926,90.0,907.0,0.0
Y,R,"[6, 10]",-3.0,3.0,0.25093913078308105,1.8816049098968506,0.5438285193349186,90.0,908.0,0.0
Y,R,"[6, 11]",0.0,3.0,0.3585081100463867,2.097208023071289,0.6409542645103365,90.0,909.0,0.0
Y,R,"[6, 10]",-3.0,3.0,0.3745870590209961,2.12644100189209,0.6502025554705159,90.0,910.0,0.0
,,"(6, 6)",,,,,,,,
Y,R,"[6, 7]",0.0,0.0,0.46972012519836426,3.4170827865600586,0.7171739996269617,91.0,911.0,0.0
Y,R,"[6, 8]",1.0,1.0,0.2467360496520996,1.8197729587554932,0.470391341046697,91.0,912.0,0.0
Y,R,"[6, 9]",1.0,2.0,0.3354001045227051,1.9483909606933594,0.5187589136298695,91.0,913.0,0.0
Y,R,"[6, 10]",1.0,3.0,0.2637920379638672,2.0856590270996094,0.7211255409036171,91.0,914.0,0.0
Y,R,"[6, 11]",0.0,3.0,0.2410440444946289,2.0465810298919678,0.7006948319791287,91.0,915.0,0.0
Y,R,"[6, 10]",-3.0,3.0,0.34223198890686035,2.0936079025268555,0.6443008795292124,91.0,916.0,0.0
Y,R,"[6, 11]",0.0,3.0,0.3019289970397949,1.859306812286377,0.4701099197796811,91.0,917.0,0.0
Y,R,"[6, 10]",-3.0,3.0,0.33521509170532227,1.7961950302124023,0.3664662828094247,91.0,918.0,0.0
Y,R,"[6, 11]",0.0,3.0,0.3752479553222656,1.9988090991973877,0.5150544866054316,91.0,919.0,0.0
Y,R,"[6, 10]",-3.0,3.0,0.48413705825805664,2.122451066970825,0.53754965238063,91.0,920.0,0.0
,,"(6, 6)",,,,,,,,
Y,R,"[6, 7]",0.0,0.0,0.4696519374847412,3.082371950149536,0.48637456971025184,92.0,921.0,0.0
Y,R,"[6, 8]",1.0,1.0,0.34377312660217285,2.056586980819702,0.6098728867147265,92.0,922.0,0.0
Y,R,"[6, 9]",1.0,2.0,0.346189022064209,2.1326708793640137,0.691910774840986,92.0,923.0,0.0
Y,R,"[6, 10]",1.0,3.0,0.292834997177124,1.9464161396026611,0.5551933551249395,92.0,924.0,0.0
Y,R,"[6, 11]",0.0,3.0,0.31470680236816406,2.0307350158691406,0.6192863895088098,92.0,925.0,0.0
Y,R,"[6, 10]",-3.0,3.0,0.2632930278778076,1.9663238525390625,0.6022537235234794,92.0,926.0,0.0
Y,R,"[6, 11]",0.0,3.0,0.24466991424560547,1.971707820892334,0.6237353829605867,92.0,927.0,0.0
Y,R,"[6, 10]",-3.0,3.0,0.31803107261657715,2.051527976989746,0.6417890898929872,92.0,928.0,0.0
Y,R,"[6, 11]",0.0,3.0,0.32315492630004883,1.8818960189819336,0.4570136783881425,92.0,929.0,0.0
Y,R,"[6, 10]",-3.0,3.0,0.31853413581848145,2.0348658561706543,0.6252818170984444,92.0,930.0,0.0
,,"(6, 6)",,,,,,,,
Y,R,"[6, 7]",0.0,0.0,0.4115009307861328,2.9211490154266357,0.3797101067140077,93.0,931.0,0.0
Y,R,"[6, 8]",1.0,1.0,0.30083703994750977,1.6746020317077637,0.27094130032246816,93.0,932.0,0.0
Y,R,"[6, 9]",1.0,2.0,0.5309228897094727,2.0799999237060547,0.45082427376849615,93.0,933.0,0.0
Y,R,"[6, 10]",1.0,3.0,0.24069786071777344,1.6555027961730957,0.30628925099923743,93.0,934.0,0.0
Y,R,"[6, 11]",0.0,3.0,0.23678898811340332,1.9766209125518799,0.6495311993751555,93.0,935.0,0.0
Y,R,"[6, 10]",-3.0,3.0,0.18838715553283691,1.8720078468322754,0.5716351213897359,93.0,936.0,0.0
Y,R,"[6, 11]",0.0,3.0,0.22809100151062012,1.9735569953918457,0.6447039440417857,93.0,937.0,0.0
Y,R,"[6, 10]",-3.0,3.0,0.1919569969177246,1.5391349792480469,0.2507135546581535,93.0,938.0,0.0
Y,R,"[6, 11]",0.0,3.0,0.2878859043121338,1.9648468494415283,0.565238356421741,93.0,939.0,0.0
Y,R,"[6, 10]",-3.0,3.0,0.2571909427642822,1.965507984161377,0.597221603557322,93.0,940.0,0.0
,,"(6, 6)",,,,,,,,
Y,R,"[6, 7]",0.0,0.0,0.3388080596923828,3.4694502353668213,0.7332412289090844,94.0,941.0,0.0
Y,R,"[6, 8]",-1.0,0.0,0.08685111999511719,5.858512878417969,0.6415185688004326,94.0,942.0,0.0
Y,R,"[6, 9]",1.0,1.0,0.19782090187072754,1.671699047088623,0.38007206339411914,94.0,943.0,0.0
Y,R,"[6, 10]",1.0,2.0,0.23640704154968262,1.8031120300292969,0.46640281128939326,94.0,944.0,0.0
Y,R,"[6, 11]",0.0,2.0,0.25351905822753906,1.9263241291046143,0.5761075316398656,94.0,945.0,0.0
Y,R,"[6, 10]",-3.0,2.0,0.27969884872436523,1.9275870323181152,0.5535340758201017,94.0,946.0,0.0
Y,R,"[6, 11]",0.0,2.0,0.234238862991333,1.9193179607391357,0.5892307985610887,94.0,947.0,0.0
Y,R,"[6, 10]",-3.0,2.0,0.25362205505371094,1.6833090782165527,0.33946554483850716,94.0,948.0,0.0
Y,R,"[6, 11]",0.0,2.0,0.24537897109985352,1.8368818759918213,0.492848993993368,94.0,949.0,0.0
Y,R,"[6, 10]",-3.0,2.0,0.2958199977874756,1.6983308792114258,0.3078844653952509,94.0,950.0,0.0
,,"(6, 6)",,,,,,,,
Y,R,"[6, 7]",0.0,0.0,0.27218103408813477,2.94712495803833,0.5714157840239213,95.0,951.0,0.0
Y,R,"[6, 8]",1.0,1.0,0.1939690113067627,1.9548780918121338,0.659637045711851,95.0,952.0,0.0
Y,R,"[6, 9]",1.0,2.0,0.21689796447753906,1.8138720989227295,0.5065456108174909,95.0,953.0,0.0
Y,R,"[6, 10]",1.0,3.0,0.22806215286254883,1.8420109748840332,0.5153622882671915,95.0,954.0,0.0
Y,R,"[6, 11]",0.0,3.0,0.1829509735107422,1.589836835861206,0.3052713951238755,95.0,955.0,0.0
Y,R,"[6, 10]",-3.0,3.0,0.33580493927001953,1.7479400634765625,0.3198589559389308,95.0,956.0,0.0
Y,R,"[6, 11]",0.0,3.0,0.292661190032959,1.8603730201721191,0.46332536967133625,95.0,957.0,0.0
Y,R,"[6, 10]",-3.0,3.0,0.21089601516723633,1.9280200004577637,0.6078994246892773,95.0,958.0,0.0
Y,R,"[6, 11]",-1.0,3.0,0.017529010772705078,5.505792856216431,0.363535485200599,95.0,959.0,0.0
Y,R,"[6, 10]",-3.0,3.0,0.3235800266265869,1.925851821899414,0.48928094029982133,95.0,960.0,0.0
,,"(6, 6)",,,,,,,,
R,U,"[5, 6]",-2.0,0.0,1.3108320236206055,4.155812978744507,0.6615500138296742,96.0,961.0,0.0
R,U,"[4, 6]",0.0,0.0,0.23699116706848145,1.6921319961547852,0.37050965624085297,96.0,962.0,0.0
R,U,"[3, 6]",0.0,0.0,0.313399076461792,1.772840976715088,0.35991709321738286,96.0,963.0,0.0
R,U,"[2, 6]",0.0,0.0,0.5751059055328369,2.0560860633850098,0.3825757465186956,96.0,964.0,0.0
R,U,"[1, 6]",0.0,0.0,0.4903440475463867,2.2268872261047363,0.6258405416636423,96.0,965.0,0.0
R,U,"[2, 6]",-3.0,0.0,0.28266310691833496,2.0749239921569824,0.7004779867001206,96.0,966.0,0.0
R,U,"[1, 6]",-2.0,0.0,1.0862839221954346,2.385150909423828,0.26940532905250203,96.0,967.0,0.0
R,U,"[2, 6]",-1.0,0.0,0.09695911407470703,5.8400890827178955,0.6090683703480515,96.0,968.0,0.0
R,U,"[1, 6]",0.0,0.0,0.2915070056915283,2.105067014694214,0.7139715448215724,96.0,969.0,0.0
R,U,"[2, 6]",-3.0,0.0,0.32102108001708984,1.9499058723449707,0.5305707494548219,96.0,970.0,0.0
,,"(6, 6)",,,,,,,,
R,U,"[5, 6]",1.0,1.0,0.4396979808807373,2.9394948482513428,0.3202662636296033,97.0,971.0,0.0
R,U,"[4, 6]",0.0,1.0,0.33015990257263184,1.9811210632324219,0.5509121853623148,97.0,972.0,0.0
R,U,"[3, 6]",0.0,1.0,0.37305188179016113,1.7543299198150635,0.2723041087232252,97.0,973.0,0.0
R,U,"[2, 6]",0.0,1.0,0.37195611000061035,1.7591009140014648,0.2813508877668749,97.0,974.0,0.0
R,U,"[1, 6]",0.0,1.0,0.4655129909515381,2.0105929374694824,0.44152327179054146,97.0,975.0,0.0
R,U,"[2, 6]",-3.0,1.0,0.27228283882141113,1.8628649711608887,0.48776204195993283,97.0,976.0,0.0
R,U,"[1, 6]",0.0,1.0,0.3452479839324951,1.763024091720581,0.3173568150062419,97.0,977.0,0.0
R,U,"[2, 6]",-3.0,1.0,0.5342519283294678,1.9588088989257812,0.32631132150394954,97.0,978.0,0.0
R,U,"[1, 6]",0.0,1.0,0.3909940719604492,2.233059883117676,0.7421443294314131,97.0,979.0,0.0
R,U,"[2, 6]",-3.0,1.0,0.2866530418395996,1.6497390270233154,0.27566773692671825,97.0,980.0,0.0
,,"(6, 6)",,,,,,,,
R,U,"[5, 6]",1.0,1.0,0.5253510475158691,3.4739208221435547,0.43257025404416455,98.0,981.0,0.0
R,U,"[4, 6]",0.0,1.0,0.4610111713409424,1.931847095489502,0.3644145650829406,98.0,982.0,0.0
R,U,"[3, 6]",0.0,1.0,0.5088949203491211,2.3040270805358887,0.6846845113652535,98.0,983.0,0.0
R,U,"[2, 6]",0.0,1.0,0.3966708183288574,2.0344271659851074,0.5359873434234621,98.0,984.0,0.0
R,U,"[1, 6]",0.0,1.0,0.37839698791503906,1.739380121231079,0.2586483561674175,98.0,985.0,0.0
R,U,"[2, 6]",-3.0,1.0,0.7379500865936279,2.5371460914611816,0.712057209993699,98.0,986.0,0.0
R,U,"[1, 6]",0.0,1.0,0.4275069236755371,1.85831618309021,0.3374613035584995,98.0,987.0,0.0
R,U,"[2, 6]",-3.0,1.0,0.9616978168487549,2.5069310665130615,0.44421188863746736,98.0,988.0,0.0
R,U,"[1, 6]",0.0,1.0,0.4601738452911377,2.3026771545410156,0.7464202058982621,98.0,989.0,0.0
R,U,"[2, 6]",-3.0,1.0,0.45223212242126465,1.9872920513153076,0.4340081219199854,98.0,990.0,0.0
,,"(6, 6)",,,,,,,,
R,U,"[5, 6]",1.0,1.0,0.5409328937530518,3.520491123199463,0.33768538737433046,99.0,991.0,0.0
R,U,"[4, 6]",0.0,1.0,0.5858659744262695,2.1745967864990234,0.49553570166514666,99.0,992.0,0.0
R,U,"[3, 6]",0.0,1.0,0.353363037109375,2.150441884994507,0.7123612464715127,99.0,993.0,0.0
R,U,"[2, 6]",0.0,1.0,0.3688230514526367,2.098867893218994,0.6279333051778109,99.0,994.0,0.0
R,U,"[1, 6]",0.0,1.0,0.35842204093933105,1.7255709171295166,0.2701738784978585,99.0,995.0,0.0
R,U,"[2, 6]",-3.0,1.0,0.7866270542144775,2.217413902282715,0.3376114633946748,99.0,996.0,0.0
R,U,"[1, 6]",0.0,1.0,0.44293713569641113,1.8651180267333984,0.3193230659109288,99.0,997.0,0.0
R,U,"[2, 6]",-3.0,1.0,0.6825599670410156,2.4621100425720215,0.6810927538139175,99.0,998.0,0.0
R,U,"[1, 6]",0.0,1.0,0.4858510494232178,1.844702959060669,0.2593793539975289,99.0,999.0,0.0
R,U,"[2, 6]",-3.0,1.0,0.5415949821472168,2.300114154815674,0.675726116965677,99.0,1000.0,0.0
