button_choice,action_choice,coordinate_choice,reward,cumulative_reward,rt,total_trial_time,iti,block_n,trial_n,trial_type
R,U,"[5, 6]",1.0,1.0,0.7379899024963379,2.4595470428466797,0.6105592195911113,0.0,1.0,0.0
B,L,"[5, 5]",0.0,1.0,0.3517789840698242,1.942500114440918,0.5029170960459903,0.0,2.0,0.0
Y,R,"[5, 6]",0.0,1.0,0.2691030502319336,1.7609610557556152,0.3973462528812381,0.0,3.0,0.0
G,D,"[6, 6]",0.0,1.0,0.20567703247070312,1.899425983428955,0.5799449297551196,0.0,4.0,0.0
R,U,"[5, 6]",-1.0,1.0,0.006862163543701172,5.637772083282471,0.5011196530614203,0.0,5.0,0.0
R,U,"[4, 6]",0.0,1.0,0.23932600021362305,1.6706180572509766,0.3220602513176201,0.0,6.0,0.0
R,U,"[3, 6]",0.0,1.0,0.3568401336669922,1.9935548305511475,0.5320137508038518,0.0,7.0,0.0
B,L,"[3, 5]",0.0,1.0,0.17428088188171387,1.9146080017089844,0.6298839223436827,0.0,8.0,0.0
G,D,"[4, 5]",0.0,1.0,0.17766284942626953,1.8523950576782227,0.5656935205204341,0.0,9.0,0.0
Y,R,"[4, 6]",0.0,1.0,0.19062590599060059,1.8620829582214355,0.5778040071358295,0.0,10.0,0.0
,,"(6, 6)",,,,,,,,
Y,R,"[6, 7]",0.0,0.0,0.5319881439208984,7.680502891540527,0.5916128862948106,1.0,11.0,0.0
B,L,"[6, 6]",0.0,0.0,0.3814990520477295,2.186713933944702,0.7117141334351791,1.0,12.0,0.0
B,L,"[6, 5]",0.0,0.0,0.1772618293762207,1.808866024017334,0.5368517662640797,1.0,13.0,0.0
R,U,"[5, 5]",0.0,0.0,0.18180394172668457,1.90671706199646,0.6274036060994261,1.0,14.0,0.0
R,U,"[4, 5]",0.0,0.0,0.24262690544128418,2.013875961303711,0.6744797270810137,1.0,15.0,0.0
R,U,"[3, 5]",0.0,0.0,0.2480020523071289,1.634213924407959,0.292427920413818,1.0,16.0,0.0
G,D,"[4, 5]",0.0,0.0,0.3347020149230957,2.0013201236724854,0.5768384576419581,1.0,17.0,0.0
G,D,"[5, 5]",0.0,0.0,0.3077971935272217,1.9181029796600342,0.5116769605747384,1.0,18.0,0.0
B,L,"[5, 4]",0.0,0.0,0.5122470855712891,2.2084720134735107,0.6034320349233473,1.0,19.0,0.0
Y,R,"[5, 5]",0.0,0.0,0.5965018272399902,2.3731460571289062,0.676422040293817,1.0,20.0,0.0
,,"(6, 6)",,,,,,,,
R,U,"[5, 6]",-2.0,0.0,5.796804189682007,11.050244092941284,0.5437116150382083,2.0,21.0,0.0
R,U,"[4, 6]",0.0,0.0,0.2132420539855957,1.8498680591583252,0.5436091989130662,2.0,22.0,0.0
R,U,"[3, 6]",0.0,0.0,0.22733497619628906,1.719411849975586,0.39646454501999756,2.0,23.0,0.0
G,D,"[4, 6]",0.0,0.0,0.2353219985961914,2.0757808685302734,0.7386428070961508,2.0,24.0,0.0
G,D,"[5, 6]",0.0,0.0,0.16748595237731934,1.73630690574646,0.4751868733215807,2.0,25.0,0.0
G,D,"[6, 6]",0.0,0.0,0.20525789260864258,1.7707109451293945,0.4625251602300097,2.0,26.0,0.0
G,D,"[7, 6]",0.0,0.0,0.1766200065612793,1.977337121963501,0.706294022977791,2.0,27.0,0.0
G,D,"[8, 6]",0.0,0.0,0.3204610347747803,1.8698019981384277,0.4598115419771271,2.0,28.0,0.0
G,D,"[9, 6]",0.0,0.0,0.17475390434265137,1.6560108661651611,0.38260584824309557,2.0,29.0,0.0
G,D,"[10, 6]",0.0,0.0,0.53615403175354,1.9153459072113037,0.281319673651568,2.0,30.0,0.0
,,"(6, 6)",,,,,,,,
B,L,"[6, 5]",-2.0,0.0,1.3412230014801025,4.974097967147827,0.43873285632783954,3.0,31.0,0.0
B,L,"[6, 4]",0.0,0.0,0.20224714279174805,1.8918261528015137,0.5969656693007347,3.0,32.0,0.0
Y,R,"[6, 5]",0.0,0.0,0.24730515480041504,1.6253690719604492,0.27246777743939843,3.0,33.0,0.0
B,L,"[6, 4]",0.0,0.0,0.3215808868408203,1.9390201568603516,0.5116115019565033,3.0,34.0,0.0
B,L,"[6, 3]",0.0,0.0,0.1726689338684082,1.7716009616851807,0.49987860443592513,3.0,35.0,0.0
R,U,"[5, 3]",0.0,0.0,0.16498613357543945,1.867469072341919,0.6004844352298369,3.0,36.0,0.0
R,U,"[4, 3]",0.0,0.0,0.16539788246154785,2.0053069591522217,0.7389916046153395,3.0,37.0,0.0
R,U,"[3, 3]",-1.0,0.0,0.04286479949951172,5.603176832199097,0.4424263339168472,3.0,38.0,0.0
R,U,"[2, 3]",0.0,0.0,0.3598160743713379,1.8175098896026611,0.35994721925273315,3.0,39.0,0.0
Y,R,"[2, 4]",0.0,0.0,0.2808799743652344,1.985368013381958,0.6120180354624224,3.0,40.0,0.0
,,"(6, 6)",,,,,,,,
Y,R,"[6, 7]",0.0,0.0,0.599423885345459,6.681574106216431,0.6102496525055051,4.0,41.0,0.0
Y,R,"[6, 8]",1.0,1.0,0.4499239921569824,2.1023108959198,0.562654430433942,4.0,42.0,0.0
Y,R,"[6, 9]",1.0,2.0,0.18815183639526367,1.9491519927978516,0.6616683863072264,4.0,43.0,0.0
Y,R,"[6, 10]",1.0,3.0,0.18091702461242676,1.626626968383789,0.35516350474645725,4.0,44.0,0.0
Y,R,"[6, 11]",0.0,3.0,0.184312105178833,1.6655139923095703,0.38744746127937285,4.0,45.0,0.0
Y,R,"[6, 10]",-3.0,3.0,0.20351481437683105,1.7137091159820557,0.41768806500266226,4.0,46.0,0.0
B,L,"[6, 9]",0.0,3.0,0.6104249954223633,2.066472053527832,0.3677935842375318,4.0,47.0,0.0
G,D,"[7, 9]",0.0,3.0,0.18373799324035645,1.6142079830169678,0.3320212663044554,4.0,48.0,0.0
Y,R,"[7, 10]",0.0,3.0,0.18917489051818848,1.7687740325927734,0.4672193123940825,4.0,49.0,0.0
Y,R,"[7, 11]",0.0,3.0,0.17043399810791016,1.720142126083374,0.4539706910067398,4.0,50.0,0.0
,,"(6, 6)",,,,,,,,
G,D,"[7, 6]",0.0,0.0,0.4190189838409424,3.5003960132598877,0.6376683398069316,5.0,51.0,0.0
G,D,"[8, 6]",0.0,0.0,0.1651759147644043,1.678436040878296,0.41640218331525836,5.0,52.0,0.0
G,D,"[9, 6]",0.0,0.0,0.18460607528686523,1.6535208225250244,0.3699672176195672,5.0,53.0,0.0
B,L,"[9, 5]",0.0,0.0,0.1886739730834961,1.7112550735473633,0.41455500907767423,5.0,54.0,0.0
B,L,"[9, 4]",0.0,0.0,0.15018606185913086,1.6417081356048584,0.3895032428401945,5.0,55.0,0.0
R,U,"[8, 4]",0.0,0.0,0.17477083206176758,1.995574951171875,0.7181388034132978,5.0,56.0,0.0
R,U,"[7, 4]",-1.0,0.0,0.09404802322387695,5.824845790863037,0.5931337863330353,5.0,57.0,0.0
R,U,"[6, 4]",0.0,0.0,0.5963771343231201,2.357728958129883,0.6675091214724169,5.0,58.0,0.0
Y,R,"[6, 5]",0.0,0.0,0.27274489402770996,1.7864410877227783,0.4208857578533585,5.0,59.0,0.0
Y,R,"[6, 6]",0.0,0.0,0.18816208839416504,1.8514189720153809,0.5721230267014692,5.0,60.0,0.0
,,"(6, 6)",,,,,,,,
B,L,"[6, 5]",0.0,0.0,0.4617631435394287,3.656609058380127,0.5620377296089835,6.0,61.0,0.0
B,L,"[6, 4]",0.0,0.0,0.1648390293121338,1.817030906677246,0.5625117939470143,6.0,62.0,0.0
G,D,"[7, 4]",0.0,0.0,0.18134713172912598,1.8212580680847168,0.5337866304094564,6.0,63.0,0.0
G,D,"[8, 4]",0.0,0.0,0.16387701034545898,1.9992749691009521,0.732887193622622,6.0,64.0,0.0
R,U,"[7, 4]",0.0,0.0,0.2057650089263916,1.619338035583496,0.30265461707184277,6.0,65.0,0.0
R,U,"[6, 4]",0.0,0.0,0.8072540760040283,2.511793851852417,0.5974692246126623,6.0,66.0,0.0
R,U,"[5, 4]",0.0,0.0,0.2048349380493164,1.9375438690185547,0.635033205314451,6.0,67.0,0.0
G,D,"[6, 4]",0.0,0.0,0.2652111053466797,1.723897933959961,0.35922904520716675,6.0,68.0,0.0
B,L,"[6, 3]",0.0,0.0,0.18964600563049316,1.920215129852295,0.6291622162201869,6.0,69.0,0.0
Y,R,"[6, 4]",0.0,0.0,0.17061781883239746,1.575685977935791,0.30530602457375794,6.0,70.0,0.0
,,"(6, 6)",,,,,,,,
G,D,"[7, 6]",0.0,0.0,0.3742039203643799,3.1515798568725586,0.4067161277962066,7.0,71.0,0.0
G,D,"[8, 6]",0.0,0.0,0.17006897926330566,1.5212719440460205,0.26142723929004286,7.0,72.0,0.0
G,D,"[9, 6]",0.0,0.0,0.1855471134185791,1.684723138809204,0.41268695617829204,7.0,73.0,0.0
B,L,"[9, 5]",0.0,0.0,0.1735241413116455,1.9398391246795654,0.6522879693129321,7.0,74.0,0.0
B,L,"[9, 4]",0.0,0.0,0.5464539527893066,2.1508939266204834,0.5035095828543578,7.0,75.0,0.0
B,L,"[9, 3]",0.0,0.0,0.18335390090942383,1.97324800491333,0.693128469572638,7.0,76.0,0.0
B,L,"[9, 2]",0.0,0.0,0.19866204261779785,2.0369510650634766,0.7467845136389366,7.0,77.0,0.0
B,L,"[9, 1]",0.0,0.0,0.32066988945007324,1.8456511497497559,0.4258266037826629,7.0,78.0,0.0
B,L,"[9, 2]",-3.0,0.0,0.2553858757019043,1.7698609828948975,0.42936789672705633,7.0,79.0,0.0
B,L,"[9, 1]",0.0,0.0,0.36490607261657715,1.993499994277954,0.5393166133661935,7.0,80.0,0.0
,,"(6, 6)",,,,,,,,
B,L,"[6, 5]",0.0,0.0,0.3691749572753906,5.409907102584839,0.6324545140655012,8.0,81.0,0.0
Y,R,"[6, 6]",0.0,0.0,0.18530511856079102,1.690755844116211,0.40678289054424616,8.0,82.0,0.0
Y,R,"[6, 7]",0.0,0.0,0.17654991149902344,1.811539888381958,0.5348880761605419,8.0,83.0,0.0
Y,R,"[6, 8]",1.0,1.0,0.14071393013000488,1.9676389694213867,0.7191618569857495,8.0,84.0,0.0
Y,R,"[6, 9]",1.0,2.0,0.2929060459136963,1.8906419277191162,0.49333132083019593,8.0,85.0,0.0
G,D,"[7, 9]",0.0,2.0,0.1756141185760498,2.0146758556365967,0.7411134365662034,8.0,86.0,0.0
Y,R,"[7, 10]",0.0,2.0,0.29706716537475586,1.8691530227661133,0.47715318770257115,8.0,87.0,0.0
Y,R,"[7, 11]",0.0,2.0,0.16654086112976074,1.6365621089935303,0.38055871768204713,8.0,88.0,0.0
R,U,"[6, 11]",0.0,2.0,0.21440601348876953,1.8674249649047852,0.5476903521854779,8.0,89.0,0.0
Y,R,"[7, 11]",-1.0,2.0,0.059275150299072266,5.445055961608887,0.25981488672538405,8.0,90.0,0.0
,,"(6, 6)",,,,,,,,
R,U,"[5, 6]",1.0,1.0,0.46887803077697754,3.1007261276245117,0.2772849457999765,9.0,91.0,0.0
R,U,"[4, 6]",0.0,1.0,0.28388404846191406,1.7767910957336426,0.40384707121138164,9.0,92.0,0.0
Y,R,"[4, 7]",0.0,1.0,0.2441699504852295,1.9311630725860596,0.5848484227977557,9.0,93.0,0.0
Y,R,"[4, 8]",0.0,1.0,0.19245004653930664,1.5694310665130615,0.27141531382427053,9.0,94.0,0.0
R,U,"[3, 8]",0.0,1.0,0.23803400993347168,1.6314101219177246,0.30264799448936863,9.0,95.0,0.0
R,U,"[2, 8]",0.0,1.0,0.25440287590026855,1.9835560321807861,0.6358662340902401,9.0,96.0,0.0
R,U,"[1, 8]",0.0,1.0,0.2662839889526367,1.9864871501922607,0.6221830029536635,9.0,97.0,0.0
Y,R,"[1, 9]",0.0,1.0,0.6877720355987549,2.195742130279541,0.40172979102322426,9.0,98.0,0.0
Y,R,"[1, 10]",0.0,1.0,0.2913949489593506,2.0686111450195312,0.670039145477774,9.0,99.0,0.0
Y,R,"[1, 11]",0.0,1.0,0.35611796379089355,2.116084098815918,0.6528958798230116,9.0,100.0,0.0
,,"(6, 6)",,,,,,,,
Y,R,"[6, 7]",0.0,0.0,0.31938600540161133,2.999274969100952,0.5189311521947564,10.0,101.0,0.0
Y,R,"[6, 8]",1.0,1.0,0.210845947265625,1.7223608493804932,0.40822335905772034,10.0,102.0,0.0
Y,R,"[6, 9]",1.0,2.0,0.18814706802368164,1.9099540710449219,0.6179691957044411,10.0,103.0,0.0
Y,R,"[6, 10]",1.0,3.0,0.20058012008666992,1.9342291355133057,0.6355104720630531,10.0,104.0,0.0
Y,R,"[6, 11]",0.0,3.0,0.16332197189331055,1.8386270999908447,0.5740915028602898,10.0,105.0,0.0
B,L,"[6, 10]",-1.0,3.0,0.014142036437988281,5.543734073638916,0.40146776772736437,10.0,106.0,0.0
R,U,"[5, 10]",1.0,4.0,0.307265043258667,2.036745071411133,0.6213790866379514,10.0,107.0,0.0
R,U,"[4, 10]",1.0,5.0,0.1950380802154541,1.6423511505126953,0.3473420166169746,10.0,108.0,0.0
R,U,"[3, 10]",0.0,5.0,0.30325913429260254,1.6782629489898682,0.2755983532291133,10.0,109.0,0.0
Y,R,"[3, 11]",0.0,5.0,0.25743579864501953,1.759178876876831,0.4013514323312737,10.0,110.0,0.0
,,"(6, 6)",,,,,,,,
Y,R,"[6, 7]",0.0,0.0,0.5944581031799316,3.0889580249786377,0.27370351598207665,11.0,111.0,0.0
Y,R,"[6, 8]",1.0,1.0,0.1815788745880127,1.73785400390625,0.46148806313326435,11.0,112.0,0.0
Y,R,"[6, 9]",1.0,2.0,0.158250093460083,1.920504093170166,0.665181942025176,11.0,113.0,0.0
Y,R,"[6, 10]",1.0,3.0,0.17193293571472168,1.70188307762146,0.4172174136501798,11.0,114.0,0.0
R,U,"[5, 10]",1.0,4.0,0.23701906204223633,1.9586660861968994,0.6250705210232217,11.0,115.0,0.0
R,U,"[4, 10]",1.0,5.0,0.16713809967041016,1.980654001235962,0.723032037025304,11.0,116.0,0.0
R,U,"[3, 10]",0.0,5.0,0.20870494842529297,2.028280019760132,0.7178909213837953,11.0,117.0,0.0
Y,R,"[3, 11]",0.0,5.0,0.17241597175598145,1.6243128776550293,0.3427113556408476,11.0,118.0,0.0
Y,R,"[3, 10]",-3.0,5.0,0.18696093559265137,1.7109460830688477,0.43684421234977433,11.0,119.0,0.0
R,U,"[2, 10]",0.0,5.0,0.5828640460968018,2.2198679447174072,0.5399049192863707,11.0,120.0,0.0
,,"(6, 6)",,,,,,,,
Y,R,"[6, 7]",0.0,0.0,0.45239686965942383,3.4197537899017334,0.5931117309538183,12.0,121.0,0.0
Y,R,"[6, 8]",1.0,1.0,0.1620960235595703,1.530837059020996,0.27377957156980154,12.0,122.0,0.0
Y,R,"[6, 9]",1.0,2.0,0.3117411136627197,2.1189610958099365,0.7093296615510984,12.0,123.0,0.0
Y,R,"[6, 10]",1.0,3.0,0.24317693710327148,1.9902970790863037,0.6500309121663939,12.0,124.0,0.0
R,U,"[5, 10]",1.0,4.0,0.17922091484069824,1.7331950664520264,0.4499213404096279,12.0,125.0,0.0
R,U,"[4, 10]",1.0,5.0,0.20598793029785156,1.6997559070587158,0.3830664759481241,12.0,126.0,0.0
B,L,"[4, 9]",1.0,6.0,0.1991112232208252,1.9472441673278809,0.6465819966693945,12.0,127.0,0.0
B,L,"[4, 8]",0.0,6.0,0.30478906631469727,1.8247389793395996,0.42186079806243604,12.0,128.0,0.0
G,D,"[5, 8]",1.0,7.0,0.16271209716796875,1.899658203125,0.6377120882111611,12.0,129.0,0.0
G,D,"[6, 8]",0.0,7.0,0.16916990280151367,1.766110897064209,0.504080376192362,12.0,130.0,0.0
,,"(6, 6)",,,,,,,,
G,D,"[7, 6]",-2.0,0.0,1.6920788288116455,4.738685846328735,0.742411906832851,13.0,131.0,0.0
G,D,"[8, 6]",0.0,0.0,0.30404210090637207,1.8216300010681152,0.4310942061280696,13.0,132.0,0.0
Y,R,"[8, 7]",0.0,0.0,0.2086029052734375,1.889112949371338,0.570073302535292,13.0,133.0,0.0
Y,R,"[8, 8]",0.0,0.0,0.17051005363464355,1.8718359470367432,0.6086470016674835,13.0,134.0,0.0
Y,R,"[8, 9]",0.0,0.0,0.16480493545532227,1.720384120941162,0.46240414612667546,13.0,135.0,0.0
R,U,"[7, 9]",0.0,0.0,0.16810107231140137,1.6350290775299072,0.38088533986922063,13.0,136.0,0.0
R,U,"[6, 9]",1.0,1.0,0.21730399131774902,1.6619298458099365,0.34283013596651124,13.0,137.0,0.0
R,U,"[5, 9]",0.0,1.0,0.3262481689453125,2.002117872238159,0.5779562451470612,13.0,138.0,0.0
B,L,"[5, 8]",1.0,2.0,0.17738986015319824,1.7344448566436768,0.46256716895155037,13.0,139.0,0.0
B,L,"[5, 7]",1.0,3.0,0.25224995613098145,1.797764778137207,0.4438473976098522,13.0,140.0,0.0
,,"(6, 6)",,,,,,,,
Y,R,"[6, 7]",0.0,0.0,0.39854907989501953,3.2237980365753174,0.6175956237101436,14.0,141.0,0.0
Y,R,"[6, 8]",1.0,1.0,0.17354989051818848,1.6428279876708984,0.3605282541751356,14.0,142.0,0.0
Y,R,"[6, 9]",1.0,2.0,0.3097522258758545,2.1126389503479004,0.7061416725284045,14.0,143.0,0.0
Y,R,"[6, 10]",1.0,3.0,0.2041029930114746,1.806746006011963,0.5131780270878465,14.0,144.0,0.0
R,U,"[5, 10]",1.0,4.0,0.20155906677246094,1.9327471256256104,0.6292049742784298,14.0,145.0,0.0
R,U,"[4, 10]",1.0,5.0,0.17422699928283691,1.8432719707489014,0.5554792090677777,14.0,146.0,0.0
G,D,"[5, 10]",0.0,5.0,0.39685797691345215,2.142789125442505,0.6485041521993691,14.0,147.0,0.0
B,L,"[5, 9]",0.0,5.0,0.17014098167419434,1.7384541034698486,0.4704827322416463,14.0,148.0,0.0
B,L,"[5, 8]",1.0,6.0,0.21026396751403809,1.761552095413208,0.4487918825939726,14.0,149.0,0.0
B,L,"[5, 7]",1.0,7.0,0.20113301277160645,2.04967999458313,0.7480711148568139,14.0,150.0,0.0
,,"(6, 6)",,,,,,,,
Y,R,"[6, 7]",0.0,0.0,0.6204180717468262,3.0372071266174316,0.30257729693921176,15.0,151.0,0.0
Y,R,"[6, 8]",1.0,1.0,0.25272393226623535,2.0835931301116943,0.7355853111731825,15.0,152.0,0.0
Y,R,"[6, 9]",1.0,2.0,0.1667189598083496,2.0035109519958496,0.7391348780850084,15.0,153.0,0.0
Y,R,"[6, 10]",1.0,3.0,0.18962407112121582,1.9050569534301758,0.6107617311378073,15.0,154.0,0.0
R,U,"[5, 10]",1.0,4.0,0.19783902168273926,1.7086420059204102,0.41987846594570316,15.0,155.0,0.0
R,U,"[4, 10]",1.0,5.0,0.19423508644104004,1.7133948802947998,0.4165928309828871,15.0,156.0,0.0
B,L,"[4, 9]",1.0,6.0,0.18275904655456543,1.5456089973449707,0.2624328334196427,15.0,157.0,0.0
B,L,"[4, 8]",0.0,6.0,0.19119000434875488,1.6354210376739502,0.34783473488716293,15.0,158.0,0.0
G,D,"[5, 8]",1.0,7.0,0.16142797470092773,1.851133108139038,0.5820865311883762,15.0,159.0,0.0
B,L,"[5, 7]",1.0,8.0,0.2654078006744385,1.935351848602295,0.5673775279529323,15.0,160.0,0.0
,,"(6, 6)",,,,,,,,
Y,R,"[6, 7]",0.0,0.0,0.5309569835662842,5.525960922241211,0.5767668386528009,16.0,161.0,0.0
Y,R,"[6, 8]",1.0,1.0,0.26857614517211914,1.6272001266479492,0.27083594592191446,16.0,162.0,0.0
Y,R,"[6, 9]",1.0,2.0,0.2871358394622803,2.1347408294677734,0.7386810410662872,16.0,163.0,0.0
Y,R,"[6, 10]",1.0,3.0,0.2860069274902344,1.834326982498169,0.4566106724957785,16.0,164.0,0.0
R,U,"[5, 10]",1.0,4.0,0.21469402313232422,1.7057769298553467,0.39585046807432345,16.0,165.0,0.0
R,U,"[4, 10]",1.0,5.0,0.31171298027038574,1.6821608543395996,0.2781302093537496,16.0,166.0,0.0
B,L,"[4, 9]",1.0,6.0,0.30345797538757324,1.9511940479278564,0.5623819391481325,16.0,167.0,0.0
B,L,"[4, 8]",0.0,6.0,0.15788602828979492,2.0260891914367676,0.7383531108866104,16.0,168.0,0.0
G,D,"[5, 8]",1.0,7.0,0.1575181484222412,1.5168099403381348,0.25585438303394775,16.0,169.0,0.0
B,L,"[5, 7]",1.0,8.0,0.19207978248596191,1.553642988204956,0.2594237717344933,16.0,170.0,0.0
,,"(6, 6)",,,,,,,,
Y,R,"[6, 7]",0.0,0.0,0.9615561962127686,4.5059850215911865,0.5985029082637516,17.0,171.0,0.0
Y,R,"[6, 8]",1.0,1.0,0.18338608741760254,1.8946499824523926,0.609952468645321,17.0,172.0,0.0
Y,R,"[6, 9]",1.0,2.0,0.16890406608581543,1.6001949310302734,0.3437221790944071,17.0,173.0,0.0
Y,R,"[6, 10]",1.0,3.0,0.20799612998962402,1.8617382049560547,0.5552317484485414,17.0,174.0,0.0
R,U,"[5, 10]",1.0,4.0,0.19539308547973633,1.7407031059265137,0.4462395078846151,17.0,175.0,0.0
R,U,"[4, 10]",1.0,5.0,0.20548796653747559,1.767714023590088,0.4473511838931637,17.0,176.0,0.0
B,L,"[4, 9]",1.0,6.0,0.31576085090637207,1.783931016921997,0.3647256338673509,17.0,177.0,0.0
B,L,"[4, 8]",0.0,6.0,0.23761510848999023,1.7292280197143555,0.3772357949759001,17.0,178.0,0.0
G,D,"[5, 8]",1.0,7.0,0.15523004531860352,1.6202080249786377,0.3642299875498972,17.0,179.0,0.0
G,D,"[6, 8]",0.0,7.0,0.19366002082824707,1.9307148456573486,0.6279774528227007,17.0,180.0,0.0
,,"(6, 6)",,,,,,,,
Y,R,"[6, 7]",0.0,0.0,0.4299461841583252,3.0327389240264893,0.5113443754644538,18.0,181.0,0.0
Y,R,"[6, 8]",1.0,1.0,0.15977215766906738,1.5357530117034912,0.28020767063755697,18.0,182.0,0.0
Y,R,"[6, 9]",1.0,2.0,0.1988201141357422,1.5551950931549072,0.2522036937714006,18.0,183.0,0.0
Y,R,"[6, 10]",1.0,3.0,0.30586695671081543,2.160399913787842,0.7460801503576808,18.0,184.0,0.0
R,U,"[5, 10]",1.0,4.0,0.16202521324157715,1.763396978378296,0.5091368022932348,18.0,185.0,0.0
R,U,"[4, 10]",1.0,5.0,0.196336030960083,1.8016138076782227,0.510814153086453,18.0,186.0,0.0
B,L,"[4, 9]",1.0,6.0,0.25046682357788086,2.023655891418457,0.6843449664723393,18.0,187.0,0.0
G,D,"[5, 9]",0.0,6.0,0.17815589904785156,1.6635499000549316,0.3815343827845106,18.0,188.0,0.0
B,L,"[5, 8]",1.0,7.0,0.30553698539733887,1.9975059032440186,0.5790766240912039,18.0,189.0,0.0
G,D,"[6, 8]",0.0,7.0,0.1962599754333496,1.747244119644165,0.45978959643853845,18.0,190.0,0.0
,,"(6, 6)",,,,,,,,
Y,R,"[6, 7]",0.0,0.0,0.4130687713623047,3.100759983062744,0.593732419318128,19.0,191.0,0.0
Y,R,"[6, 8]",1.0,1.0,0.3394320011138916,2.060157060623169,0.6205565181722758,19.0,192.0,0.0
Y,R,"[6, 9]",1.0,2.0,0.19260215759277344,2.0435540676116943,0.7474592532808748,19.0,193.0,0.0
Y,R,"[6, 10]",1.0,3.0,0.23995399475097656,1.6635539531707764,0.31147772158561093,19.0,194.0,0.0
R,U,"[5, 10]",1.0,4.0,0.24694299697875977,1.8578758239746094,0.5191233999865141,19.0,195.0,0.0
R,U,"[4, 10]",1.0,5.0,0.20167207717895508,1.9743239879608154,0.6766529819253138,19.0,196.0,0.0
B,L,"[4, 9]",1.0,6.0,0.17983603477478027,1.9326369762420654,0.6594487160597173,19.0,197.0,0.0
B,L,"[4, 8]",0.0,6.0,0.18561887741088867,2.004879951477051,0.7308347922968366,19.0,198.0,0.0
B,L,"[4, 7]",0.0,6.0,0.1948850154876709,1.6435999870300293,0.3416429227622941,19.0,199.0,0.0
G,D,"[5, 7]",1.0,7.0,0.311568021774292,2.0274109840393066,0.6188096319779584,19.0,200.0,0.0
,,"(6, 6)",,,,,,,,
Y,R,"[6, 7]",0.0,0.0,0.45551109313964844,3.1322529315948486,0.6178007801393518,20.0,201.0,0.0
Y,R,"[6, 8]",1.0,1.0,0.17313003540039062,1.7236120700836182,0.44165965294399745,20.0,202.0,0.0
Y,R,"[6, 9]",1.0,2.0,0.19548583030700684,1.788757085800171,0.4969339133907402,20.0,203.0,0.0
Y,R,"[6, 10]",1.0,3.0,0.18962788581848145,2.0291850566864014,0.7256050155461966,20.0,204.0,0.0
R,U,"[5, 10]",1.0,4.0,0.19322609901428223,2.0300700664520264,0.7394811968966003,20.0,205.0,0.0
R,U,"[4, 10]",1.0,5.0,0.18170380592346191,1.5534400939941406,0.27651075603271946,20.0,206.0,0.0
B,L,"[4, 9]",1.0,6.0,0.4691140651702881,1.8586900234222412,0.302005651116597,20.0,207.0,0.0
Y,R,"[4, 10]",0.0,6.0,0.26715087890625,1.94632887840271,0.5813988163210033,20.0,208.0,0.0
G,D,"[5, 10]",0.0,6.0,0.21949505805969238,1.666226863861084,0.3479632387734022,20.0,209.0,0.0
B,L,"[5, 9]",0.0,6.0,0.1895899772644043,1.631253957748413,0.32914531444143147,20.0,210.0,0.0
,,"(6, 6)",,,,,,,,
Y,R,"[6, 7]",0.0,0.0,0.4256100654602051,2.7938709259033203,0.2733249253038317,21.0,211.0,0.0
Y,R,"[6, 8]",1.0,1.0,0.19300508499145508,1.548738956451416,0.25550942072493393,21.0,212.0,0.0
Y,R,"[6, 9]",1.0,2.0,0.18513917922973633,1.7082810401916504,0.4302604307549744,21.0,213.0,0.0
Y,R,"[6, 10]",1.0,3.0,0.17462420463562012,1.967560052871704,0.6808630494915897,21.0,214.0,0.0
R,U,"[5, 10]",1.0,4.0,0.11395406723022461,1.822416067123413,0.6034477274206476,21.0,215.0,0.0
R,U,"[4, 10]",1.0,5.0,0.2019491195678711,1.9971859455108643,0.7004757411764333,21.0,216.0,0.0
B,L,"[4, 9]",1.0,6.0,0.22514796257019043,1.7354750633239746,0.4031595113530324,21.0,217.0,0.0
B,L,"[4, 8]",0.0,6.0,0.19606590270996094,1.6263601779937744,0.3294589476948871,21.0,218.0,0.0
G,D,"[5, 8]",1.0,7.0,0.22176814079284668,1.6372120380401611,0.30021830100387736,21.0,219.0,0.0
G,D,"[6, 8]",0.0,7.0,0.24350190162658691,2.098529100418091,0.7482855284228238,21.0,220.0,0.0
,,"(6, 6)",,,,,,,,
Y,R,"[6, 7]",0.0,0.0,0.559971809387207,3.4651570320129395,0.4137788855682758,22.0,221.0,0.0
Y,R,"[6, 8]",1.0,1.0,0.18000102043151855,2.006955146789551,0.7205443523811645,22.0,222.0,0.0
Y,R,"[6, 9]",1.0,2.0,0.16925907135009766,1.7292170524597168,0.46656602844419504,22.0,223.0,0.0
Y,R,"[6, 10]",1.0,3.0,0.18579506874084473,1.898367166519165,0.6149498859802638,22.0,224.0,0.0
R,U,"[5, 10]",-1.0,3.0,0.04413294792175293,5.67249608039856,0.5043815174509287,22.0,225.0,0.0
R,U,"[4, 10]",1.0,4.0,0.2545449733734131,2.0880050659179688,0.7254186685357316,22.0,226.0,0.0
R,U,"[3, 10]",0.0,4.0,0.19831204414367676,2.0335021018981934,0.742273464947935,22.0,227.0,0.0
B,L,"[3, 9]",1.0,5.0,0.23880815505981445,1.9084961414337158,0.5676551268165886,22.0,228.0,0.0
B,L,"[3, 8]",0.0,5.0,0.19533896446228027,1.8700029850006104,0.5710569802708764,22.0,229.0,0.0
G,D,"[4, 8]",0.0,5.0,0.1710798740386963,1.8505628108978271,0.5880610161701727,22.0,230.0,0.0
,,"(6, 6)",,,,,,,,
Y,R,"[6, 7]",0.0,0.0,0.36250901222229004,3.2446720600128174,0.4999533140047263,23.0,231.0,0.0
Y,R,"[6, 8]",1.0,1.0,0.1608128547668457,1.6371660232543945,0.37054583561989757,23.0,232.0,0.0
Y,R,"[6, 9]",1.0,2.0,0.18323016166687012,1.7715489864349365,0.49198252984822655,23.0,233.0,0.0
Y,R,"[6, 10]",1.0,3.0,0.7310810089111328,2.170835018157959,0.3461743654207994,23.0,234.0,0.0
R,U,"[5, 10]",1.0,4.0,0.21713805198669434,1.6606941223144531,0.34031966575961975,23.0,235.0,0.0
R,U,"[4, 10]",1.0,5.0,0.20900893211364746,2.030521869659424,0.7206081558086592,23.0,236.0,0.0
B,L,"[4, 9]",1.0,6.0,0.2562828063964844,2.0215370655059814,0.6421347127845651,23.0,237.0,0.0
G,D,"[5, 9]",0.0,6.0,0.22702288627624512,1.6288669109344482,0.30477875705679747,23.0,238.0,0.0
B,L,"[5, 8]",1.0,7.0,0.2409369945526123,1.6868679523468018,0.34156995087801023,23.0,239.0,0.0
G,D,"[6, 8]",0.0,7.0,0.18844914436340332,1.9915249347686768,0.6994785708057516,23.0,240.0,0.0
,,"(6, 6)",,,,,,,,
Y,R,"[6, 7]",0.0,0.0,0.40308284759521484,2.89546799659729,0.5617907876912744,24.0,241.0,0.0
Y,R,"[6, 8]",1.0,1.0,0.18215084075927734,1.9816758632659912,0.7100453974395096,24.0,242.0,0.0
Y,R,"[6, 9]",1.0,2.0,0.15796279907226562,1.6997277736663818,0.44336082446467384,24.0,243.0,0.0
Y,R,"[6, 10]",1.0,3.0,0.22986793518066406,1.8456828594207764,0.5223994248543965,24.0,244.0,0.0
R,U,"[5, 10]",1.0,4.0,0.1581430435180664,1.6270151138305664,0.36617755723905554,24.0,245.0,0.0
R,U,"[4, 10]",1.0,5.0,0.18572998046875,1.872941017150879,0.5889786377702149,24.0,246.0,0.0
B,L,"[4, 9]",1.0,6.0,0.23308610916137695,1.8200609683990479,0.4924329888417531,24.0,247.0,0.0
R,U,"[3, 9]",1.0,7.0,0.19260501861572266,1.8275530338287354,0.5534426374848036,24.0,248.0,0.0
B,L,"[3, 8]",-2.0,7.0,1.8720929622650146,3.5206151008605957,0.6239871638127518,24.0,249.0,0.0
B,L,"[3, 7]",0.0,7.0,0.2755858898162842,1.676671028137207,0.3009085602879617,24.0,250.0,0.0
,,"(6, 6)",,,,,,,,
Y,R,"[6, 7]",0.0,0.0,0.47811388969421387,3.1642978191375732,0.49850201854311366,25.0,251.0,0.0
Y,R,"[6, 8]",1.0,1.0,0.18628692626953125,1.9324450492858887,0.6475658973420491,25.0,252.0,0.0
Y,R,"[6, 9]",1.0,2.0,0.18364191055297852,1.9256291389465332,0.6396372035840724,25.0,253.0,0.0
Y,R,"[6, 10]",1.0,3.0,0.16801214218139648,1.693087100982666,0.4331541888975225,25.0,254.0,0.0
R,U,"[5, 10]",1.0,4.0,0.18831896781921387,1.9579401016235352,0.6576484898139674,25.0,255.0,0.0
R,U,"[4, 10]",1.0,5.0,0.3000619411468506,1.659757137298584,0.2677328437935831,25.0,256.0,0.0
B,L,"[4, 9]",1.0,6.0,0.3064398765563965,1.9653239250183105,0.5494610494850747,25.0,257.0,0.0
R,U,"[3, 9]",1.0,7.0,0.23067188262939453,1.770258903503418,0.43657744739783044,25.0,258.0,0.0
B,L,"[3, 8]",0.0,7.0,0.2694070339202881,2.039134979248047,0.6753389446762577,25.0,259.0,0.0
G,D,"[4, 8]",0.0,7.0,0.34183502197265625,1.8556489944458008,0.414792133463154,25.0,260.0,0.0
,,"(6, 6)",,,,,,,,
Y,R,"[6, 7]",0.0,0.0,0.6183269023895264,2.686239004135132,0.3678936407712744,26.0,261.0,0.0
Y,R,"[6, 8]",1.0,1.0,0.17681193351745605,1.622236967086792,0.3400290145642484,26.0,262.0,0.0
Y,R,"[6, 9]",1.0,2.0,0.16349387168884277,1.589942216873169,0.33000311764506246,26.0,263.0,0.0
Y,R,"[6, 10]",1.0,3.0,0.17357301712036133,1.9510478973388672,0.6641616788563698,26.0,264.0,0.0
R,U,"[5, 10]",1.0,4.0,0.18659710884094238,1.6944868564605713,0.4089250134769024,26.0,265.0,0.0
R,U,"[4, 10]",1.0,5.0,0.18641090393066406,1.7796759605407715,0.5051429434194497,26.0,266.0,0.0
B,L,"[4, 9]",1.0,6.0,0.28099799156188965,1.8069181442260742,0.42883812042319147,26.0,267.0,0.0
R,U,"[3, 9]",1.0,7.0,0.22248387336730957,1.8450441360473633,0.5237844999065613,26.0,268.0,0.0
G,D,"[4, 9]",0.0,7.0,0.20723295211791992,1.6112689971923828,0.30208540642244386,26.0,269.0,0.0
G,D,"[5, 9]",0.0,7.0,0.30555105209350586,1.8720149993896484,0.44066028983769734,26.0,270.0,0.0
,,"(6, 6)",,,,,,,,
Y,R,"[6, 7]",0.0,0.0,0.40097904205322266,2.992668867111206,0.749746494153009,27.0,271.0,0.0
Y,R,"[6, 8]",1.0,1.0,0.1742839813232422,1.9507908821105957,0.6673191775481412,27.0,272.0,0.0
Y,R,"[6, 9]",1.0,2.0,0.20111489295959473,1.995741844177246,0.696330304572196,27.0,273.0,0.0
Y,R,"[6, 10]",1.0,3.0,0.1782088279724121,1.6678309440612793,0.38117440548507514,27.0,274.0,0.0
R,U,"[5, 10]",1.0,4.0,0.2158679962158203,1.8855531215667725,0.5665753004365788,27.0,275.0,0.0
R,U,"[4, 10]",1.0,5.0,0.17027020454406738,1.6033070087432861,0.3369225197732705,27.0,276.0,0.0
B,L,"[4, 9]",1.0,6.0,0.19951319694519043,1.6585149765014648,0.3621864777601935,27.0,277.0,0.0
R,U,"[3, 9]",1.0,7.0,0.22146296501159668,1.695849895477295,0.39111028947093657,27.0,278.0,0.0
B,L,"[3, 8]",0.0,7.0,0.19153094291687012,1.9969229698181152,0.7043862736313129,27.0,279.0,0.0
G,D,"[4, 8]",0.0,7.0,0.197922945022583,1.6519300937652588,0.35682056830472486,27.0,280.0,0.0
,,"(6, 6)",,,,,,,,
Y,R,"[6, 7]",0.0,0.0,0.4404771327972412,3.379854917526245,0.6696970670932467,28.0,281.0,0.0
Y,R,"[6, 8]",1.0,1.0,0.151414155960083,1.8745310306549072,0.6275517688283658,28.0,282.0,0.0
Y,R,"[6, 9]",1.0,2.0,0.18477988243103027,1.5639779567718506,0.29204160197145157,28.0,283.0,0.0
Y,R,"[6, 10]",1.0,3.0,0.24333715438842773,1.9135370254516602,0.5720106324490764,28.0,284.0,0.0
R,U,"[5, 10]",1.0,4.0,0.19574713706970215,1.9197978973388672,0.624992922221863,28.0,285.0,0.0
R,U,"[4, 10]",-1.0,4.0,0.025925159454345703,5.439288854598999,0.2814769954101002,28.0,286.0,0.0
R,U,"[3, 10]",0.0,4.0,0.23505282402038574,1.7608838081359863,0.4256635578584619,28.0,287.0,0.0
B,L,"[3, 9]",1.0,5.0,0.25515198707580566,1.6817879676818848,0.3241391285442976,28.0,288.0,0.0
R,U,"[2, 9]",0.0,5.0,0.5689470767974854,2.147634983062744,0.48823774730603053,28.0,289.0,0.0
B,L,"[2, 8]",0.0,5.0,0.22016596794128418,1.6764209270477295,0.36492544699208906,28.0,290.0,0.0
,,"(6, 6)",,,,,,,,
Y,R,"[6, 7]",0.0,0.0,0.3879539966583252,3.14107084274292,0.6724243802298626,29.0,291.0,0.0
Y,R,"[6, 8]",1.0,1.0,0.1975240707397461,1.9867329597473145,0.6923491708317,29.0,292.0,0.0
Y,R,"[6, 9]",1.0,2.0,0.18421483039855957,1.7864320278167725,0.5125613563188873,29.0,293.0,0.0
Y,R,"[6, 10]",1.0,3.0,0.1901710033416748,1.8055498600006104,0.518049571473667,29.0,294.0,0.0
R,U,"[5, 10]",1.0,4.0,0.18654084205627441,1.964792013168335,0.6826067840316948,29.0,295.0,0.0
R,U,"[4, 10]",1.0,5.0,0.17479491233825684,2.027446985244751,0.743460305648516,29.0,296.0,0.0
B,L,"[4, 9]",1.0,6.0,0.18601298332214355,1.5761067867279053,0.30329265873682776,29.0,297.0,0.0
R,U,"[3, 9]",1.0,7.0,0.2200779914855957,1.686898946762085,0.3733876404029438,29.0,298.0,0.0
B,L,"[3, 8]",0.0,7.0,0.20363783836364746,1.9245970249176025,0.6309894749115739,29.0,299.0,0.0
G,D,"[4, 8]",0.0,7.0,0.39328598976135254,1.849951982498169,0.3481149916489152,29.0,300.0,0.0
,,"(6, 6)",,,,,,,,
G,D,"[7, 6]",0.0,0.0,0.5349490642547607,3.0283470153808594,0.3930941539849501,30.0,301.0,0.0
Y,R,"[7, 7]",0.0,0.0,0.19290995597839355,1.7295458316802979,0.4391580594016088,30.0,302.0,0.0
Y,R,"[7, 8]",0.0,0.0,0.17597198486328125,1.9151859283447266,0.6376330865345032,30.0,303.0,0.0
Y,R,"[7, 9]",0.0,0.0,0.22458720207214355,1.6128511428833008,0.28427671502878804,30.0,304.0,0.0
R,U,"[6, 9]",1.0,1.0,0.27432894706726074,1.9341800212860107,0.5514676788407766,30.0,305.0,0.0
R,U,"[5, 9]",0.0,1.0,0.17199206352233887,1.9184739589691162,0.6199112656157495,30.0,306.0,0.0
B,L,"[5, 8]",1.0,2.0,0.16947007179260254,1.901366949081421,0.63810312476134,30.0,307.0,0.0
B,L,"[5, 7]",1.0,3.0,0.1775829792022705,1.7703490257263184,0.4918309098249199,30.0,308.0,0.0
B,L,"[5, 6]",1.0,4.0,0.45410704612731934,2.150758981704712,0.6090422400074461,30.0,309.0,0.0
B,L,"[5, 5]",0.0,4.0,0.4471399784088135,1.8373990058898926,0.29682751314778916,30.0,310.0,0.0
,,"(6, 6)",,,,,,,,
Y,R,"[6, 7]",0.0,0.0,0.40961599349975586,3.468484878540039,0.6984451555642377,31.0,311.0,0.0
Y,R,"[6, 8]",1.0,1.0,0.28246188163757324,1.8945050239562988,0.5098611080771415,31.0,312.0,0.0
Y,R,"[6, 9]",1.0,2.0,0.1712360382080078,1.8458681106567383,0.5722697132925529,31.0,313.0,0.0
Y,R,"[6, 10]",1.0,3.0,0.17646503448486328,1.9019591808319092,0.6245570483010661,31.0,314.0,0.0
R,U,"[5, 10]",1.0,4.0,0.20354413986206055,1.6650679111480713,0.3728368729033707,31.0,315.0,0.0
R,U,"[4, 10]",1.0,5.0,0.2867558002471924,1.8879809379577637,0.5107410849431159,31.0,316.0,0.0
B,L,"[4, 9]",1.0,6.0,0.2974669933319092,1.9411051273345947,0.551949493428404,31.0,317.0,0.0
R,U,"[3, 9]",1.0,7.0,0.1876540184020996,1.8108301162719727,0.5126635681537532,31.0,318.0,0.0
B,L,"[3, 8]",-1.0,7.0,0.00598597526550293,5.392679929733276,0.2558043426790028,31.0,319.0,0.0
B,L,"[3, 7]",0.0,7.0,0.2097468376159668,2.0130739212036133,0.7018372749317209,31.0,320.0,0.0
,,"(6, 6)",,,,,,,,
Y,R,"[6, 7]",0.0,0.0,0.42352294921875,3.018359899520874,0.4037207107255688,32.0,321.0,0.0
Y,R,"[6, 8]",1.0,1.0,0.2128300666809082,2.0279548168182373,0.7146111479779396,32.0,322.0,0.0
Y,R,"[6, 9]",1.0,2.0,0.1585218906402588,1.6991159915924072,0.43088660255447536,32.0,323.0,0.0
Y,R,"[6, 10]",1.0,3.0,0.20937299728393555,1.913661003112793,0.5943072279762807,32.0,324.0,0.0
R,U,"[5, 10]",1.0,4.0,0.23543405532836914,1.8463249206542969,0.5241231011816071,32.0,325.0,0.0
R,U,"[4, 10]",1.0,5.0,0.20174503326416016,1.636066198348999,0.3435932789464813,32.0,326.0,0.0
B,L,"[4, 9]",-2.0,5.0,1.048569917678833,2.3790481090545654,0.306246394792704,32.0,327.0,0.0
B,L,"[4, 8]",0.0,5.0,0.4120349884033203,1.8323838710784912,0.3218778196149395,32.0,328.0,0.0
R,U,"[3, 8]",0.0,5.0,0.2149958610534668,1.797888994216919,0.48640347709491233,32.0,329.0,0.0
Y,R,"[3, 9]",1.0,6.0,0.19582104682922363,1.7882659435272217,0.49121267893904375,32.0,330.0,0.0
,,"(6, 6)",,,,,,,,
Y,R,"[6, 7]",0.0,0.0,0.494675874710083,3.256700038909912,0.3648410570396402,33.0,331.0,0.0
Y,R,"[6, 8]",-1.0,0.0,0.03902292251586914,5.474185943603516,0.305765104053868,33.0,332.0,0.0
Y,R,"[6, 9]",1.0,1.0,0.3144059181213379,1.854161024093628,0.44263507902089194,33.0,333.0,0.0
Y,R,"[6, 10]",1.0,2.0,0.1967628002166748,1.6118080615997314,0.3218722696281188,33.0,334.0,0.0
Y,R,"[6, 11]",0.0,2.0,0.19189000129699707,2.0021719932556152,0.7069530894545968,33.0,335.0,0.0
R,U,"[5, 11]",0.0,2.0,0.3309180736541748,2.0394070148468018,0.6132229329906538,33.0,336.0,0.0
R,U,"[4, 11]",0.0,2.0,0.19296789169311523,1.6857271194458008,0.38255302007254066,33.0,337.0,0.0
Y,R,"[5, 11]",-3.0,2.0,0.595613956451416,2.1515979766845703,0.4506554612058192,33.0,338.0,0.0
B,L,"[5, 10]",1.0,3.0,0.2089838981628418,1.7923791408538818,0.47645192017060267,33.0,339.0,0.0
Y,R,"[5, 11]",0.0,3.0,0.38240814208984375,2.0929980278015137,0.6192591803234881,33.0,340.0,0.0
,,"(6, 6)",,,,,,,,
Y,R,"[6, 7]",0.0,0.0,0.36835598945617676,2.8765177726745605,0.2628906690952434,34.0,341.0,0.0
Y,R,"[6, 8]",1.0,1.0,0.18244194984436035,2.0309770107269287,0.7433330469270408,34.0,342.0,0.0
Y,R,"[6, 9]",1.0,2.0,0.15500307083129883,1.6699471473693848,0.4136624450727918,34.0,343.0,0.0
Y,R,"[6, 10]",1.0,3.0,0.2237710952758789,1.9316740036010742,0.5951775580985643,34.0,344.0,0.0
R,U,"[5, 10]",1.0,4.0,0.1807727813720703,1.9338247776031494,0.662351674362855,34.0,345.0,0.0
R,U,"[4, 10]",1.0,5.0,0.1680300235748291,1.7237629890441895,0.4696317286192428,34.0,346.0,0.0
B,L,"[4, 9]",1.0,6.0,0.22326993942260742,1.6141891479492188,0.28409015710055574,34.0,347.0,0.0
R,U,"[3, 9]",1.0,7.0,0.2575850486755371,1.7756941318511963,0.40955527527730784,34.0,348.0,0.0
B,L,"[3, 8]",0.0,7.0,0.19950509071350098,1.5504250526428223,0.2601342840560294,34.0,349.0,0.0
B,L,"[3, 7]",0.0,7.0,0.28236913681030273,2.075843095779419,0.7022686872978372,34.0,350.0,0.0
,,"(6, 6)",,,,,,,,
Y,R,"[6, 7]",0.0,0.0,0.4478108882904053,2.81906795501709,0.3552497475763294,35.0,351.0,0.0
Y,R,"[6, 8]",1.0,1.0,0.14921092987060547,1.9312238693237305,0.6860572534272492,35.0,352.0,0.0
Y,R,"[6, 9]",1.0,2.0,0.23604512214660645,1.8701560497283936,0.5397520343214242,35.0,353.0,0.0
Y,R,"[6, 10]",1.0,3.0,0.17763090133666992,1.8412210941314697,0.5642698325916528,35.0,354.0,0.0
R,U,"[5, 10]",1.0,4.0,0.20045900344848633,1.7608051300048828,0.45860501606052795,35.0,355.0,0.0
R,U,"[4, 10]",1.0,5.0,0.21569013595581055,2.0287930965423584,0.7203632352863563,35.0,356.0,0.0
B,L,"[4, 9]",1.0,6.0,0.23555302619934082,1.7922849655151367,0.46295592124657237,35.0,357.0,0.0
R,U,"[3, 9]",1.0,7.0,0.17525291442871094,1.857942819595337,0.5707425267344537,35.0,358.0,0.0
Y,R,"[3, 10]",0.0,7.0,0.2720069885253906,1.6749610900878906,0.29608963881499245,35.0,359.0,0.0
B,L,"[3, 9]",0.0,7.0,0.23021888732910156,1.667937994003296,0.3307498396702745,35.0,360.0,0.0
,,"(6, 6)",,,,,,,,
Y,R,"[6, 7]",0.0,0.0,0.4216010570526123,2.818145990371704,0.43219358289413967,36.0,361.0,0.0
Y,R,"[6, 8]",1.0,1.0,0.1708371639251709,1.7663159370422363,0.4985027209084067,36.0,362.0,0.0
Y,R,"[6, 9]",1.0,2.0,0.16046714782714844,1.9251689910888672,0.656775779011942,36.0,363.0,0.0
Y,R,"[6, 10]",1.0,3.0,0.18077802658081055,1.9853129386901855,0.7088171208484608,36.0,364.0,0.0
R,U,"[5, 10]",1.0,4.0,0.1696610450744629,1.821671962738037,0.5637828049277851,36.0,365.0,0.0
R,U,"[4, 10]",1.0,5.0,0.1352238655090332,1.6331419944763184,0.39719183863567914,36.0,366.0,0.0
B,L,"[4, 9]",1.0,6.0,0.24483704566955566,1.8868529796600342,0.5338250294002835,36.0,367.0,0.0
R,U,"[3, 9]",-1.0,6.0,0.09339499473571777,5.6689839363098145,0.4365049262313628,36.0,368.0,0.0
R,U,"[2, 9]",0.0,6.0,0.2471001148223877,1.6552610397338867,0.3085824722673296,36.0,369.0,0.0
Y,R,"[2, 10]",0.0,6.0,0.13717293739318848,1.6465229988098145,0.42150276017351607,36.0,370.0,0.0
,,"(6, 6)",,,,,,,,
Y,R,"[6, 7]",0.0,0.0,0.3590219020843506,3.0004191398620605,0.2888145848224685,37.0,371.0,0.0
Y,R,"[6, 8]",1.0,1.0,0.1653120517730713,1.864861011505127,0.6035160024104709,37.0,372.0,0.0
Y,R,"[6, 9]",-1.0,1.0,0.041481971740722656,5.4253318309783936,0.2624994982698455,37.0,373.0,0.0
Y,R,"[6, 10]",1.0,2.0,0.27404189109802246,1.7562799453735352,0.3851220025518316,37.0,374.0,0.0
Y,R,"[6, 11]",0.0,2.0,0.3315861225128174,2.121387004852295,0.6897301094608035,37.0,375.0,0.0
R,U,"[5, 11]",0.0,2.0,0.17400288581848145,1.6736838817596436,0.397049667828776,37.0,376.0,0.0
B,L,"[5, 10]",1.0,3.0,0.1789250373840332,1.898127794265747,0.6117043338778361,37.0,377.0,0.0
Y,R,"[5, 11]",0.0,3.0,0.24282002449035645,1.8285319805145264,0.4902779283644561,37.0,378.0,0.0
B,L,"[5, 10]",0.0,3.0,0.1921520233154297,1.9152791500091553,0.6222004990884795,37.0,379.0,0.0
G,D,"[6, 10]",0.0,3.0,0.23172712326049805,2.0258541107177734,0.6978848567227642,37.0,380.0,0.0
,,"(6, 6)",,,,,,,,
Y,R,"[6, 7]",0.0,0.0,0.4217050075531006,4.438486099243164,0.40349998992806346,38.0,381.0,0.0
Y,R,"[6, 8]",1.0,1.0,0.16636991500854492,1.7741680145263672,0.5109805451724265,38.0,382.0,0.0
Y,R,"[6, 9]",1.0,2.0,0.17764592170715332,1.8068280220031738,0.5343441875285903,38.0,383.0,0.0
Y,R,"[6, 10]",1.0,3.0,0.19013381004333496,1.5638279914855957,0.26519811192167825,38.0,384.0,0.0
R,U,"[5, 10]",1.0,4.0,0.2213280200958252,1.8364570140838623,0.5013741132954748,38.0,385.0,0.0
R,U,"[4, 10]",1.0,5.0,0.2032630443572998,1.7942979335784912,0.4957232743976474,38.0,386.0,0.0
B,L,"[4, 9]",1.0,6.0,0.2620511054992676,1.76596999168396,0.39524481151680235,38.0,387.0,0.0
Y,R,"[4, 10]",-2.0,6.0,1.214169979095459,2.805126905441284,0.5668694515178518,38.0,388.0,0.0
Y,R,"[4, 11]",0.0,6.0,0.20558500289916992,1.9714508056640625,0.6547657333569388,38.0,389.0,0.0
Y,R,"[4, 10]",-3.0,6.0,0.27448606491088867,1.9606409072875977,0.598861071744468,38.0,390.0,0.0
,,"(6, 6)",,,,,,,,
Y,R,"[6, 7]",0.0,0.0,0.3300960063934326,3.14591383934021,0.5449467052353436,39.0,391.0,0.0
Y,R,"[6, 8]",1.0,1.0,0.18049287796020508,1.9822099208831787,0.7103284021412883,39.0,392.0,0.0
Y,R,"[6, 9]",1.0,2.0,0.2400951385498047,1.9140751361846924,0.5744689144599326,39.0,393.0,0.0
Y,R,"[6, 10]",1.0,3.0,0.22839903831481934,1.802612066268921,0.477414402435748,39.0,394.0,0.0
R,U,"[5, 10]",1.0,4.0,0.33232903480529785,1.976262092590332,0.5535971181421856,39.0,395.0,0.0
R,U,"[4, 10]",1.0,5.0,0.22180604934692383,1.9384870529174805,0.6086620376000831,39.0,396.0,0.0
B,L,"[4, 9]",1.0,6.0,0.29877591133117676,1.6722002029418945,0.2812014348506856,39.0,397.0,0.0
R,U,"[3, 9]",1.0,7.0,0.29952216148376465,2.0618789196014404,0.659501698517311,39.0,398.0,0.0
Y,R,"[3, 10]",0.0,7.0,0.21645116806030273,1.9523389339447021,0.645361729010683,39.0,399.0,0.0
G,D,"[4, 10]",0.0,7.0,0.4957699775695801,1.9250810146331787,0.33717600922862856,39.0,400.0,0.0
,,"(6, 6)",,,,,,,,
B,L,"[6, 5]",0.0,0.0,0.8478140830993652,3.1467819213867188,0.6338277907861376,40.0,401.0,0.0
Y,R,"[6, 6]",0.0,0.0,0.17742395401000977,1.815507173538208,0.5327828723998302,40.0,402.0,0.0
Y,R,"[6, 7]",0.0,0.0,0.17991209030151367,1.7472431659698486,0.46330017641014587,40.0,403.0,0.0
Y,R,"[6, 8]",1.0,1.0,0.16605806350708008,1.9209399223327637,0.6507530837798006,40.0,404.0,0.0
Y,R,"[6, 9]",1.0,2.0,0.21547985076904297,1.9034199714660645,0.5876186673252044,40.0,405.0,0.0
Y,R,"[6, 10]",1.0,3.0,0.30500102043151855,2.1368980407714844,0.7244476795196007,40.0,406.0,0.0
R,U,"[5, 10]",1.0,4.0,0.18222308158874512,1.8253889083862305,0.5500489243519076,40.0,407.0,0.0
R,U,"[4, 10]",1.0,5.0,0.18781614303588867,1.9825778007507324,0.6991538005817572,40.0,408.0,0.0
B,L,"[4, 9]",1.0,6.0,0.3025970458984375,1.6541810035705566,0.2537582224570332,40.0,409.0,0.0
R,U,"[3, 9]",1.0,7.0,0.4933300018310547,2.043623208999634,0.44721219860082917,40.0,410.0,0.0
,,"(6, 6)",,,,,,,,
Y,R,"[6, 7]",-2.0,0.0,1.8262898921966553,4.992825031280518,0.5067891941757142,41.0,411.0,0.0
Y,R,"[6, 8]",1.0,1.0,0.2664980888366699,1.9693071842193604,0.6093362451765381,41.0,412.0,0.0
Y,R,"[6, 9]",1.0,2.0,0.18511199951171875,1.6667330265045166,0.39295187229006906,41.0,413.0,0.0
Y,R,"[6, 10]",1.0,3.0,0.19126009941101074,1.5689799785614014,0.2786214022115382,41.0,414.0,0.0
R,U,"[5, 10]",1.0,4.0,0.5207870006561279,2.1156699657440186,0.5108173978691128,41.0,415.0,0.0
R,U,"[4, 10]",1.0,5.0,0.1594409942626953,1.8284029960632324,0.5724628530198932,41.0,416.0,0.0
B,L,"[4, 9]",-1.0,5.0,0.09702301025390625,5.873469829559326,0.6459590812806048,41.0,417.0,0.0
B,L,"[4, 8]",0.0,5.0,0.2650110721588135,1.6362040042877197,0.2658062635882093,41.0,418.0,0.0
R,U,"[3, 8]",0.0,5.0,0.23927807807922363,1.6681160926818848,0.317289133876315,41.0,419.0,0.0
Y,R,"[3, 9]",1.0,6.0,0.22880291938781738,1.6905651092529297,0.3578131799830923,41.0,420.0,0.0
,,"(6, 6)",,,,,,,,
Y,R,"[6, 7]",0.0,0.0,0.42624402046203613,3.0785539150238037,0.4196548511402348,42.0,421.0,0.0
Y,R,"[6, 8]",1.0,1.0,0.15427803993225098,1.865178108215332,0.6014458909286043,42.0,422.0,0.0
Y,R,"[6, 9]",1.0,2.0,0.1774158477783203,1.706468105316162,0.4248400296955374,42.0,423.0,0.0
Y,R,"[6, 10]",1.0,3.0,0.16872119903564453,1.5912659168243408,0.3327676148203751,42.0,424.0,0.0
R,U,"[5, 10]",1.0,4.0,0.16707086563110352,1.5242128372192383,0.2570548972785624,42.0,425.0,0.0
R,U,"[4, 10]",1.0,5.0,0.1908891201019287,1.8792600631713867,0.5860654179649485,42.0,426.0,0.0
B,L,"[4, 9]",1.0,6.0,0.19389915466308594,1.7370259761810303,0.43983872006322444,42.0,427.0,0.0
R,U,"[3, 9]",1.0,7.0,0.24381709098815918,1.8683979511260986,0.5247269974938367,42.0,428.0,0.0
Y,R,"[3, 10]",0.0,7.0,0.5410258769989014,2.0631141662597656,0.4213525585862759,42.0,429.0,0.0
G,D,"[4, 10]",0.0,7.0,0.2658500671386719,2.109668016433716,0.7474639831051557,42.0,430.0,0.0
,,"(6, 6)",,,,,,,,
Y,R,"[6, 7]",0.0,0.0,0.39183497428894043,2.677070140838623,0.2585011961593616,43.0,431.0,0.0
Y,R,"[6, 8]",1.0,1.0,0.16225790977478027,1.954754114151001,0.6960486981051369,43.0,432.0,0.0
Y,R,"[6, 9]",1.0,2.0,0.19882702827453613,1.9499402046203613,0.6461019233786267,43.0,433.0,0.0
Y,R,"[6, 10]",1.0,3.0,0.16924691200256348,1.9531080722808838,0.6824951395232381,43.0,434.0,0.0
R,U,"[5, 10]",1.0,4.0,0.21093988418579102,2.0143401622772217,0.6968163600315851,43.0,435.0,0.0
R,U,"[4, 10]",1.0,5.0,0.17505192756652832,1.715946912765503,0.4298173191539155,43.0,436.0,0.0
B,L,"[4, 9]",1.0,6.0,0.2346799373626709,1.936065912246704,0.5991097236670377,43.0,437.0,0.0
R,U,"[3, 9]",1.0,7.0,0.27315783500671387,2.0627551078796387,0.6783577356937923,43.0,438.0,0.0
G,D,"[4, 9]",0.0,7.0,0.35924315452575684,1.781757116317749,0.3271595493122539,43.0,439.0,0.0
G,D,"[5, 9]",-2.0,7.0,1.055069923400879,2.8348441123962402,0.7449045174764812,43.0,440.0,0.0
,,"(6, 6)",,,,,,,,
Y,R,"[6, 7]",0.0,0.0,0.36054205894470215,2.972249984741211,0.5009450417928454,44.0,441.0,0.0
Y,R,"[6, 8]",1.0,1.0,0.17181801795959473,1.6879980564117432,0.40579184497923604,44.0,442.0,0.0
Y,R,"[6, 9]",1.0,2.0,0.18345093727111816,1.6917688846588135,0.414039662835579,44.0,443.0,0.0
Y,R,"[6, 10]",1.0,3.0,0.24944090843200684,1.6619820594787598,0.3094893420285235,44.0,444.0,0.0
R,U,"[5, 10]",1.0,4.0,0.24244213104248047,1.804711103439331,0.46393090942445053,44.0,445.0,0.0
R,U,"[4, 10]",-1.0,4.0,0.08984589576721191,5.690160036087036,0.45436630448355125,44.0,446.0,0.0
R,U,"[3, 10]",0.0,4.0,0.2273120880126953,1.9813549518585205,0.6522245896440261,44.0,447.0,0.0
B,L,"[3, 9]",1.0,5.0,0.19652104377746582,1.738853931427002,0.4413059011971675,44.0,448.0,0.0
R,U,"[2, 9]",0.0,5.0,0.33922505378723145,2.1399199962615967,0.6975137185213773,44.0,449.0,0.0
B,L,"[2, 8]",0.0,5.0,0.16715598106384277,1.8562190532684326,0.5871671655610532,44.0,450.0,0.0
,,"(6, 6)",,,,,,,,
Y,R,"[6, 7]",0.0,0.0,0.36788201332092285,2.8551881313323975,0.42591416547115934,45.0,451.0,0.0
Y,R,"[6, 8]",1.0,1.0,0.18069100379943848,1.5305919647216797,0.2567382289702362,45.0,452.0,0.0
Y,R,"[6, 9]",1.0,2.0,0.3023412227630615,2.1066410541534424,0.7128978224668492,45.0,453.0,0.0
Y,R,"[6, 10]",1.0,3.0,0.18036890029907227,1.7543470859527588,0.4674048209118417,45.0,454.0,0.0
R,U,"[5, 10]",1.0,4.0,0.20712494850158691,1.5724849700927734,0.2735424309829362,45.0,455.0,0.0
R,U,"[4, 10]",1.0,5.0,0.24715280532836914,1.934164047241211,0.5910908843992111,45.0,456.0,0.0
B,L,"[4, 9]",1.0,6.0,0.1558690071105957,1.8178339004516602,0.5585260232349957,45.0,457.0,0.0
R,U,"[3, 9]",1.0,7.0,0.5141100883483887,2.290318012237549,0.6822139522181405,45.0,458.0,0.0
B,L,"[3, 8]",0.0,7.0,0.22916197776794434,1.7325620651245117,0.39838413998877215,45.0,459.0,0.0
B,L,"[3, 7]",0.0,7.0,0.22582006454467773,1.6800270080566406,0.3451898388284496,45.0,460.0,0.0
,,"(6, 6)",,,,,,,,
Y,R,"[6, 7]",0.0,0.0,0.38008809089660645,3.0411651134490967,0.63603596679419,46.0,461.0,0.0
Y,R,"[6, 8]",-1.0,0.0,0.0844581127166748,5.625744819641113,0.4121126607708618,46.0,462.0,0.0
Y,R,"[6, 9]",1.0,1.0,0.27399492263793945,1.6426830291748047,0.2716160638585131,46.0,463.0,0.0
Y,R,"[6, 10]",1.0,2.0,0.3280518054962158,2.1622400283813477,0.7334701138645385,46.0,464.0,0.0
Y,R,"[6, 11]",0.0,2.0,0.16829991340637207,1.5852880477905273,0.31908590348155397,46.0,465.0,0.0
R,U,"[5, 11]",0.0,2.0,0.19504880905151367,2.001842975616455,0.7040520511593726,46.0,466.0,0.0
R,U,"[4, 11]",0.0,2.0,0.20485901832580566,2.0298919677734375,0.7171720974814761,46.0,467.0,0.0
B,L,"[4, 10]",1.0,3.0,0.19472813606262207,1.744791030883789,0.4456013538226099,46.0,468.0,0.0
R,U,"[3, 10]",0.0,3.0,0.17473888397216797,1.7257351875305176,0.45462241034836093,46.0,469.0,0.0
G,D,"[4, 10]",0.0,3.0,0.25974607467651367,1.8705558776855469,0.50855941779162,46.0,470.0,0.0
,,"(6, 6)",,,,,,,,
Y,R,"[6, 7]",0.0,0.0,0.5796551704406738,3.133729934692383,0.25922429845742073,47.0,471.0,0.0
Y,R,"[6, 8]",1.0,1.0,0.1847820281982422,1.5859081745147705,0.3117178602347548,47.0,472.0,0.0
Y,R,"[6, 9]",1.0,2.0,0.3230898380279541,1.7556469440460205,0.3340210319751929,47.0,473.0,0.0
Y,R,"[6, 10]",1.0,3.0,0.3513979911804199,1.7177319526672363,0.267989056295086,47.0,474.0,0.0
R,U,"[5, 10]",1.0,4.0,0.18214011192321777,1.6612930297851562,0.379714359421236,47.0,475.0,0.0
R,U,"[4, 10]",1.0,5.0,0.2623269557952881,2.0900638103485107,0.719486390996403,47.0,476.0,0.0
B,L,"[4, 9]",1.0,6.0,0.17425799369812012,1.9891979694366455,0.7086401625620911,47.0,477.0,0.0
R,U,"[3, 9]",1.0,7.0,0.2755711078643799,1.6818859577178955,0.3075540983686548,47.0,478.0,0.0
B,L,"[3, 8]",-2.0,7.0,1.1005730628967285,2.5141079425811768,0.38841280938330885,47.0,479.0,0.0
B,L,"[3, 7]",0.0,7.0,0.17488718032836914,1.5973210334777832,0.31907339780975086,47.0,480.0,0.0
,,"(6, 6)",,,,,,,,
Y,R,"[6, 7]",0.0,0.0,0.3883078098297119,3.0447680950164795,0.5471041493510752,48.0,481.0,0.0
Y,R,"[6, 8]",1.0,1.0,0.19394993782043457,1.9417080879211426,0.6384447410821698,48.0,482.0,0.0
Y,R,"[6, 9]",1.0,2.0,0.2147829532623291,1.892937183380127,0.5817594870849303,48.0,483.0,0.0
Y,R,"[6, 10]",1.0,3.0,0.1767129898071289,2.0195629596710205,0.7345237603848944,48.0,484.0,0.0
R,U,"[5, 10]",1.0,4.0,0.1654350757598877,1.7087929248809814,0.4435494004472072,48.0,485.0,0.0
R,U,"[4, 10]",1.0,5.0,0.19121003150939941,1.6240119934082031,0.3344035963379689,48.0,486.0,0.0
B,L,"[4, 9]",1.0,6.0,0.2732539176940918,1.661578893661499,0.2959695469488287,48.0,487.0,0.0
R,U,"[3, 9]",1.0,7.0,0.19118690490722656,1.898590087890625,0.610772016147079,48.0,488.0,0.0
Y,R,"[3, 10]",0.0,7.0,0.7371480464935303,2.2025911808013916,0.38053939026033223,48.0,489.0,0.0
Y,R,"[3, 11]",-2.0,7.0,1.3277380466461182,2.659122943878174,0.2898064004500953,48.0,490.0,0.0
,,"(6, 6)",,,,,,,,
Y,R,"[6, 7]",0.0,0.0,0.3723411560058594,3.4004299640655518,0.44004350294128275,49.0,491.0,0.0
Y,R,"[6, 8]",1.0,1.0,0.1690361499786377,1.7348291873931885,0.4747607676699762,49.0,492.0,0.0
Y,R,"[6, 9]",-1.0,1.0,0.08865690231323242,5.625280857086182,0.41692943392301285,49.0,493.0,0.0
Y,R,"[6, 10]",1.0,2.0,0.21135497093200684,1.9489068984985352,0.6323835919586952,49.0,494.0,0.0
Y,R,"[6, 11]",0.0,2.0,0.2526249885559082,1.9999089241027832,0.6488568626090121,49.0,495.0,0.0
R,U,"[5, 11]",0.0,2.0,0.20567083358764648,1.616840124130249,0.2993991188651568,49.0,496.0,0.0
R,U,"[4, 11]",0.0,2.0,0.2358379364013672,2.0715510845184326,0.7371678459666657,49.0,497.0,0.0
B,L,"[4, 10]",1.0,3.0,0.2170419692993164,1.6774921417236328,0.36515989546094496,49.0,498.0,0.0
B,L,"[4, 9]",1.0,4.0,0.3909871578216553,2.0476760864257812,0.5460264710198501,49.0,499.0,0.0
G,D,"[5, 9]",0.0,4.0,0.2582278251647949,1.91770601272583,0.5636107731890294,49.0,500.0,0.0
,,"(6, 6)",,,,,,,,
Y,R,"[6, 7]",0.0,0.0,0.4145958423614502,2.7660741806030273,0.26337122102207483,50.0,501.0,0.0
Y,R,"[6, 8]",1.0,1.0,0.17695093154907227,1.7509651184082031,0.4641201096969331,50.0,502.0,0.0
Y,R,"[6, 9]",1.0,2.0,0.15295100212097168,1.7518470287322998,0.4993624161906513,50.0,503.0,0.0
Y,R,"[6, 10]",1.0,3.0,0.15596699714660645,1.6906299591064453,0.4231111951907787,50.0,504.0,0.0
R,U,"[5, 10]",1.0,4.0,0.17667388916015625,1.9271900653839111,0.6503171192525516,50.0,505.0,0.0
R,U,"[4, 10]",1.0,5.0,0.21944904327392578,2.0033838748931885,0.6870130098330046,50.0,506.0,0.0
B,L,"[4, 9]",1.0,6.0,0.18127989768981934,1.991908073425293,0.7122871119675223,50.0,507.0,0.0
R,U,"[3, 9]",1.0,7.0,0.20126914978027344,1.9561121463775635,0.6352678472793384,50.0,508.0,0.0
Y,R,"[3, 10]",0.0,7.0,0.200577974319458,1.5530779361724854,0.2553050475934713,50.0,509.0,0.0
Y,R,"[3, 11]",0.0,7.0,0.3485751152038574,2.0440778732299805,0.599148648203133,50.0,510.0,0.0
,,"(6, 6)",,,,,,,,
R,U,"[5, 6]",1.0,1.0,0.533653974533081,2.7197670936584473,0.36906488156616307,51.0,511.0,0.0
Y,R,"[5, 7]",1.0,2.0,0.17435908317565918,1.5773088932037354,0.29640868959298655,51.0,512.0,0.0
Y,R,"[5, 8]",1.0,3.0,0.1908879280090332,1.718372106552124,0.41470773283327367,51.0,513.0,0.0
Y,R,"[5, 9]",0.0,3.0,0.18639779090881348,1.9155809879302979,0.6135885780532899,51.0,514.0,0.0
R,U,"[4, 9]",1.0,4.0,0.2327718734741211,1.6877250671386719,0.35142124641154393,51.0,515.0,0.0
R,U,"[3, 9]",1.0,5.0,0.18644118309020996,1.8883330821990967,0.6062124499069625,51.0,516.0,0.0
B,L,"[3, 8]",0.0,5.0,0.18244099617004395,1.615422010421753,0.33871121555216344,51.0,517.0,0.0
G,D,"[4, 8]",0.0,5.0,0.20539498329162598,2.0404489040374756,0.7287974369737934,51.0,518.0,0.0
R,U,"[3, 8]",0.0,5.0,0.28230905532836914,1.782292127609253,0.41143593012362073,51.0,519.0,0.0
R,U,"[2, 8]",0.0,5.0,0.3483140468597412,2.116102933883667,0.6771271667090044,51.0,520.0,0.0
,,"(6, 6)",,,,,,,,
R,U,"[5, 6]",1.0,1.0,0.3176698684692383,3.256316900253296,0.7167613832767942,52.0,521.0,0.0
R,U,"[4, 6]",0.0,1.0,0.3737671375274658,2.1167678833007812,0.6335982462854244,52.0,522.0,0.0
Y,R,"[4, 7]",0.0,1.0,0.16741204261779785,1.7636749744415283,0.49757491700997575,52.0,523.0,0.0
Y,R,"[4, 8]",0.0,1.0,0.19971489906311035,1.661055088043213,0.3588262362154202,52.0,524.0,0.0
B,L,"[4, 7]",0.0,1.0,0.2176041603088379,1.669456958770752,0.36155718036163437,52.0,525.0,0.0
G,D,"[5, 7]",1.0,2.0,0.18609905242919922,1.8623628616333008,0.5906136125187084,52.0,526.0,0.0
G,D,"[6, 7]",0.0,2.0,0.2055799961090088,1.8104948997497559,0.5010003238798064,52.0,527.0,0.0
R,U,"[5, 7]",0.0,2.0,0.19587993621826172,1.5878047943115234,0.2890275151789815,52.0,528.0,0.0
B,L,"[5, 6]",0.0,2.0,0.2797861099243164,1.8233609199523926,0.4455317449434171,52.0,529.0,0.0
Y,R,"[5, 7]",0.0,2.0,0.14998698234558105,1.886199951171875,0.6485696214442715,52.0,530.0,0.0
,,"(6, 6)",,,,,,,,
R,U,"[5, 6]",1.0,1.0,0.8798971176147461,3.9137771129608154,0.7453449464784115,53.0,531.0,0.0
Y,R,"[5, 7]",1.0,2.0,0.27420496940612793,1.8533039093017578,0.48220101560334494,53.0,532.0,0.0
Y,R,"[5, 8]",1.0,3.0,0.21256089210510254,1.8924012184143066,0.5746388662012594,53.0,533.0,0.0
Y,R,"[5, 9]",0.0,3.0,0.23082709312438965,1.8735320568084717,0.5480918160022015,53.0,534.0,0.0
R,U,"[4, 9]",1.0,4.0,0.21209311485290527,1.7858080863952637,0.46741947653732707,53.0,535.0,0.0
R,U,"[3, 9]",1.0,5.0,0.3707549571990967,1.8117499351501465,0.34602379062511257,53.0,536.0,0.0
B,L,"[3, 8]",0.0,5.0,0.21998310089111328,2.055227041244507,0.7174112694735975,53.0,537.0,0.0
G,D,"[4, 8]",0.0,5.0,0.17331218719482422,1.983273983001709,0.7008418941257162,53.0,538.0,0.0
R,U,"[3, 8]",0.0,5.0,0.14915108680725098,1.5058238506317139,0.25707785031577085,53.0,539.0,0.0
B,L,"[3, 7]",0.0,5.0,0.19721293449401855,1.8364310264587402,0.5432326797891303,53.0,540.0,0.0
,,"(6, 6)",,,,,,,,
R,U,"[5, 6]",1.0,1.0,0.6054580211639404,3.0602829456329346,0.33703638418477755,54.0,541.0,0.0
Y,R,"[5, 7]",1.0,2.0,0.1840498447418213,2.0271589756011963,0.7471706589946463,54.0,542.0,0.0
Y,R,"[5, 8]",1.0,3.0,0.2020869255065918,1.570281982421875,0.2679507960917043,54.0,543.0,0.0
R,U,"[4, 8]",0.0,3.0,0.27612805366516113,1.7333199977874756,0.3511518704109907,54.0,544.0,0.0
R,U,"[3, 8]",0.0,3.0,0.15994596481323242,2.0051660537719727,0.7396438359007491,54.0,545.0,0.0
B,L,"[3, 7]",0.0,3.0,0.18423104286193848,1.910930871963501,0.6336124560360101,54.0,546.0,0.0
Y,R,"[3, 8]",0.0,3.0,0.14550185203552246,1.6423239707946777,0.3929274830403285,54.0,547.0,0.0
G,D,"[4, 8]",0.0,3.0,0.1992030143737793,1.7782330513000488,0.487752742900261,54.0,548.0,0.0
R,U,"[3, 8]",0.0,3.0,0.17545199394226074,1.8399550914764404,0.561075281586645,54.0,549.0,0.0
R,U,"[2, 8]",0.0,3.0,0.1485118865966797,1.6210620403289795,0.38237274677326444,54.0,550.0,0.0
,,"(6, 6)",,,,,,,,
Y,R,"[6, 7]",0.0,0.0,0.5260570049285889,3.4257190227508545,0.7077027637231376,55.0,551.0,0.0
Y,R,"[6, 8]",1.0,1.0,0.15898394584655762,1.8678150177001953,0.6089503308360432,55.0,552.0,0.0
Y,R,"[6, 9]",1.0,2.0,0.1822819709777832,1.7465381622314453,0.472362913770919,55.0,553.0,0.0
Y,R,"[6, 10]",1.0,3.0,0.27735400199890137,2.0196220874786377,0.6417399674998059,55.0,554.0,0.0
R,U,"[5, 10]",1.0,4.0,0.13671302795410156,1.9678151607513428,0.7431056533791003,55.0,555.0,0.0
R,U,"[4, 10]",1.0,5.0,0.18123412132263184,1.973949909210205,0.700675727711352,55.0,556.0,0.0
B,L,"[4, 9]",1.0,6.0,0.16985702514648438,1.9143359661102295,0.6479389988954241,55.0,557.0,0.0
R,U,"[3, 9]",1.0,7.0,0.2002270221710205,1.6171319484710693,0.31545809235566363,55.0,558.0,0.0
R,U,"[2, 9]",0.0,7.0,0.21357011795043945,1.8209600448608398,0.5028482848105345,55.0,559.0,0.0
B,L,"[2, 8]",0.0,7.0,0.17899107933044434,1.9930028915405273,0.712363364678684,55.0,560.0,0.0
,,"(6, 6)",,,,,,,,
Y,R,"[6, 7]",0.0,0.0,0.4301600456237793,2.6103830337524414,0.27319895306645536,56.0,561.0,0.0
Y,R,"[6, 8]",1.0,1.0,0.14829802513122559,1.5366411209106445,0.2931345493485175,56.0,562.0,0.0
Y,R,"[6, 9]",1.0,2.0,0.19086909294128418,1.9704968929290771,0.6799615706637107,56.0,563.0,0.0
Y,R,"[6, 10]",1.0,3.0,0.3065469264984131,2.1032299995422363,0.6832339643543052,56.0,564.0,0.0
R,U,"[5, 10]",1.0,4.0,0.213759183883667,1.750770092010498,0.4341939178475777,56.0,565.0,0.0
R,U,"[4, 10]",1.0,5.0,0.18080806732177734,1.7172541618347168,0.4349819614540754,56.0,566.0,0.0
B,L,"[4, 9]",1.0,6.0,0.21137309074401855,1.7101490497589111,0.3950491295435213,56.0,567.0,0.0
B,L,"[4, 8]",0.0,6.0,0.2391340732574463,1.6991472244262695,0.36103484646110473,56.0,568.0,0.0
R,U,"[3, 8]",0.0,6.0,0.24061298370361328,1.9194600582122803,0.580290132377709,56.0,569.0,0.0
B,L,"[3, 7]",0.0,6.0,0.21095991134643555,1.9874699115753174,0.6675614452379454,56.0,570.0,0.0
,,"(6, 6)",,,,,,,,
Y,R,"[6, 7]",0.0,0.0,0.417133092880249,3.334480047225952,0.6687633813907785,57.0,571.0,0.0
Y,R,"[6, 8]",1.0,1.0,0.17346906661987305,1.689544916152954,0.40860079743510697,57.0,572.0,0.0
Y,R,"[6, 9]",1.0,2.0,0.17918181419372559,1.752012014389038,0.47722701338386836,57.0,573.0,0.0
Y,R,"[6, 10]",1.0,3.0,0.16517400741577148,1.7257440090179443,0.4697810321164336,57.0,574.0,0.0
R,U,"[5, 10]",1.0,4.0,0.16694211959838867,1.5393421649932861,0.27586522804306074,57.0,575.0,0.0
R,U,"[4, 10]",1.0,5.0,0.17858314514160156,1.7307939529418945,0.4565229055544907,57.0,576.0,0.0
B,L,"[4, 9]",1.0,6.0,0.17430400848388672,1.6134779453277588,0.33667606302769404,57.0,577.0,0.0
R,U,"[3, 9]",1.0,7.0,0.2023940086364746,1.7854111194610596,0.4887336293893581,57.0,578.0,0.0
B,L,"[3, 8]",0.0,7.0,0.6024391651153564,2.018918037414551,0.32438835484419243,57.0,579.0,0.0
B,L,"[3, 7]",0.0,7.0,0.2700989246368408,1.897679090499878,0.538207109321984,57.0,580.0,0.0
,,"(6, 6)",,,,,,,,
Y,R,"[6, 7]",0.0,0.0,0.38501691818237305,2.717083215713501,0.47256403930166435,58.0,581.0,0.0
Y,R,"[6, 8]",-1.0,0.0,0.055658817291259766,5.6851489543914795,0.5077303709123813,58.0,582.0,0.0
Y,R,"[6, 9]",1.0,1.0,0.20624709129333496,1.9083468914031982,0.5993145299357594,58.0,583.0,0.0
Y,R,"[6, 10]",1.0,2.0,0.25493407249450684,1.7407338619232178,0.3902819332994173,58.0,584.0,0.0
Y,R,"[6, 11]",0.0,2.0,0.27350497245788574,2.042235851287842,0.6656385181597042,58.0,585.0,0.0
R,U,"[5, 11]",0.0,2.0,0.14846014976501465,1.538336992263794,0.28763273596467465,58.0,586.0,0.0
R,U,"[4, 11]",0.0,2.0,0.19794607162475586,1.6402530670166016,0.3445033702062899,58.0,587.0,0.0
B,L,"[4, 10]",1.0,3.0,0.22590208053588867,1.590550184249878,0.268573108279337,58.0,588.0,0.0
B,L,"[4, 9]",1.0,4.0,0.24894404411315918,1.8950450420379639,0.5465241927729576,58.0,589.0,0.0
Y,R,"[4, 10]",0.0,4.0,0.20313310623168945,1.9830479621887207,0.6796395688327703,58.0,590.0,0.0
,,"(6, 6)",,,,,,,,
Y,R,"[6, 7]",0.0,0.0,0.43343615531921387,3.1125190258026123,0.5256463831798963,59.0,591.0,0.0
Y,R,"[6, 8]",1.0,1.0,0.34786510467529297,1.9708499908447266,0.5298514369353599,59.0,592.0,0.0
Y,R,"[6, 9]",1.0,2.0,0.166579008102417,1.6671509742736816,0.3971286810547705,59.0,593.0,0.0
Y,R,"[6, 10]",1.0,3.0,0.17405295372009277,1.8221089839935303,0.5357623747746887,59.0,594.0,0.0
R,U,"[5, 10]",1.0,4.0,0.1895439624786377,1.7794179916381836,0.48196669972472245,59.0,595.0,0.0
R,U,"[4, 10]",1.0,5.0,0.2121129035949707,1.927501916885376,0.609237565744521,59.0,596.0,0.0
B,L,"[4, 9]",1.0,6.0,0.1974658966064453,1.6533689498901367,0.3629052408324712,59.0,597.0,0.0
R,U,"[3, 9]",1.0,7.0,0.22977185249328613,1.9714078903198242,0.633966810244182,59.0,598.0,0.0
G,D,"[4, 9]",0.0,7.0,0.16826701164245605,1.7291209697723389,0.46335977949147755,59.0,599.0,0.0
G,D,"[5, 9]",0.0,7.0,0.16797995567321777,1.6430339813232422,0.373259771865812,59.0,600.0,0.0
,,"(6, 6)",,,,,,,,
Y,R,"[6, 7]",0.0,0.0,0.6148221492767334,2.564872980117798,0.4213756254043209,60.0,601.0,0.0
Y,R,"[6, 8]",1.0,1.0,0.2514159679412842,1.987267017364502,0.6418203821796206,60.0,602.0,0.0
Y,R,"[6, 9]",1.0,2.0,0.3088059425354004,1.943481206893921,0.5350893178378496,60.0,603.0,0.0
Y,R,"[6, 10]",1.0,3.0,0.14693379402160645,1.8647539615631104,0.6167419918213993,60.0,604.0,0.0
R,U,"[5, 10]",1.0,4.0,0.1481800079345703,1.9155960083007812,0.6657019284341781,60.0,605.0,0.0
R,U,"[4, 10]",-1.0,4.0,0.0438079833984375,5.703786134719849,0.5357062411875435,60.0,606.0,0.0
R,U,"[3, 10]",0.0,4.0,0.20890593528747559,1.7698659896850586,0.4560655689125065,60.0,607.0,0.0
B,L,"[3, 9]",1.0,5.0,0.24827194213867188,2.0474607944488525,0.7038004022083204,60.0,608.0,0.0
R,U,"[2, 9]",0.0,5.0,0.1799159049987793,1.7793231010437012,0.4995834694828297,60.0,609.0,0.0
B,L,"[2, 8]",0.0,5.0,0.4252800941467285,2.021122932434082,0.48753751029453724,60.0,610.0,0.0
,,"(6, 6)",,,,,,,,
Y,R,"[6, 7]",0.0,0.0,0.3963451385498047,2.9621999263763428,0.4496333621572023,61.0,611.0,0.0
Y,R,"[6, 8]",1.0,1.0,0.23978519439697266,1.6174209117889404,0.26732911634188344,61.0,612.0,0.0
Y,R,"[6, 9]",1.0,2.0,0.29121899604797363,1.9576549530029297,0.5581318160021481,61.0,613.0,0.0
Y,R,"[6, 10]",1.0,3.0,0.2794809341430664,1.7951009273529053,0.42000166748379414,61.0,614.0,0.0
R,U,"[5, 10]",-2.0,3.0,1.295964002609253,2.640255928039551,0.31034560627331004,61.0,615.0,0.0
R,U,"[4, 10]",1.0,4.0,0.18701601028442383,1.8334629535675049,0.5602714910925557,61.0,616.0,0.0
R,U,"[3, 10]",0.0,4.0,0.23114013671875,2.0368919372558594,0.7137443684856206,61.0,617.0,0.0
Y,R,"[3, 11]",0.0,4.0,0.2860288619995117,1.8889260292053223,0.5029133978565724,61.0,618.0,0.0
B,L,"[3, 10]",0.0,4.0,0.19468402862548828,1.7687768936157227,0.47169121681454973,61.0,619.0,0.0
R,U,"[2, 10]",0.0,4.0,0.17107105255126953,1.9789950847625732,0.7171520357068396,61.0,620.0,0.0
,,"(6, 6)",,,,,,,,
Y,R,"[6, 7]",0.0,0.0,0.39944911003112793,2.919288158416748,0.4699779660527575,62.0,621.0,0.0
Y,R,"[6, 8]",1.0,1.0,0.18509507179260254,1.8739020824432373,0.5939361317407086,62.0,622.0,0.0
Y,R,"[6, 9]",1.0,2.0,0.23655390739440918,1.6821119785308838,0.35950363358365267,62.0,623.0,0.0
Y,R,"[6, 10]",1.0,3.0,0.3361999988555908,2.007614850997925,0.5835919168578523,62.0,624.0,0.0
R,U,"[5, 10]",1.0,4.0,0.1936960220336914,1.8568429946899414,0.5571075991129519,62.0,625.0,0.0
R,U,"[4, 10]",1.0,5.0,0.19075679779052734,1.9372060298919678,0.6442922451645549,62.0,626.0,0.0
B,L,"[4, 9]",1.0,6.0,0.2394709587097168,2.0115771293640137,0.672501241775624,62.0,627.0,0.0
R,U,"[3, 9]",1.0,7.0,0.1847841739654541,1.68839693069458,0.4111580330606178,62.0,628.0,0.0
R,U,"[2, 9]",0.0,7.0,0.18278908729553223,1.7584469318389893,0.4863362101451004,62.0,629.0,0.0
B,L,"[2, 8]",0.0,7.0,0.13232111930847168,1.8876659870147705,0.6570383630060839,62.0,630.0,0.0
,,"(6, 6)",,,,,,,,
Y,R,"[6, 7]",0.0,0.0,0.36295413970947266,2.9889869689941406,0.5961044243144094,63.0,631.0,0.0
Y,R,"[6, 8]",-1.0,0.0,0.04767298698425293,5.7233781814575195,0.5363747988830927,63.0,632.0,0.0
Y,R,"[6, 9]",1.0,1.0,0.19039487838745117,1.5960750579833984,0.2994164368706336,63.0,633.0,0.0
Y,R,"[6, 10]",1.0,2.0,0.19254493713378906,1.7231872081756592,0.42251650541805547,63.0,634.0,0.0
Y,R,"[6, 11]",0.0,2.0,0.21277809143066406,1.8056340217590332,0.49459386585107834,63.0,635.0,0.0
R,U,"[5, 11]",0.0,2.0,0.11384797096252441,1.4793651103973389,0.27434027173435,63.0,636.0,0.0
R,U,"[4, 11]",0.0,2.0,0.19988608360290527,1.815727949142456,0.5229878927599828,63.0,637.0,0.0
B,L,"[4, 10]",1.0,3.0,0.13215112686157227,1.6528890132904053,0.42605321265165375,63.0,638.0,0.0
B,L,"[4, 9]",1.0,4.0,0.2992851734161377,1.6893470287322998,0.29884735803129,63.0,639.0,0.0
G,D,"[5, 9]",0.0,4.0,0.4490230083465576,2.2285759449005127,0.677118477984888,63.0,640.0,0.0
,,"(6, 6)",,,,,,,,
Y,R,"[6, 7]",0.0,0.0,0.3715829849243164,2.805665969848633,0.48309960662092183,64.0,641.0,0.0
Y,R,"[6, 8]",1.0,1.0,0.10698413848876953,1.5310020446777344,0.330823650915099,64.0,642.0,0.0
Y,R,"[6, 9]",1.0,2.0,0.18546700477600098,1.881342887878418,0.5952069066554821,64.0,643.0,0.0
Y,R,"[6, 10]",1.0,3.0,0.20719099044799805,1.619596004486084,0.31524724902665624,64.0,644.0,0.0
R,U,"[5, 10]",1.0,4.0,0.19823002815246582,1.8385090827941895,0.5367224936395474,64.0,645.0,0.0
R,U,"[4, 10]",1.0,5.0,0.15972900390625,1.6711649894714355,0.408158704605041,64.0,646.0,0.0
B,L,"[4, 9]",1.0,6.0,0.21195507049560547,1.8783290386199951,0.5695928358127719,64.0,647.0,0.0
R,U,"[3, 9]",1.0,7.0,0.18154001235961914,1.7047839164733887,0.42453190046102496,64.0,648.0,0.0
Y,R,"[3, 10]",0.0,7.0,0.2186441421508789,1.7623200416564941,0.45356410516725165,64.0,649.0,0.0
Y,R,"[3, 11]",0.0,7.0,0.17988204956054688,1.6417210102081299,0.3620043334964183,64.0,650.0,0.0
,,"(6, 6)",,,,,,,,
Y,R,"[6, 7]",0.0,0.0,0.6290769577026367,4.826207876205444,0.5713633154222195,65.0,651.0,0.0
Y,R,"[6, 8]",1.0,1.0,0.14059710502624512,1.9676589965820312,0.7223006667264484,65.0,652.0,0.0
Y,R,"[6, 9]",-1.0,1.0,0.08074212074279785,5.494537115097046,0.28399830978008245,65.0,653.0,0.0
Y,R,"[6, 10]",1.0,2.0,0.27903294563293457,1.9531569480895996,0.5703705194486051,65.0,654.0,0.0
Y,R,"[6, 11]",0.0,2.0,0.2052168846130371,2.025751829147339,0.7126315097811164,65.0,655.0,0.0
R,U,"[5, 11]",0.0,2.0,0.2258141040802002,1.8475778102874756,0.510418457548788,65.0,656.0,0.0
B,L,"[5, 10]",1.0,3.0,0.1578080654144287,1.8465099334716797,0.5902323197113054,65.0,657.0,0.0
B,L,"[5, 9]",0.0,3.0,0.20090007781982422,1.7526428699493408,0.459688427918412,65.0,658.0,0.0
G,D,"[6, 9]",0.0,3.0,0.1791210174560547,1.7702181339263916,0.4966194444425994,65.0,659.0,0.0
Y,R,"[6, 10]",0.0,3.0,0.15250015258789062,1.7836041450500488,0.5301579486968254,65.0,660.0,0.0
,,"(6, 6)",,,,,,,,
Y,R,"[6, 7]",0.0,0.0,0.33168911933898926,2.868051052093506,0.3985125135999313,66.0,661.0,0.0
Y,R,"[6, 8]",1.0,1.0,0.16963887214660645,1.846369981765747,0.5781120192728371,66.0,662.0,0.0
Y,R,"[6, 9]",1.0,2.0,0.16840887069702148,1.62156081199646,0.3665626719945279,66.0,663.0,0.0
Y,R,"[6, 10]",1.0,3.0,0.2160780429840088,1.8130369186401367,0.4960748391183485,66.0,664.0,0.0
R,U,"[5, 10]",1.0,4.0,0.17258882522583008,1.6811108589172363,0.3940719856323675,66.0,665.0,0.0
R,U,"[4, 10]",1.0,5.0,0.16406989097595215,1.7786951065063477,0.522606094162448,66.0,666.0,0.0
B,L,"[4, 9]",1.0,6.0,0.17955708503723145,2.0110220909118652,0.733432642521038,66.0,667.0,0.0
R,U,"[3, 9]",1.0,7.0,0.22202610969543457,1.9001119136810303,0.5671058139302902,66.0,668.0,0.0
G,D,"[4, 9]",0.0,7.0,0.8770508766174316,2.383314847946167,0.40067006965530017,66.0,669.0,0.0
B,L,"[4, 8]",0.0,7.0,0.21099495887756348,1.5825469493865967,0.26682905683088914,66.0,670.0,0.0
,,"(6, 6)",,,,,,,,
Y,R,"[6, 7]",0.0,0.0,0.3394191265106201,2.858070135116577,0.6578384310406147,67.0,671.0,0.0
Y,R,"[6, 8]",1.0,1.0,0.1856670379638672,1.8269779682159424,0.5516813721920228,67.0,672.0,0.0
Y,R,"[6, 9]",1.0,2.0,0.8324460983276367,2.3554489612579346,0.4239960026828845,67.0,673.0,0.0
Y,R,"[6, 10]",1.0,3.0,0.19651484489440918,1.5553231239318848,0.26279269208304323,67.0,674.0,0.0
R,U,"[5, 10]",1.0,4.0,0.23070907592773438,2.062610149383545,0.7415583866005095,67.0,675.0,0.0
R,U,"[4, 10]",1.0,5.0,0.21155095100402832,1.8379991054534912,0.5298067301194276,67.0,676.0,0.0
B,L,"[4, 9]",1.0,6.0,0.14518308639526367,1.61126708984375,0.3580427396785988,67.0,677.0,0.0
R,U,"[3, 9]",1.0,7.0,0.18102502822875977,1.7546141147613525,0.47928283155482876,67.0,678.0,0.0
R,U,"[2, 9]",0.0,7.0,0.2112579345703125,1.8185930252075195,0.5145125724082245,67.0,679.0,0.0
B,L,"[2, 8]",0.0,7.0,0.17699718475341797,1.659735918045044,0.37446102201485315,67.0,680.0,0.0
,,"(6, 6)",,,,,,,,
Y,R,"[6, 7]",0.0,0.0,0.3538939952850342,2.520015001296997,0.46099302171762235,68.0,681.0,0.0
Y,R,"[6, 8]",1.0,1.0,0.2302389144897461,1.648568868637085,0.3264103568203338,68.0,682.0,0.0
Y,R,"[6, 9]",1.0,2.0,0.2216029167175293,1.6109929084777832,0.3041706717798919,68.0,683.0,0.0
Y,R,"[6, 10]",1.0,3.0,0.1895751953125,1.9398038387298584,0.6435248289652031,68.0,684.0,0.0
R,U,"[5, 10]",1.0,4.0,0.1548171043395996,1.8504409790039062,0.6107983229014231,68.0,685.0,0.0
R,U,"[4, 10]",1.0,5.0,0.18845415115356445,1.815140962600708,0.5260349114921741,68.0,686.0,0.0
B,L,"[4, 9]",1.0,6.0,0.17821502685546875,1.5265429019927979,0.25296617150235295,68.0,687.0,0.0
B,L,"[4, 8]",0.0,6.0,0.3466918468475342,2.0869338512420654,0.6395163533450123,68.0,688.0,0.0
R,U,"[3, 8]",0.0,6.0,0.24041104316711426,2.024883985519409,0.6812023760201604,68.0,689.0,0.0
Y,R,"[3, 9]",1.0,7.0,0.29819798469543457,2.139186143875122,0.7370443549061194,68.0,690.0,0.0
,,"(6, 6)",,,,,,,,
Y,R,"[6, 7]",0.0,0.0,0.49913597106933594,3.1601760387420654,0.6807026390438231,69.0,691.0,0.0
Y,R,"[6, 8]",1.0,1.0,0.17017579078674316,1.8372328281402588,0.5678612909894893,69.0,692.0,0.0
Y,R,"[6, 9]",1.0,2.0,0.17991900444030762,1.5611069202423096,0.2794777023881069,69.0,693.0,0.0
Y,R,"[6, 10]",1.0,3.0,0.24222898483276367,2.0019071102142334,0.6476340645736932,69.0,694.0,0.0
R,U,"[5, 10]",1.0,4.0,0.2034149169921875,1.9647581577301025,0.6624477661456636,69.0,695.0,0.0
R,U,"[4, 10]",1.0,5.0,0.18281793594360352,1.7407050132751465,0.4534029008679528,69.0,696.0,0.0
B,L,"[4, 9]",1.0,6.0,0.22144079208374023,2.055806875228882,0.7256934623330837,69.0,697.0,0.0
R,U,"[3, 9]",1.0,7.0,0.19097304344177246,1.7771949768066406,0.4864471213361529,69.0,698.0,0.0
G,D,"[4, 9]",0.0,7.0,0.19936513900756836,1.71968412399292,0.42287337822250076,69.0,699.0,0.0
Y,R,"[4, 10]",0.0,7.0,0.18963217735290527,1.581852912902832,0.28836581931320493,69.0,700.0,0.0
,,"(6, 6)",,,,,,,,
Y,R,"[6, 7]",0.0,0.0,0.3695709705352783,2.6953649520874023,0.6166136831721354,70.0,701.0,0.0
Y,R,"[6, 8]",1.0,1.0,0.32468581199645996,2.0413408279418945,0.6247180788147724,70.0,702.0,0.0
Y,R,"[6, 9]",1.0,2.0,0.17921710014343262,1.8011910915374756,0.5260303394251993,70.0,703.0,0.0
Y,R,"[6, 10]",1.0,3.0,0.19232988357543945,1.998466968536377,0.7076465914161365,70.0,704.0,0.0
R,U,"[5, 10]",1.0,4.0,0.1975269317626953,1.6737749576568604,0.38193353982611156,70.0,705.0,0.0
R,U,"[4, 10]",1.0,5.0,0.21329498291015625,1.8464300632476807,0.5281012881422311,70.0,706.0,0.0
B,L,"[4, 9]",1.0,6.0,0.9599010944366455,2.7828710079193115,0.7275491221222208,70.0,707.0,0.0
R,U,"[3, 9]",1.0,7.0,0.18496417999267578,1.9295878410339355,0.657179955817695,70.0,708.0,0.0
B,L,"[3, 8]",0.0,7.0,0.18955206871032715,1.7293078899383545,0.4363309938431007,70.0,709.0,0.0
Y,R,"[3, 9]",0.0,7.0,0.21509909629821777,1.5893559455871582,0.2763812046675876,70.0,710.0,0.0
,,"(6, 6)",,,,,,,,
Y,R,"[6, 7]",0.0,0.0,0.35480213165283203,3.1203219890594482,0.6631247585977852,71.0,711.0,0.0
Y,R,"[6, 8]",1.0,1.0,0.15844488143920898,1.542848825454712,0.273045341824104,71.0,712.0,0.0
Y,R,"[6, 9]",1.0,2.0,0.23570513725280762,2.0588979721069336,0.7314937566716542,71.0,713.0,0.0
Y,R,"[6, 10]",1.0,3.0,0.17293310165405273,1.9917328357696533,0.7066700912951077,71.0,714.0,0.0
R,U,"[5, 10]",1.0,4.0,0.1723799705505371,1.9649100303649902,0.6883190405886923,71.0,715.0,0.0
R,U,"[4, 10]",1.0,5.0,0.18393898010253906,1.6605989933013916,0.38259002184630847,71.0,716.0,0.0
B,L,"[4, 9]",1.0,6.0,0.21646404266357422,1.8938450813293457,0.5762617165704647,71.0,717.0,0.0
R,U,"[3, 9]",1.0,7.0,0.17637014389038086,1.9657189846038818,0.691978353949234,71.0,718.0,0.0
B,L,"[3, 8]",0.0,7.0,0.1855480670928955,1.8277361392974854,0.5532486266579346,71.0,719.0,0.0
R,U,"[2, 8]",0.0,7.0,0.17027902603149414,1.5949690341949463,0.33168952227899895,71.0,720.0,0.0
,,"(6, 6)",,,,,,,,
Y,R,"[6, 7]",0.0,0.0,0.36770105361938477,3.127387046813965,0.2758015920269905,72.0,721.0,0.0
Y,R,"[6, 8]",1.0,1.0,0.2576298713684082,1.7150979042053223,0.3575277276581197,72.0,722.0,0.0
Y,R,"[6, 9]",1.0,2.0,0.1678781509399414,1.8840901851654053,0.6248314299157872,72.0,723.0,0.0
Y,R,"[6, 10]",1.0,3.0,0.14874505996704102,1.590588092803955,0.34902129525882064,72.0,724.0,0.0
R,U,"[5, 10]",-1.0,3.0,0.07116198539733887,5.682698965072632,0.4817963672045597,72.0,725.0,0.0
R,U,"[4, 10]",1.0,4.0,0.16692805290222168,1.9972968101501465,0.7288025893141392,72.0,726.0,0.0
R,U,"[3, 10]",0.0,4.0,0.23341989517211914,1.8529539108276367,0.5319441568405273,72.0,727.0,0.0
B,L,"[3, 9]",1.0,5.0,0.1966719627380371,1.6629419326782227,0.36176359069014663,72.0,728.0,0.0
R,U,"[2, 9]",0.0,5.0,0.17496204376220703,1.5464739799499512,0.27496069035443227,72.0,729.0,0.0
B,L,"[2, 8]",0.0,5.0,0.1769700050354004,1.5432050228118896,0.26823980225401595,72.0,730.0,0.0
,,"(6, 6)",,,,,,,,
Y,R,"[6, 7]",0.0,0.0,0.39072394371032715,3.1292340755462646,0.6971193066436399,73.0,731.0,0.0
Y,R,"[6, 8]",1.0,1.0,0.3275871276855469,1.6901841163635254,0.2547032563061687,73.0,732.0,0.0
Y,R,"[6, 9]",1.0,2.0,0.17834877967834473,1.6274299621582031,0.348584597375335,73.0,733.0,0.0
Y,R,"[6, 10]",-1.0,2.0,0.041190147399902344,5.814769983291626,0.6463699447038045,73.0,734.0,0.0
Y,R,"[6, 11]",0.0,2.0,0.18969202041625977,1.6791691780090332,0.37597047189648936,73.0,735.0,0.0
R,U,"[5, 11]",0.0,2.0,0.1999208927154541,2.0306360721588135,0.7395523909483342,73.0,736.0,0.0
B,L,"[5, 10]",1.0,3.0,0.21056103706359863,1.7508718967437744,0.4407698391102918,73.0,737.0,0.0
B,L,"[5, 9]",0.0,3.0,0.24562883377075195,1.7607989311218262,0.418321846682459,73.0,738.0,0.0
G,D,"[6, 9]",0.0,3.0,0.15828585624694824,1.5474541187286377,0.2823981217697738,73.0,739.0,0.0
R,U,"[5, 9]",0.0,3.0,0.16977882385253906,1.8240861892700195,0.5563886363324867,73.0,740.0,0.0
,,"(6, 6)",,,,,,,,
Y,R,"[6, 7]",0.0,0.0,0.3657231330871582,2.883220911026001,0.4397744629907438,74.0,741.0,0.0
Y,R,"[6, 8]",1.0,1.0,0.2147519588470459,1.804095983505249,0.4938195253529714,74.0,742.0,0.0
Y,R,"[6, 9]",1.0,2.0,0.18649601936340332,2.015965223312378,0.7429022018981897,74.0,743.0,0.0
Y,R,"[6, 10]",-1.0,2.0,0.0822911262512207,5.77789306640625,0.5710830545472734,74.0,744.0,0.0
Y,R,"[6, 11]",0.0,2.0,0.23032712936401367,1.6779940128326416,0.34891260934256824,74.0,745.0,0.0
R,U,"[5, 11]",0.0,2.0,0.3243529796600342,2.0744500160217285,0.6402897790095174,74.0,746.0,0.0
R,U,"[4, 11]",0.0,2.0,0.21978020668029785,1.8346590995788574,0.5251086105175131,74.0,747.0,0.0
Y,R,"[5, 11]",-3.0,2.0,0.19149088859558105,1.637908935546875,0.34635510223170196,74.0,748.0,0.0
B,L,"[5, 10]",1.0,3.0,0.25580406188964844,2.1190719604492188,0.7486832438834552,74.0,749.0,0.0
B,L,"[5, 9]",0.0,3.0,0.17609691619873047,1.9910120964050293,0.7063234769703521,74.0,750.0,0.0
,,"(6, 6)",,,,,,,,
Y,R,"[6, 7]",0.0,0.0,0.4360640048980713,3.2636220455169678,0.653428678694548,75.0,751.0,0.0
Y,R,"[6, 8]",1.0,1.0,0.19365501403808594,1.7768537998199463,0.48057376177590805,75.0,752.0,0.0
Y,R,"[6, 9]",1.0,2.0,0.19870996475219727,2.046165943145752,0.742986719380659,75.0,753.0,0.0
Y,R,"[6, 10]",1.0,3.0,0.5807380676269531,2.14434814453125,0.4709428666241268,75.0,754.0,0.0
R,U,"[5, 10]",1.0,4.0,0.21343708038330078,1.8512721061706543,0.538950333273488,75.0,755.0,0.0
R,U,"[4, 10]",1.0,5.0,0.1656041145324707,1.9205739498138428,0.659524239623883,75.0,756.0,0.0
B,L,"[4, 9]",1.0,6.0,0.18433713912963867,1.9057550430297852,0.6320526778873694,75.0,757.0,0.0
B,L,"[4, 8]",0.0,6.0,0.1657249927520752,1.9973490238189697,0.7291910297624127,75.0,758.0,0.0
R,U,"[3, 8]",-1.0,6.0,0.056735992431640625,5.828367233276367,0.6244535956472739,75.0,759.0,0.0
R,U,"[2, 8]",0.0,6.0,0.20210695266723633,2.0419209003448486,0.7496398607461503,75.0,760.0,0.0
,,"(6, 6)",,,,,,,,
Y,R,"[6, 7]",0.0,0.0,0.3625781536102295,2.83038592338562,0.4304839819110846,76.0,761.0,0.0
Y,R,"[6, 8]",1.0,1.0,0.17998504638671875,1.668483018875122,0.382302859997737,76.0,762.0,0.0
Y,R,"[6, 9]",-1.0,1.0,0.08115601539611816,5.954989910125732,0.7370880659307981,76.0,763.0,0.0
Y,R,"[6, 10]",1.0,2.0,0.11483216285705566,1.6952760219573975,0.48255324030894553,76.0,764.0,0.0
Y,R,"[6, 11]",0.0,2.0,0.23060894012451172,1.815290927886963,0.48125108494652347,76.0,765.0,0.0
R,U,"[5, 11]",0.0,2.0,0.20705413818359375,1.9435381889343262,0.6250711083152809,76.0,766.0,0.0
R,U,"[4, 11]",0.0,2.0,0.1888749599456787,1.746812105178833,0.45507421178429636,76.0,767.0,0.0
B,L,"[4, 10]",1.0,3.0,0.1966719627380371,1.6875519752502441,0.39274092771560004,76.0,768.0,0.0
R,U,"[3, 10]",0.0,3.0,0.6735649108886719,2.0867269039154053,0.3129533245378354,76.0,769.0,0.0
B,L,"[3, 9]",1.0,4.0,0.23861980438232422,1.590036153793335,0.2529940085274097,76.0,770.0,0.0
,,"(6, 6)",,,,,,,,
Y,R,"[6, 7]",0.0,0.0,0.3539619445800781,2.988698959350586,0.6910614189845935,77.0,771.0,0.0
Y,R,"[6, 8]",1.0,1.0,0.1941978931427002,1.8063340187072754,0.5146142204879114,77.0,772.0,0.0
Y,R,"[6, 9]",1.0,2.0,0.1914689540863037,1.7552521228790283,0.45339378740914477,77.0,773.0,0.0
Y,R,"[6, 10]",1.0,3.0,0.16664505004882812,1.6610400676727295,0.39771104385832723,77.0,774.0,0.0
R,U,"[5, 10]",1.0,4.0,0.178908109664917,1.640929937362671,0.3554081407792689,77.0,775.0,0.0
R,U,"[4, 10]",1.0,5.0,0.17456817626953125,1.5294158458709717,0.2515816916013225,77.0,776.0,0.0
B,L,"[4, 9]",1.0,6.0,0.20234107971191406,1.7209160327911377,0.42239352593972884,77.0,777.0,0.0
R,U,"[3, 9]",1.0,7.0,0.17986178398132324,1.6799049377441406,0.40226159139960804,77.0,778.0,0.0
R,U,"[2, 9]",0.0,7.0,0.15948081016540527,1.5531318187713623,0.28883987203452294,77.0,779.0,0.0
Y,R,"[2, 10]",0.0,7.0,0.18341803550720215,1.954529047012329,0.6763897515792561,77.0,780.0,0.0
,,"(6, 6)",,,,,,,,
Y,R,"[6, 7]",0.0,0.0,0.40798306465148926,3.424591064453125,0.7344875203819992,78.0,781.0,0.0
Y,R,"[6, 8]",1.0,1.0,0.1933300495147705,1.9497039318084717,0.6508829018842193,78.0,782.0,0.0
Y,R,"[6, 9]",1.0,2.0,0.2613711357116699,2.107224941253662,0.7416546487085274,78.0,783.0,0.0
Y,R,"[6, 10]",1.0,3.0,0.17459702491760254,1.9665679931640625,0.6913154629875373,78.0,784.0,0.0
R,U,"[5, 10]",1.0,4.0,0.18985295295715332,1.5520899295806885,0.26060479104369283,78.0,785.0,0.0
R,U,"[4, 10]",1.0,5.0,0.20403695106506348,1.6710259914398193,0.38144680084351584,78.0,786.0,0.0
B,L,"[4, 9]",1.0,6.0,0.1907329559326172,1.6282470226287842,0.32660784016229344,78.0,787.0,0.0
R,U,"[3, 9]",1.0,7.0,0.20914506912231445,1.896665096282959,0.589475277335789,78.0,788.0,0.0
G,D,"[4, 9]",0.0,7.0,0.4731111526489258,2.1109671592712402,0.5340966625895345,78.0,789.0,0.0
G,D,"[5, 9]",0.0,7.0,0.3264780044555664,1.7529590129852295,0.32051375294523404,78.0,790.0,0.0
,,"(6, 6)",,,,,,,,
Y,R,"[6, 7]",0.0,0.0,0.39069080352783203,3.2984490394592285,0.6856404067930436,79.0,791.0,0.0
Y,R,"[6, 8]",1.0,1.0,0.1847841739654541,1.8178188800811768,0.5367764006165904,79.0,792.0,0.0
Y,R,"[6, 9]",1.0,2.0,0.21903014183044434,1.677361011505127,0.3642041354181697,79.0,793.0,0.0
Y,R,"[6, 10]",1.0,3.0,0.18692708015441895,1.8549659252166748,0.5691198442980807,79.0,794.0,0.0
R,U,"[5, 10]",1.0,4.0,0.16691303253173828,1.7154769897460938,0.45139615429982843,79.0,795.0,0.0
R,U,"[4, 10]",1.0,5.0,0.17667388916015625,1.8366069793701172,0.5545529902689667,79.0,796.0,0.0
B,L,"[4, 9]",1.0,6.0,0.1775951385498047,1.9504120349884033,0.671460002523171,79.0,797.0,0.0
R,U,"[3, 9]",1.0,7.0,0.17709994316101074,1.738417148590088,0.46023662445814373,79.0,798.0,0.0
R,U,"[2, 9]",0.0,7.0,0.2097480297088623,2.0276570320129395,0.721036860268507,79.0,799.0,0.0
Y,R,"[2, 10]",0.0,7.0,0.4661221504211426,2.2103261947631836,0.6481299038137313,79.0,800.0,0.0
,,"(6, 6)",,,,,,,,
Y,R,"[6, 7]",-2.0,0.0,1.3293349742889404,4.245208024978638,0.5435700933032465,80.0,801.0,0.0
Y,R,"[6, 8]",1.0,1.0,0.20312809944152832,1.667173147201538,0.37758386065720756,80.0,802.0,0.0
Y,R,"[6, 9]",1.0,2.0,0.24830889701843262,1.7744531631469727,0.43520050798159465,80.0,803.0,0.0
Y,R,"[6, 10]",1.0,3.0,0.25383901596069336,1.9957969188690186,0.6475165101884062,80.0,804.0,0.0
R,U,"[5, 10]",1.0,4.0,0.19402813911437988,2.042095899581909,0.7394939024965037,80.0,805.0,0.0
R,U,"[4, 10]",1.0,5.0,0.18969488143920898,1.896819829940796,0.6031944455059053,80.0,806.0,0.0
B,L,"[4, 9]",1.0,6.0,0.20384788513183594,1.7375729084014893,0.441048170044647,80.0,807.0,0.0
R,U,"[3, 9]",1.0,7.0,0.2136368751525879,1.9967808723449707,0.6876478724343804,80.0,808.0,0.0
B,L,"[3, 8]",0.0,7.0,0.6579489707946777,2.41473388671875,0.6524142515305399,80.0,809.0,0.0
R,U,"[2, 8]",0.0,7.0,0.17888092994689941,1.955967903137207,0.6746449512545409,80.0,810.0,0.0
,,"(6, 6)",,,,,,,,
Y,R,"[6, 7]",-2.0,0.0,1.6723968982696533,4.551355838775635,0.543372658204373,81.0,811.0,0.0
Y,R,"[6, 8]",1.0,1.0,0.41599488258361816,2.0358448028564453,0.5286537648689935,81.0,812.0,0.0
Y,R,"[6, 9]",1.0,2.0,0.18625497817993164,1.6278910636901855,0.3406669243057503,81.0,813.0,0.0
Y,R,"[6, 10]",1.0,3.0,0.30353689193725586,2.1052169799804688,0.7121788360032806,81.0,814.0,0.0
R,U,"[5, 10]",1.0,4.0,0.23262977600097656,2.070927143096924,0.7497534581840686,81.0,815.0,0.0
R,U,"[4, 10]",1.0,5.0,0.1923530101776123,1.803645133972168,0.5034763597591225,81.0,816.0,0.0
B,L,"[4, 9]",1.0,6.0,0.25226902961730957,1.8166699409484863,0.47046329182714675,81.0,817.0,0.0
R,U,"[3, 9]",1.0,7.0,0.20966601371765137,1.897711992263794,0.584722506522592,81.0,818.0,0.0
B,L,"[3, 8]",0.0,7.0,0.18105506896972656,2.0312631130218506,0.749270700701044,81.0,819.0,0.0
Y,R,"[3, 9]",0.0,7.0,0.24476194381713867,1.9732141494750977,0.6224904350967608,81.0,820.0,0.0
,,"(6, 6)",,,,,,,,
Y,R,"[6, 7]",0.0,0.0,0.5067329406738281,2.9886810779571533,0.3280064839146429,82.0,821.0,0.0
Y,R,"[6, 8]",1.0,1.0,0.20079708099365234,1.6884591579437256,0.4000107309781643,82.0,822.0,0.0
Y,R,"[6, 9]",1.0,2.0,0.18380117416381836,1.7126049995422363,0.42923479775221857,82.0,823.0,0.0
Y,R,"[6, 10]",1.0,3.0,0.29832983016967773,2.0539300441741943,0.6496200858689938,82.0,824.0,0.0
R,U,"[5, 10]",1.0,4.0,0.2165079116821289,1.9912798404693604,0.6742573646682994,82.0,825.0,0.0
R,U,"[4, 10]",1.0,5.0,0.1860370635986328,1.738184928894043,0.46269351689789956,82.0,826.0,0.0
B,L,"[4, 9]",1.0,6.0,0.2530248165130615,1.8849048614501953,0.5308608243655994,82.0,827.0,0.0
R,U,"[3, 9]",1.0,7.0,0.19176197052001953,1.6426289081573486,0.34053068786881524,82.0,828.0,0.0
G,D,"[4, 9]",0.0,7.0,0.9315609931945801,2.6872270107269287,0.660929059713394,82.0,829.0,0.0
G,D,"[5, 9]",0.0,7.0,0.9902729988098145,2.4177939891815186,0.345609733029853,82.0,830.0,0.0
,,"(6, 6)",,,,,,,,
Y,R,"[6, 7]",-2.0,0.0,1.4371070861816406,3.765191078186035,0.7104193937150654,83.0,831.0,0.0
Y,R,"[6, 8]",1.0,1.0,0.23413515090942383,1.6303110122680664,0.3078088567026568,83.0,832.0,0.0
Y,R,"[6, 9]",1.0,2.0,0.36084604263305664,2.028891086578369,0.5697973324288041,83.0,833.0,0.0
Y,R,"[6, 10]",1.0,3.0,0.4055140018463135,2.127685070037842,0.5975440980339426,83.0,834.0,0.0
R,U,"[5, 10]",1.0,4.0,0.25579404830932617,1.7018210887908936,0.3329288529938202,83.0,835.0,0.0
R,U,"[4, 10]",1.0,5.0,0.314349889755249,1.8756740093231201,0.45853392097491946,83.0,836.0,0.0
B,L,"[4, 9]",1.0,6.0,0.30089592933654785,2.069650888442993,0.6781094926997324,83.0,837.0,0.0
R,U,"[3, 9]",1.0,7.0,0.2803211212158203,1.7539961338043213,0.3824010149906361,83.0,838.0,0.0
R,U,"[2, 9]",0.0,7.0,0.5285229682922363,2.0506491661071777,0.416410144718667,83.0,839.0,0.0
R,U,"[1, 9]",0.0,7.0,0.8526358604431152,2.5333149433135986,0.5828267984155768,83.0,840.0,0.0
,,"(6, 6)",,,,,,,,
Y,R,"[6, 7]",-2.0,0.0,1.9194769859313965,4.162331819534302,0.44548072685471035,84.0,841.0,0.0
Y,R,"[6, 8]",1.0,1.0,0.22266697883605957,1.623349905014038,0.3190240554029723,84.0,842.0,0.0
Y,R,"[6, 9]",1.0,2.0,0.2063770294189453,2.0091731548309326,0.6944941904015558,84.0,843.0,0.0
Y,R,"[6, 10]",1.0,3.0,0.1224660873413086,1.877121925354004,0.6548177978790461,84.0,844.0,0.0
R,U,"[5, 10]",1.0,4.0,0.20221185684204102,1.7981910705566406,0.5032892034980392,84.0,845.0,0.0
R,U,"[4, 10]",1.0,5.0,0.16510295867919922,2.0035550594329834,0.7400057447490236,84.0,846.0,0.0
B,L,"[4, 9]",1.0,6.0,0.22836709022521973,1.7699871063232422,0.44368412866414847,84.0,847.0,0.0
R,U,"[3, 9]",1.0,7.0,0.175645112991333,1.9332709312438965,0.660030827282048,84.0,848.0,0.0
B,L,"[3, 8]",0.0,7.0,0.22526097297668457,1.6203889846801758,0.2974862041008332,84.0,849.0,0.0
G,D,"[4, 8]",0.0,7.0,0.36834096908569336,1.9041681289672852,0.4348965178204495,84.0,850.0,0.0
,,"(6, 6)",,,,,,,,
Y,R,"[6, 7]",0.0,0.0,0.39420413970947266,2.7267329692840576,0.31175323430828406,85.0,851.0,0.0
Y,R,"[6, 8]",1.0,1.0,0.16765713691711426,1.5458769798278809,0.29101351394051495,85.0,852.0,0.0
Y,R,"[6, 9]",1.0,2.0,0.12468814849853516,1.9110660552978516,0.6847704554665134,85.0,853.0,0.0
Y,R,"[6, 10]",-1.0,2.0,0.022348880767822266,5.462289094924927,0.31440399172023764,85.0,854.0,0.0
Y,R,"[6, 11]",0.0,2.0,0.32060694694519043,1.9398231506347656,0.5208259315430976,85.0,855.0,0.0
R,U,"[5, 11]",0.0,2.0,0.22879886627197266,1.6676990985870361,0.33861160567436815,85.0,856.0,0.0
R,U,"[4, 11]",0.0,2.0,0.21564888954162598,1.7205159664154053,0.40914371578258313,85.0,857.0,0.0
B,L,"[4, 10]",1.0,3.0,0.15194988250732422,1.646967887878418,0.4061787758071036,85.0,858.0,0.0
B,L,"[4, 9]",1.0,4.0,0.18400192260742188,1.9977688789367676,0.7205143961569083,85.0,859.0,0.0
B,L,"[4, 8]",0.0,4.0,0.1917879581451416,1.6631290912628174,0.36701301403259146,85.0,860.0,0.0
,,"(6, 6)",,,,,,,,
Y,R,"[6, 7]",0.0,0.0,0.3953840732574463,3.2048330307006836,0.6882975260817417,86.0,861.0,0.0
Y,R,"[6, 8]",1.0,1.0,0.20055103302001953,1.7641079425811768,0.469401736963635,86.0,862.0,0.0
Y,R,"[6, 9]",1.0,2.0,0.3724539279937744,1.7537930011749268,0.2734803322338533,86.0,863.0,0.0
Y,R,"[6, 10]",1.0,3.0,0.40506505966186523,1.7867369651794434,0.2768679148664675,86.0,864.0,0.0
R,U,"[5, 10]",1.0,4.0,0.24184608459472656,2.022412061691284,0.6822954633608975,86.0,865.0,0.0
R,U,"[4, 10]",1.0,5.0,0.169752836227417,1.7659800052642822,0.498495889210874,86.0,866.0,0.0
B,L,"[4, 9]",1.0,6.0,0.19098591804504395,1.5899510383605957,0.2884714598239727,86.0,867.0,0.0
B,L,"[4, 8]",0.0,6.0,0.24457001686096191,1.9969220161437988,0.652014091424609,86.0,868.0,0.0
R,U,"[3, 8]",0.0,6.0,0.19477009773254395,1.6307079792022705,0.3329487661728406,86.0,869.0,0.0
B,L,"[3, 7]",0.0,6.0,0.19241714477539062,1.592965841293335,0.2927285495503069,86.0,870.0,0.0
,,"(6, 6)",,,,,,,,
Y,R,"[6, 7]",0.0,0.0,0.4203929901123047,3.1732289791107178,0.6984940290555361,87.0,871.0,0.0
Y,R,"[6, 8]",1.0,1.0,0.19583606719970703,1.9842660427093506,0.683214442937434,87.0,872.0,0.0
Y,R,"[6, 9]",1.0,2.0,0.23759698867797852,1.687225103378296,0.354164971598959,87.0,873.0,0.0
Y,R,"[6, 10]",1.0,3.0,0.41698718070983887,2.1021840572357178,0.5891787113918616,87.0,874.0,0.0
R,U,"[5, 10]",1.0,4.0,0.2533400058746338,2.0279018878936768,0.6838109809048922,87.0,875.0,0.0
R,U,"[4, 10]",1.0,5.0,0.20731401443481445,1.960745096206665,0.6447377817459425,87.0,876.0,0.0
B,L,"[4, 9]",1.0,6.0,0.22833490371704102,1.925004005432129,0.6031096759868224,87.0,877.0,0.0
R,U,"[3, 9]",1.0,7.0,0.19962501525878906,1.6108980178833008,0.3142667014805,87.0,878.0,0.0
B,L,"[3, 8]",-2.0,7.0,1.039520025253296,2.756491184234619,0.6705870904605066,87.0,879.0,0.0
B,L,"[3, 7]",0.0,7.0,0.16797089576721191,1.7573449611663818,0.49481839061830657,87.0,880.0,0.0
,,"(6, 6)",,,,,,,,
Y,R,"[6, 7]",-2.0,0.0,2.0817179679870605,4.4524219036102295,0.31402935757914796,88.0,881.0,0.0
Y,R,"[6, 8]",1.0,1.0,0.6068189144134521,2.3702521324157715,0.6672486578423521,88.0,882.0,0.0
Y,R,"[6, 9]",1.0,2.0,0.4507319927215576,2.0382320880889893,0.489094571875227,88.0,883.0,0.0
Y,R,"[6, 10]",1.0,3.0,0.36197400093078613,1.9943599700927734,0.5334250275505725,88.0,884.0,0.0
R,U,"[5, 10]",1.0,4.0,0.21325898170471191,1.6939690113067627,0.3775757784680595,88.0,885.0,0.0
R,U,"[4, 10]",1.0,5.0,0.223006010055542,1.9465439319610596,0.6239301140047363,88.0,886.0,0.0
B,L,"[4, 9]",1.0,6.0,0.2000141143798828,1.5908610820770264,0.2985460470634713,88.0,887.0,0.0
R,U,"[3, 9]",1.0,7.0,0.2343459129333496,1.6267149448394775,0.29198784466120703,88.0,888.0,0.0
B,L,"[3, 8]",0.0,7.0,0.2284398078918457,1.9851770401000977,0.6605340528720067,88.0,889.0,0.0
Y,R,"[3, 9]",0.0,7.0,0.8641831874847412,2.3967549800872803,0.43985914692902633,88.0,890.0,0.0
,,"(6, 6)",,,,,,,,
Y,R,"[6, 7]",-2.0,0.0,1.961348056793213,4.459839820861816,0.2504890404423047,89.0,891.0,0.0
Y,R,"[6, 8]",1.0,1.0,0.24654579162597656,1.9802629947662354,0.6305582585060041,89.0,892.0,0.0
Y,R,"[6, 9]",1.0,2.0,0.22221684455871582,1.5982439517974854,0.2624033332445222,89.0,893.0,0.0
Y,R,"[6, 10]",1.0,3.0,0.3910689353942871,1.874953031539917,0.3873458060942265,89.0,894.0,0.0
R,U,"[5, 10]",1.0,4.0,0.2902839183807373,2.0117499828338623,0.6154827030867625,89.0,895.0,0.0
R,U,"[4, 10]",1.0,5.0,0.19123601913452148,1.7192530632019043,0.4183227341441712,89.0,896.0,0.0
B,L,"[4, 9]",1.0,6.0,0.24387097358703613,1.792949914932251,0.44467003084810747,89.0,897.0,0.0
R,U,"[3, 9]",1.0,7.0,0.202531099319458,1.5655550956726074,0.27699717750159897,89.0,898.0,0.0
B,L,"[3, 8]",0.0,7.0,0.18971490859985352,1.7105779647827148,0.42080188144980046,89.0,899.0,0.0
G,D,"[4, 8]",-2.0,7.0,1.514822006225586,2.8920788764953613,0.3463373503624007,89.0,900.0,0.0
,,"(6, 6)",,,,,,,,
Y,R,"[6, 7]",-2.0,0.0,1.8468780517578125,4.795477867126465,0.6250382978838043,90.0,901.0,0.0
Y,R,"[6, 8]",1.0,1.0,0.2520451545715332,1.775589942932129,0.43406842293404213,90.0,902.0,0.0
Y,R,"[6, 9]",1.0,2.0,0.25865888595581055,1.736656904220581,0.37082641683646644,90.0,903.0,0.0
Y,R,"[6, 10]",1.0,3.0,0.24402403831481934,1.9716801643371582,0.6256859022253591,90.0,904.0,0.0
R,U,"[5, 10]",1.0,4.0,0.1891310214996338,1.7970659732818604,0.5061277999827105,90.0,905.0,0.0
R,U,"[4, 10]",1.0,5.0,0.19602513313293457,1.62111496925354,0.32746141432718556,90.0,906.0,0.0
B,L,"[4, 9]",1.0,6.0,0.27234601974487305,1.851344108581543,0.47867124884707873,90.0,907.0,0.0
R,U,"[3, 9]",1.0,7.0,0.18674302101135254,1.8102591037750244,0.5389071142828208,90.0,908.0,0.0
B,L,"[3, 8]",0.0,7.0,0.29786181449890137,1.8373360633850098,0.44304981638062485,90.0,909.0,0.0
B,L,"[3, 7]",-2.0,7.0,1.6828250885009766,3.311138153076172,0.6040925325142817,90.0,910.0,0.0
,,"(6, 6)",,,,,,,,
Y,R,"[6, 7]",0.0,0.0,0.5675630569458008,2.7126550674438477,0.36700314713834664,91.0,911.0,0.0
Y,R,"[6, 8]",1.0,1.0,0.3882761001586914,1.7466881275177002,0.2636582968189088,91.0,912.0,0.0
Y,R,"[6, 9]",1.0,2.0,0.23136496543884277,1.82669997215271,0.490337175682785,91.0,913.0,0.0
Y,R,"[6, 10]",1.0,3.0,0.18324899673461914,1.7119967937469482,0.43575917733986197,91.0,914.0,0.0
R,U,"[5, 10]",1.0,4.0,0.2564089298248291,2.0400259494781494,0.6755658247368561,91.0,915.0,0.0
R,U,"[4, 10]",1.0,5.0,0.19092798233032227,2.0351672172546387,0.744007354294319,91.0,916.0,0.0
B,L,"[4, 9]",1.0,6.0,0.22252702713012695,1.942471981048584,0.6200490607404481,91.0,917.0,0.0
R,U,"[3, 9]",1.0,7.0,0.17358708381652832,1.5659902095794678,0.28627083072632836,91.0,918.0,0.0
R,U,"[2, 9]",0.0,7.0,0.22931194305419922,1.8658230304718018,0.5352253726191698,91.0,919.0,0.0
B,L,"[2, 8]",-1.0,7.0,0.023810863494873047,5.512287139892578,0.36443316609635773,91.0,920.0,0.0
,,"(6, 6)",,,,,,,,
Y,R,"[6, 7]",-2.0,0.0,1.7950949668884277,4.242630958557129,0.4568840249323227,92.0,921.0,0.0
Y,R,"[6, 8]",1.0,1.0,0.2669792175292969,1.659125804901123,0.29968376316027734,92.0,922.0,0.0
Y,R,"[6, 9]",1.0,2.0,0.39130210876464844,2.112473964691162,0.6119927538304791,92.0,923.0,0.0
Y,R,"[6, 10]",1.0,3.0,0.3683311939239502,2.0410239696502686,0.5863930780560567,92.0,924.0,0.0
R,U,"[5, 10]",1.0,4.0,0.3233921527862549,2.1491620540618896,0.7187511862114029,92.0,925.0,0.0
R,U,"[4, 10]",1.0,5.0,0.22842097282409668,1.8026440143585205,0.47165398892316807,92.0,926.0,0.0
B,L,"[4, 9]",1.0,6.0,0.6874649524688721,2.076824903488159,0.2820745756710413,92.0,927.0,0.0
R,U,"[3, 9]",1.0,7.0,0.4081568717956543,2.1933319568634033,0.6749588158341396,92.0,928.0,0.0
B,L,"[3, 8]",0.0,7.0,0.8168749809265137,2.4442200660705566,0.5360565480988295,92.0,929.0,0.0
Y,R,"[3, 9]",0.0,7.0,0.3130362033843994,1.7564260959625244,0.3427561396525048,92.0,930.0,0.0
,,"(6, 6)",,,,,,,,
Y,R,"[6, 7]",-2.0,0.0,2.0233781337738037,4.27436900138855,0.46684891473658874,93.0,931.0,0.0
Y,R,"[6, 8]",1.0,1.0,0.25292420387268066,1.832885980606079,0.48330770681351515,93.0,932.0,0.0
Y,R,"[6, 9]",1.0,2.0,0.24771618843078613,1.995253086090088,0.6450690151304174,93.0,933.0,0.0
Y,R,"[6, 10]",1.0,3.0,0.29645490646362305,1.816370964050293,0.42824041038715327,93.0,934.0,0.0
R,U,"[5, 10]",1.0,4.0,0.26889586448669434,1.8388569355010986,0.48357516066197287,93.0,935.0,0.0
R,U,"[4, 10]",1.0,5.0,0.3182640075683594,1.740319013595581,0.3242848278688367,93.0,936.0,0.0
B,L,"[4, 9]",1.0,6.0,0.33359813690185547,2.064727783203125,0.6385234539451758,93.0,937.0,0.0
R,U,"[3, 9]",1.0,7.0,0.21785807609558105,1.8908350467681885,0.5797104007913407,93.0,938.0,0.0
G,D,"[4, 9]",0.0,7.0,0.346142053604126,1.9218389987945557,0.46860434411863633,93.0,939.0,0.0
B,L,"[4, 8]",0.0,7.0,0.5074479579925537,2.0698530673980713,0.4549571635799783,93.0,940.0,0.0
,,"(6, 6)",,,,,,,,
Y,R,"[6, 7]",0.0,0.0,0.4794189929962158,3.2396159172058105,0.6943594782049368,94.0,941.0,0.0
Y,R,"[6, 8]",1.0,1.0,0.177717924118042,1.7984910011291504,0.5262576402539185,94.0,942.0,0.0
Y,R,"[6, 9]",1.0,2.0,0.18715786933898926,1.9469408988952637,0.6731256056166068,94.0,943.0,0.0
Y,R,"[6, 10]",1.0,3.0,0.20468997955322266,1.8141791820526123,0.5209338610851827,94.0,944.0,0.0
R,U,"[5, 10]",1.0,4.0,0.18564295768737793,1.8009440898895264,0.5217515632820309,94.0,945.0,0.0
R,U,"[4, 10]",1.0,5.0,0.23239398002624512,1.9494130611419678,0.6212148970621867,94.0,946.0,0.0
B,L,"[4, 9]",1.0,6.0,0.2215731143951416,1.903170108795166,0.574388751446032,94.0,947.0,0.0
R,U,"[3, 9]",1.0,7.0,0.21828699111938477,1.7287230491638184,0.4199713203168785,94.0,948.0,0.0
G,D,"[4, 9]",0.0,7.0,0.26097893714904785,1.7652490139007568,0.40192118125188697,94.0,949.0,0.0
G,D,"[5, 9]",0.0,7.0,0.24349284172058105,2.0535590648651123,0.7051783853980853,94.0,950.0,0.0
,,"(6, 6)",,,,,,,,
Y,R,"[6, 7]",0.0,0.0,0.9582431316375732,3.4191300868988037,0.5578252565647923,95.0,951.0,0.0
Y,R,"[6, 8]",1.0,1.0,0.2880830764770508,1.7793610095977783,0.38738172390977366,95.0,952.0,0.0
Y,R,"[6, 9]",1.0,2.0,0.3333151340484619,2.0306050777435303,0.6012994140194241,95.0,953.0,0.0
Y,R,"[6, 10]",1.0,3.0,0.29912686347961426,2.119684934616089,0.7207314321898235,95.0,954.0,0.0
R,U,"[5, 10]",1.0,4.0,0.1922011375427246,1.9733200073242188,0.6774340965116474,95.0,955.0,0.0
R,U,"[4, 10]",1.0,5.0,0.29018688201904297,1.8289239406585693,0.4399489927858003,95.0,956.0,0.0
B,L,"[4, 9]",1.0,6.0,0.28192901611328125,1.8010270595550537,0.4243844722040624,95.0,957.0,0.0
R,U,"[3, 9]",1.0,7.0,0.19710898399353027,1.6037020683288574,0.3115540744103602,95.0,958.0,0.0
B,L,"[3, 8]",0.0,7.0,0.18399405479431152,1.945408821105957,0.6734242537298187,95.0,959.0,0.0
Y,R,"[3, 9]",0.0,7.0,0.22547602653503418,1.5891218185424805,0.2795740555153496,95.0,960.0,0.0
,,"(6, 6)",,,,,,,,
Y,R,"[6, 7]",-2.0,0.0,2.3525681495666504,5.070476055145264,0.6996845999824766,96.0,961.0,0.0
Y,R,"[6, 8]",1.0,1.0,0.2976100444793701,1.9559130668640137,0.5556120710513727,96.0,962.0,0.0
Y,R,"[6, 9]",1.0,2.0,0.2298729419708252,1.9731380939483643,0.6454500640822126,96.0,963.0,0.0
Y,R,"[6, 10]",1.0,3.0,0.3540768623352051,1.9118940830230713,0.4575172019690613,96.0,964.0,0.0
R,U,"[5, 10]",1.0,4.0,0.24376702308654785,2.061772108078003,0.7191543069018181,96.0,965.0,0.0
R,U,"[4, 10]",1.0,5.0,0.2619020938873291,1.8541760444641113,0.49001919425512475,96.0,966.0,0.0
B,L,"[4, 9]",1.0,6.0,0.2078549861907959,1.8325719833374023,0.5227998113792132,96.0,967.0,0.0
R,U,"[3, 9]",1.0,7.0,0.24972081184387207,1.624572992324829,0.2809255253659692,96.0,968.0,0.0
Y,R,"[3, 10]",0.0,7.0,0.303530216217041,2.111323118209839,0.6753403534979887,96.0,969.0,0.0
B,L,"[3, 9]",0.0,7.0,0.21636199951171875,1.5916869640350342,0.2840028292452536,96.0,970.0,0.0
,,"(6, 6)",,,,,,,,
Y,R,"[6, 7]",0.0,0.0,0.4180750846862793,2.909564971923828,0.46010294606392993,97.0,971.0,0.0
Y,R,"[6, 8]",1.0,1.0,0.18947315216064453,1.9160010814666748,0.6260835602199871,97.0,972.0,0.0
Y,R,"[6, 9]",1.0,2.0,0.19687795639038086,1.8731939792633057,0.5826488599771884,97.0,973.0,0.0
Y,R,"[6, 10]",1.0,3.0,0.20360398292541504,1.8127868175506592,0.5123466697561156,97.0,974.0,0.0
R,U,"[5, 10]",1.0,4.0,0.21766209602355957,1.823714017868042,0.5192957412583457,97.0,975.0,0.0
R,U,"[4, 10]",1.0,5.0,0.20077013969421387,1.9492309093475342,0.6515860545727027,97.0,976.0,0.0
B,L,"[4, 9]",1.0,6.0,0.24065303802490234,2.004570960998535,0.6562369887222538,97.0,977.0,0.0
R,U,"[3, 9]",1.0,7.0,0.26360392570495605,1.8436248302459717,0.4834119045124297,97.0,978.0,0.0
Y,R,"[3, 10]",0.0,7.0,0.20459794998168945,1.9169189929962158,0.616956366169219,97.0,979.0,0.0
G,D,"[4, 10]",0.0,7.0,0.8881521224975586,2.3360109329223633,0.35329892302102534,97.0,980.0,0.0
,,"(6, 6)",,,,,,,,
Y,R,"[6, 7]",0.0,0.0,0.6279511451721191,3.2038960456848145,0.6902092395997939,98.0,981.0,0.0
Y,R,"[6, 8]",1.0,1.0,0.17112302780151367,1.5620920658111572,0.3025014989275567,98.0,982.0,0.0
Y,R,"[6, 9]",1.0,2.0,0.25241899490356445,1.7203140258789062,0.37289135002447416,98.0,983.0,0.0
Y,R,"[6, 10]",1.0,3.0,0.17978882789611816,1.9884800910949707,0.7109747197592692,98.0,984.0,0.0
R,U,"[5, 10]",-1.0,3.0,0.016366958618164062,5.456080198287964,0.31767509798721283,98.0,985.0,0.0
R,U,"[4, 10]",1.0,4.0,0.26809215545654297,1.840329885482788,0.47444842447346147,98.0,986.0,0.0
R,U,"[3, 10]",0.0,4.0,0.21973013877868652,1.6670820713043213,0.35837740678377306,98.0,987.0,0.0
B,L,"[3, 9]",1.0,5.0,0.2731139659881592,1.7424938678741455,0.3675994757926736,98.0,988.0,0.0
R,U,"[2, 9]",-1.0,5.0,0.031430959701538086,5.700757026672363,0.5348558823107784,98.0,989.0,0.0
R,U,"[1, 9]",0.0,5.0,0.33538389205932617,1.7976560592651367,0.36600691272195945,98.0,990.0,0.0
,,"(6, 6)",,,,,,,,
Y,R,"[6, 7]",0.0,0.0,0.4642829895019531,2.9132680892944336,0.34609251080318737,99.0,991.0,0.0
Y,R,"[6, 8]",1.0,1.0,0.1860201358795166,1.6978411674499512,0.4104764673893466,99.0,992.0,0.0
Y,R,"[6, 9]",1.0,2.0,0.194688081741333,1.8959910869598389,0.6062911405197245,99.0,993.0,0.0
Y,R,"[6, 10]",1.0,3.0,0.192579984664917,1.791064977645874,0.4975509825917183,99.0,994.0,0.0
R,U,"[5, 10]",1.0,4.0,0.20270705223083496,1.9978079795837402,0.6952715940026102,99.0,995.0,0.0
R,U,"[4, 10]",1.0,5.0,0.22857093811035156,1.6690289974212646,0.34788287258476797,99.0,996.0,0.0
B,L,"[4, 9]",1.0,6.0,0.2440338134765625,2.0063068866729736,0.6537885681110818,99.0,997.0,0.0
R,U,"[3, 9]",1.0,7.0,0.17294001579284668,1.7662208080291748,0.4869725635430283,99.0,998.0,0.0
B,L,"[3, 8]",0.0,7.0,0.1656041145324707,1.865027904510498,0.6020474003403403,99.0,999.0,0.0
Y,R,"[3, 9]",0.0,7.0,0.18035292625427246,1.6868619918823242,0.40570443709214776,99.0,1000.0,0.0
