button_choice,action_choice,coordinate_choice,reward,cumulative_reward,rt,total_trial_time,iti,block_n,trial_n,trial_type
R,U,"[5, 6]",-2.0,0.0,1.002100944519043,2.5266048908233643,0.5441649753906985,0.0,1.0,0.0
B,L,"[5, 5]",0.0,0.0,0.979421854019165,2.699198007583618,0.726376949538295,0.0,2.0,0.0
B,L,"[5, 4]",0.0,0.0,0.40946507453918457,2.085206985473633,0.6786871668410843,0.0,3.0,0.0
R,U,"[4, 4]",0.0,0.0,0.25858092308044434,1.5937368869781494,0.3390704473983318,0.0,4.0,0.0
G,D,"[5, 4]",0.0,0.0,0.22295594215393066,1.7424719333648682,0.5146418284578604,0.0,5.0,0.0
Y,R,"[5, 5]",0.0,0.0,0.291881799697876,2.002973794937134,0.7009555521055678,0.0,6.0,0.0
R,U,"[4, 5]",0.0,0.0,0.18491101264953613,1.773352861404419,0.5910401551161438,0.0,7.0,0.0
R,U,"[3, 5]",0.0,0.0,0.2626950740814209,1.7379870414733887,0.47881405268643273,0.0,8.0,0.0
R,U,"[2, 5]",0.0,0.0,0.39824914932250977,1.8517439365386963,0.447234816191702,0.0,9.0,0.0
R,U,"[1, 5]",0.0,0.0,0.47869396209716797,2.2161998748779297,0.7297392592991735,0.0,10.0,0.0
,,"(6, 6)",,,,,,,,
R,U,"[5, 6]",1.0,1.0,0.208327054977417,3.879384994506836,0.692537421410262,1.0,11.0,0.0
Y,R,"[5, 7]",1.0,2.0,0.29798293113708496,1.795530080795288,0.5047842272264635,1.0,12.0,0.0
Y,R,"[5, 8]",1.0,3.0,0.3918139934539795,1.7326090335845947,0.3375824256924972,1.0,13.0,0.0
G,D,"[6, 8]",1.0,4.0,0.23242902755737305,1.9662940502166748,0.7367990408541195,1.0,14.0,0.0
Y,R,"[6, 9]",1.0,5.0,0.2688019275665283,1.9108381271362305,0.6476896696196874,1.0,15.0,0.0
Y,R,"[6, 10]",1.0,6.0,0.23114800453186035,1.8956279754638672,0.6598343110052989,1.0,16.0,0.0
R,U,"[5, 10]",1.0,7.0,0.18176913261413574,1.6807310581207275,0.5074277046375474,1.0,17.0,0.0
R,U,"[4, 10]",1.0,8.0,0.2655210494995117,1.538395881652832,0.2792705343954866,1.0,18.0,0.0
B,L,"[4, 9]",1.0,9.0,0.37137413024902344,1.7170159816741943,0.32948578110915827,1.0,19.0,0.0
R,U,"[3, 9]",1.0,10.0,0.26378798484802246,1.7173380851745605,0.44685547864592634,1.0,20.0,0.0
,,"(6, 6)",,,,,,,,
R,U,"[5, 6]",1.0,1.0,0.27500009536743164,2.621162176132202,0.7176704915141368,2.0,21.0,0.0
Y,R,"[5, 7]",1.0,2.0,0.2913367748260498,1.8277809619903564,0.5288031541172662,2.0,22.0,0.0
Y,R,"[5, 8]",1.0,3.0,0.21299314498901367,1.9580349922180176,0.7366181031997273,2.0,23.0,0.0
G,D,"[6, 8]",1.0,4.0,0.1869509220123291,1.5046861171722412,0.32510577938676544,2.0,24.0,0.0
Y,R,"[6, 9]",1.0,5.0,0.29398488998413086,1.7438459396362305,0.4521165227398519,2.0,25.0,0.0
Y,R,"[6, 10]",1.0,6.0,0.21396994590759277,1.897001028060913,0.6822086887630714,2.0,26.0,0.0
R,U,"[5, 10]",1.0,7.0,0.2549707889556885,1.9872019290924072,0.7359806371336515,2.0,27.0,0.0
R,U,"[4, 10]",1.0,8.0,0.17064905166625977,1.8757820129394531,0.711741031400137,2.0,28.0,0.0
B,L,"[4, 9]",1.0,9.0,0.1894700527191162,1.620819091796875,0.43277089730021473,2.0,29.0,0.0
R,U,"[3, 9]",1.0,10.0,0.22763514518737793,1.579408884048462,0.3455775851566932,2.0,30.0,0.0
,,"(6, 6)",,,,,,,,
R,U,"[5, 6]",1.0,1.0,0.14695310592651367,2.288809061050415,0.567360591955357,3.0,31.0,0.0
Y,R,"[5, 7]",1.0,2.0,0.2308640480041504,1.9771571159362793,0.7444161226750458,3.0,32.0,0.0
Y,R,"[5, 8]",1.0,3.0,0.16923213005065918,1.557995080947876,0.40276761233339736,3.0,33.0,0.0
G,D,"[6, 8]",1.0,4.0,0.2535979747772217,1.706583023071289,0.45919151203717434,3.0,34.0,0.0
Y,R,"[6, 9]",1.0,5.0,0.19249296188354492,1.7038919925689697,0.5129450575109399,3.0,35.0,0.0
Y,R,"[6, 10]",1.0,6.0,0.23276805877685547,1.676867961883545,0.4398041261341185,3.0,36.0,0.0
R,U,"[5, 10]",1.0,7.0,0.25716590881347656,1.8507168292999268,0.5903526019317061,3.0,37.0,0.0
R,U,"[4, 10]",1.0,8.0,0.26714301109313965,1.9819200038909912,0.7222677237808789,3.0,38.0,0.0
B,L,"[4, 9]",1.0,9.0,0.18678498268127441,1.8219060897827148,0.6441547517850004,3.0,39.0,0.0
R,U,"[3, 9]",1.0,10.0,0.19812893867492676,1.5798161029815674,0.390807177402695,3.0,40.0,0.0
,,"(6, 6)",,,,,,,,
R,U,"[5, 6]",1.0,1.0,0.35513782501220703,2.9891669750213623,0.5797212676830771,4.0,41.0,0.0
Y,R,"[5, 7]",1.0,2.0,0.1807079315185547,1.6868939399719238,0.5000102792942128,4.0,42.0,0.0
Y,R,"[5, 8]",1.0,3.0,0.23231816291809082,1.941931962966919,0.7084006923208852,4.0,43.0,0.0
G,D,"[6, 8]",1.0,4.0,0.19101500511169434,1.8989500999450684,0.7072823367109929,4.0,44.0,0.0
Y,R,"[6, 9]",1.0,5.0,0.20200800895690918,1.8724558353424072,0.6797551289168888,4.0,45.0,0.0
Y,R,"[6, 10]",1.0,6.0,0.19669795036315918,1.6373188495635986,0.4339574769728064,4.0,46.0,0.0
R,U,"[5, 10]",1.0,7.0,0.24253106117248535,1.5525789260864258,0.3032726909818009,4.0,47.0,0.0
R,U,"[4, 10]",1.0,8.0,0.30431318283081055,1.614537000656128,0.31779585036827646,4.0,48.0,0.0
B,L,"[4, 9]",1.0,9.0,0.25367307662963867,1.617945909500122,0.36893625070593483,4.0,49.0,0.0
R,U,"[3, 9]",1.0,10.0,0.2789430618286133,1.8264319896697998,0.5455159856601067,4.0,50.0,0.0
,,"(6, 6)",,,,,,,,
R,U,"[5, 6]",1.0,1.0,0.3860890865325928,3.966792106628418,0.5119006117270815,5.0,51.0,0.0
Y,R,"[5, 7]",1.0,2.0,0.22915101051330566,1.809464931488037,0.5879078649452524,5.0,52.0,0.0
Y,R,"[5, 8]",1.0,3.0,0.20264601707458496,1.81072998046875,0.6151715970021865,5.0,53.0,0.0
G,D,"[6, 8]",1.0,4.0,0.18625402450561523,1.767064094543457,0.5822049955197632,5.0,54.0,0.0
Y,R,"[6, 9]",1.0,5.0,0.21159100532531738,1.7865099906921387,0.5689642446415291,5.0,55.0,0.0
Y,R,"[6, 10]",1.0,6.0,0.24122881889343262,1.5109429359436035,0.2633553743220683,5.0,56.0,0.0
R,U,"[5, 10]",1.0,7.0,0.29354381561279297,1.7647368907928467,0.46122305607633696,5.0,57.0,0.0
R,U,"[4, 10]",1.0,8.0,0.2144930362701416,1.6817588806152344,0.47620889923503307,5.0,58.0,0.0
B,L,"[4, 9]",1.0,9.0,0.22318506240844727,1.8491790294647217,0.6252272027157273,5.0,59.0,0.0
R,U,"[3, 9]",1.0,10.0,0.1501479148864746,1.6848139762878418,0.5434811658555537,5.0,60.0,0.0
,,"(6, 6)",,,,,,,,
R,U,"[5, 6]",1.0,1.0,0.402393102645874,2.4977290630340576,0.641017423716703,6.0,61.0,0.0
Y,R,"[5, 7]",1.0,2.0,0.20582795143127441,1.478205919265747,0.26952406369691717,6.0,62.0,0.0
Y,R,"[5, 8]",1.0,3.0,0.300584077835083,1.6536710262298584,0.3563340420795669,6.0,63.0,0.0
G,D,"[6, 8]",1.0,4.0,0.21942400932312012,1.7191729545593262,0.5087177588014364,6.0,64.0,0.0
Y,R,"[6, 9]",1.0,5.0,0.17673206329345703,1.7280991077423096,0.5535368688417581,6.0,65.0,0.0
Y,R,"[6, 10]",1.0,6.0,0.2084488868713379,1.5178229808807373,0.304855333544461,6.0,66.0,0.0
R,U,"[5, 10]",1.0,7.0,0.2749960422515869,1.7145209312438965,0.43587285603949544,6.0,67.0,0.0
R,U,"[4, 10]",1.0,8.0,0.17929816246032715,1.604212999343872,0.4233005511226283,6.0,68.0,0.0
B,L,"[4, 9]",1.0,9.0,0.23312711715698242,1.5653200149536133,0.33866511273314825,6.0,69.0,0.0
R,U,"[3, 9]",1.0,10.0,0.20962810516357422,1.6895067691802979,0.4780961540901127,6.0,70.0,0.0
,,"(6, 6)",,,,,,,,
R,U,"[5, 6]",1.0,1.0,0.2944600582122803,2.4825398921966553,0.627057615606799,7.0,71.0,0.0
Y,R,"[5, 7]",-1.0,1.0,0.0502619743347168,5.559278964996338,0.45313288426898185,7.0,72.0,0.0
Y,R,"[5, 8]",1.0,2.0,0.3070201873779297,2.029914140701294,0.7160905505411899,7.0,73.0,0.0
G,D,"[6, 8]",1.0,3.0,0.20519113540649414,1.5741610527038574,0.37385269061220117,7.0,74.0,0.0
Y,R,"[6, 9]",1.0,4.0,0.2469480037689209,1.8399670124053955,0.5968002905412837,7.0,75.0,0.0
Y,R,"[6, 10]",1.0,5.0,0.20089387893676758,1.6404500007629395,0.4374829736575821,7.0,76.0,0.0
R,U,"[5, 10]",1.0,6.0,0.3466379642486572,1.7470951080322266,0.4010622320494214,7.0,77.0,0.0
R,U,"[4, 10]",1.0,7.0,0.24959111213684082,1.8572940826416016,0.6082909308842701,7.0,78.0,0.0
B,L,"[4, 9]",1.0,8.0,0.23058390617370605,1.757768154144287,0.5326780505246947,7.0,79.0,0.0
R,U,"[3, 9]",1.0,9.0,0.2388927936553955,1.6514241695404053,0.41753294094821564,7.0,80.0,0.0
,,"(6, 6)",,,,,,,,
R,U,"[5, 6]",1.0,1.0,0.17070603370666504,2.5856001377105713,0.43648180149019383,8.0,81.0,0.0
Y,R,"[5, 7]",1.0,2.0,0.2255420684814453,1.666182041168213,0.43592274164824085,8.0,82.0,0.0
Y,R,"[5, 8]",1.0,3.0,0.1958320140838623,1.5040199756622314,0.30668620612693853,8.0,83.0,0.0
G,D,"[6, 8]",1.0,4.0,0.19184517860412598,1.44923996925354,0.2558764308371306,8.0,84.0,0.0
Y,R,"[6, 9]",1.0,5.0,0.2038590908050537,1.6400408744812012,0.44582427699832056,8.0,85.0,0.0
Y,R,"[6, 10]",1.0,6.0,0.21382999420166016,1.868696928024292,0.6475912417916803,8.0,86.0,0.0
R,U,"[5, 10]",1.0,7.0,0.18818116188049316,1.7165629863739014,0.5307625937445293,8.0,87.0,0.0
R,U,"[4, 10]",1.0,8.0,0.2534329891204834,1.9730658531188965,0.7203718675962578,8.0,88.0,0.0
B,L,"[4, 9]",1.0,9.0,0.1928272247314453,1.804271936416626,0.6080883665036871,8.0,89.0,0.0
R,U,"[3, 9]",1.0,10.0,0.21275115013122559,1.7185900211334229,0.5099417739483942,8.0,90.0,0.0
,,"(6, 6)",,,,,,,,
R,U,"[5, 6]",1.0,1.0,0.27077794075012207,2.553075075149536,0.4964448871881285,9.0,91.0,0.0
Y,R,"[5, 7]",1.0,2.0,0.22337603569030762,1.8550970554351807,0.6178720674703237,9.0,92.0,0.0
Y,R,"[5, 8]",1.0,3.0,0.19940495491027832,1.7683990001678467,0.5698024714241803,9.0,93.0,0.0
G,D,"[6, 8]",1.0,4.0,0.2046971321105957,1.5399608612060547,0.34327403514979515,9.0,94.0,0.0
Y,R,"[6, 9]",1.0,5.0,0.30147600173950195,1.6648650169372559,0.3747399045931265,9.0,95.0,0.0
Y,R,"[6, 10]",1.0,6.0,0.2557380199432373,1.6124491691589355,0.3538846564327957,9.0,96.0,0.0
R,U,"[5, 10]",1.0,7.0,0.2560701370239258,1.9690449237823486,0.7058203324175104,9.0,97.0,0.0
R,U,"[4, 10]",1.0,8.0,0.25435900688171387,1.7379100322723389,0.47714970512959176,9.0,98.0,0.0
B,L,"[4, 9]",1.0,9.0,0.3249940872192383,1.8042161464691162,0.4815192320161515,9.0,99.0,0.0
R,U,"[3, 9]",1.0,10.0,0.25036191940307617,1.5044870376586914,0.2526624426627115,9.0,100.0,0.0
,,"(6, 6)",,,,,,,,
R,U,"[5, 6]",1.0,1.0,0.20725297927856445,3.1985361576080322,0.6674901573415357,10.0,101.0,0.0
Y,R,"[5, 7]",1.0,2.0,0.20425701141357422,1.8365321159362793,0.6372692456640444,10.0,102.0,0.0
Y,R,"[5, 8]",1.0,3.0,0.26188111305236816,1.7203731536865234,0.4579112202350943,10.0,103.0,0.0
G,D,"[6, 8]",1.0,4.0,0.3872649669647217,1.7129640579223633,0.3376049698684155,10.0,104.0,0.0
Y,R,"[6, 9]",1.0,5.0,0.23078107833862305,1.5618250370025635,0.3327154259968409,10.0,105.0,0.0
Y,R,"[6, 10]",1.0,6.0,0.27691221237182617,1.887812852859497,0.6036152079265159,10.0,106.0,0.0
R,U,"[5, 10]",1.0,7.0,0.18859481811523438,1.919677972793579,0.7230919764665644,10.0,107.0,0.0
R,U,"[4, 10]",1.0,8.0,0.19388484954833984,1.7758820056915283,0.5823929518465343,10.0,108.0,0.0
B,L,"[4, 9]",1.0,9.0,0.27352404594421387,1.8544130325317383,0.5701638508314996,10.0,109.0,0.0
R,U,"[3, 9]",1.0,10.0,0.24859213829040527,1.9116079807281494,0.6649375767377805,10.0,110.0,0.0
,,"(6, 6)",,,,,,,,
R,U,"[5, 6]",1.0,1.0,0.17501497268676758,2.55582594871521,0.5375112409361976,11.0,111.0,0.0
Y,R,"[5, 7]",1.0,2.0,0.22779297828674316,1.6067111492156982,0.377677935681804,11.0,112.0,0.0
Y,R,"[5, 8]",1.0,3.0,0.2459120750427246,1.675300121307373,0.43616126971774866,11.0,113.0,0.0
G,D,"[6, 8]",1.0,4.0,0.24552011489868164,1.9279119968414307,0.6805178675216081,11.0,114.0,0.0
Y,R,"[6, 9]",1.0,5.0,0.23810410499572754,1.5411808490753174,0.3053297339104162,11.0,115.0,0.0
Y,R,"[6, 10]",1.0,6.0,0.266826868057251,1.8712849617004395,0.6096560903600845,11.0,116.0,0.0
R,U,"[5, 10]",1.0,7.0,0.26413679122924805,1.8120410442352295,0.5549561338835884,11.0,117.0,0.0
R,U,"[4, 10]",1.0,8.0,0.2624080181121826,1.8756790161132812,0.613982861174015,11.0,118.0,0.0
B,L,"[4, 9]",1.0,9.0,0.2631838321685791,1.575179100036621,0.3060970050780233,11.0,119.0,0.0
R,U,"[3, 9]",1.0,10.0,0.26840782165527344,1.7944841384887695,0.5336148869860173,11.0,120.0,0.0
,,"(6, 6)",,,,,,,,
R,U,"[5, 6]",1.0,1.0,0.16667795181274414,3.32309889793396,0.6897431449560423,12.0,121.0,0.0
Y,R,"[5, 7]",1.0,2.0,0.24580597877502441,1.598330020904541,0.35511914238974057,12.0,122.0,0.0
Y,R,"[5, 8]",1.0,3.0,0.22962498664855957,1.624394178390503,0.3959780134187669,12.0,123.0,0.0
G,D,"[6, 8]",1.0,4.0,0.23940396308898926,1.8297901153564453,0.5760550479020379,12.0,124.0,0.0
Y,R,"[6, 9]",1.0,5.0,0.1935889720916748,1.805129051208496,0.6140659593637988,12.0,125.0,0.0
Y,R,"[6, 10]",1.0,6.0,0.19402503967285156,1.946558952331543,0.7438068178226207,12.0,126.0,0.0
R,U,"[5, 10]",1.0,7.0,0.24676203727722168,1.8746039867401123,0.6350323222009044,12.0,127.0,0.0
R,U,"[4, 10]",1.0,8.0,0.2712540626525879,1.616987943649292,0.352368264546013,12.0,128.0,0.0
B,L,"[4, 9]",1.0,9.0,0.318587064743042,1.921614170074463,0.6069895482591032,12.0,129.0,0.0
R,U,"[3, 9]",1.0,10.0,0.26287317276000977,1.9562339782714844,0.6965885405595762,12.0,130.0,0.0
,,"(6, 6)",,,,,,,,
R,U,"[5, 6]",1.0,1.0,0.15097379684448242,3.0864319801330566,0.5663058050251563,13.0,131.0,0.0
Y,R,"[5, 7]",1.0,2.0,0.2512679100036621,1.847301959991455,0.5968581153850863,13.0,132.0,0.0
Y,R,"[5, 8]",1.0,3.0,0.22789883613586426,1.931931972503662,0.6953414591214151,13.0,133.0,0.0
G,D,"[6, 8]",1.0,4.0,0.24257993698120117,1.896834135055542,0.6420556772565629,13.0,134.0,0.0
Y,R,"[6, 9]",1.0,5.0,0.21214914321899414,1.9282031059265137,0.7201594941476935,13.0,135.0,0.0
Y,R,"[6, 10]",1.0,6.0,0.49481201171875,1.8721530437469482,0.375958766875572,13.0,136.0,0.0
R,U,"[5, 10]",1.0,7.0,0.41512107849121094,1.84627103805542,0.4388389991629589,13.0,137.0,0.0
R,U,"[4, 10]",1.0,8.0,0.236159086227417,1.522024154663086,0.29436732075681876,13.0,138.0,0.0
B,L,"[4, 9]",1.0,9.0,0.40047192573547363,2.022665023803711,0.6332995402783894,13.0,139.0,0.0
R,U,"[3, 9]",1.0,10.0,0.2001349925994873,1.6854150295257568,0.48547848106154845,13.0,140.0,0.0
,,"(6, 6)",,,,,,,,
R,U,"[5, 6]",1.0,1.0,0.16399312019348145,2.6943352222442627,0.46303274367194336,14.0,141.0,0.0
Y,R,"[5, 7]",1.0,2.0,0.27276611328125,1.7752821445465088,0.48840293408410107,14.0,142.0,0.0
Y,R,"[5, 8]",1.0,3.0,0.1930251121520996,1.875777006149292,0.6806226386860902,14.0,143.0,0.0
G,D,"[6, 8]",1.0,4.0,0.14800000190734863,1.7960140705108643,0.6432386673069637,14.0,144.0,0.0
Y,R,"[6, 9]",1.0,5.0,0.24343085289001465,1.6605041027069092,0.4206262908216696,14.0,145.0,0.0
Y,R,"[6, 10]",1.0,6.0,0.28212499618530273,1.7963590621948242,0.5168430327492053,14.0,146.0,0.0
R,U,"[5, 10]",1.0,7.0,0.25478601455688477,1.5078911781311035,0.258173932698189,14.0,147.0,0.0
R,U,"[4, 10]",1.0,8.0,0.2887380123138428,1.630295991897583,0.35514335373342665,14.0,148.0,0.0
B,L,"[4, 9]",1.0,9.0,0.3343541622161865,1.826002836227417,0.4976159821462496,14.0,149.0,0.0
R,U,"[3, 9]",1.0,10.0,0.21800994873046875,1.6089329719543457,0.3898436009055597,14.0,150.0,0.0
,,"(6, 6)",,,,,,,,
R,U,"[5, 6]",1.0,1.0,0.190155029296875,3.247143030166626,0.2871300827066644,15.0,151.0,0.0
Y,R,"[5, 7]",1.0,2.0,0.2792551517486572,1.807586908340454,0.527773220516964,15.0,152.0,0.0
Y,R,"[5, 8]",1.0,3.0,0.2159559726715088,1.6474649906158447,0.44191464282846704,15.0,153.0,0.0
G,D,"[6, 8]",1.0,4.0,0.23191595077514648,1.7101879119873047,0.48538341471265867,15.0,154.0,0.0
Y,R,"[6, 9]",1.0,5.0,0.2624969482421875,1.814408779144287,0.5496830598253015,15.0,155.0,0.0
Y,R,"[6, 10]",1.0,6.0,0.23564600944519043,1.7579920291900635,0.5244053286486038,15.0,156.0,0.0
R,U,"[5, 10]",1.0,7.0,0.605201005935669,2.1585681438446045,0.5495409495398738,15.0,157.0,0.0
R,U,"[4, 10]",1.0,8.0,0.24286103248596191,1.6727209091186523,0.42221256409775637,15.0,158.0,0.0
B,L,"[4, 9]",1.0,9.0,0.25977087020874023,1.5632109642028809,0.30223546001036794,15.0,159.0,0.0
R,U,"[3, 9]",1.0,10.0,0.17449402809143066,1.8462719917297363,0.6648438676478337,15.0,160.0,0.0
,,"(6, 6)",,,,,,,,
R,U,"[5, 6]",1.0,1.0,0.20037102699279785,2.4629509449005127,0.6776172927819376,16.0,161.0,0.0
Y,R,"[5, 7]",1.0,2.0,0.18346214294433594,1.5390470027923584,0.36694472868496264,16.0,162.0,0.0
Y,R,"[5, 8]",1.0,3.0,0.26885008811950684,1.7299089431762695,0.4634435211038856,16.0,163.0,0.0
G,D,"[6, 8]",1.0,4.0,0.2431650161743164,1.5849719047546387,0.3319207538767714,16.0,164.0,0.0
Y,R,"[6, 9]",1.0,5.0,0.42377805709838867,1.7239689826965332,0.2892624426027982,16.0,165.0,0.0
Y,R,"[6, 10]",1.0,6.0,0.3211548328399658,1.8034210205078125,0.49239493325261924,16.0,166.0,0.0
R,U,"[5, 10]",1.0,7.0,0.30613207817077637,1.6490809917449951,0.34157730962584604,16.0,167.0,0.0
R,U,"[4, 10]",1.0,8.0,0.27605199813842773,1.7708580493927002,0.4956040024358616,16.0,168.0,0.0
B,L,"[4, 9]",1.0,9.0,0.2517669200897217,1.5394020080566406,0.28510905338239423,16.0,169.0,0.0
R,U,"[3, 9]",1.0,10.0,0.6223568916320801,2.206511974334717,0.5747517085615552,16.0,170.0,0.0
,,"(6, 6)",,,,,,,,
R,U,"[5, 6]",1.0,1.0,0.31679821014404297,2.0783259868621826,0.43643731917845835,17.0,171.0,0.0
Y,R,"[5, 7]",1.0,2.0,0.27504396438598633,1.8432447910308838,0.5632156683629643,17.0,172.0,0.0
Y,R,"[5, 8]",1.0,3.0,0.20606303215026855,1.9041259288787842,0.683467592830233,17.0,173.0,0.0
G,D,"[6, 8]",1.0,4.0,0.21405911445617676,1.6008918285369873,0.38463532506353876,17.0,174.0,0.0
Y,R,"[6, 9]",1.0,5.0,0.23907804489135742,1.6054589748382568,0.3566840251262913,17.0,175.0,0.0
Y,R,"[6, 10]",1.0,6.0,0.249039888381958,1.8024780750274658,0.5590422297780466,17.0,176.0,0.0
R,U,"[5, 10]",1.0,7.0,0.2641310691833496,1.6846809387207031,0.4270654332135473,17.0,177.0,0.0
R,U,"[4, 10]",1.0,8.0,0.244704008102417,1.6725780963897705,0.4328540304706818,17.0,178.0,0.0
B,L,"[4, 9]",1.0,9.0,0.24639606475830078,1.6089351177215576,0.35865380114995987,17.0,179.0,0.0
R,U,"[3, 9]",1.0,10.0,0.27268409729003906,1.7004940509796143,0.4257190831110776,17.0,180.0,0.0
,,"(6, 6)",,,,,,,,
R,U,"[5, 6]",1.0,1.0,0.12728190422058105,2.8542518615722656,0.7295468103450582,18.0,181.0,0.0
Y,R,"[5, 7]",1.0,2.0,0.1936030387878418,1.69980788230896,0.49627294678801737,18.0,182.0,0.0
Y,R,"[5, 8]",1.0,3.0,0.2166440486907959,1.9325909614562988,0.7118074957548501,18.0,183.0,0.0
G,D,"[6, 8]",1.0,4.0,0.2503988742828369,1.571930170059204,0.3175439870629936,18.0,184.0,0.0
Y,R,"[6, 9]",1.0,5.0,0.25660109519958496,2.010664224624634,0.7443417225327257,18.0,185.0,0.0
Y,R,"[6, 10]",1.0,6.0,0.2125089168548584,1.9017319679260254,0.6960556918236613,18.0,186.0,0.0
R,U,"[5, 10]",1.0,7.0,0.2538900375366211,1.741002082824707,0.4871999456425887,18.0,187.0,0.0
R,U,"[4, 10]",1.0,8.0,0.2307889461517334,1.9131009578704834,0.6835164841893673,18.0,188.0,0.0
B,L,"[4, 9]",1.0,9.0,0.2941548824310303,1.6354050636291504,0.3359632196720378,18.0,189.0,0.0
R,U,"[3, 9]",1.0,10.0,0.4125030040740967,1.982922077178955,0.5689140154443342,18.0,190.0,0.0
,,"(6, 6)",,,,,,,,
R,U,"[5, 6]",1.0,1.0,0.307373046875,2.525615930557251,0.6107349779782205,19.0,191.0,0.0
Y,R,"[5, 7]",1.0,2.0,0.49648189544677734,2.0917069911956787,0.6024308483447034,19.0,192.0,0.0
Y,R,"[5, 8]",1.0,3.0,0.2635021209716797,1.7768349647521973,0.5125267807810372,19.0,193.0,0.0
G,D,"[6, 8]",1.0,4.0,0.2594180107116699,1.946986198425293,0.6761355463903166,19.0,194.0,0.0
Y,R,"[6, 9]",1.0,5.0,0.2447509765625,1.6429741382598877,0.4026826351757711,19.0,195.0,0.0
Y,R,"[6, 10]",1.0,6.0,0.3076820373535156,2.0235979557037354,0.7091424553971426,19.0,196.0,0.0
R,U,"[5, 10]",1.0,7.0,0.3190269470214844,1.9119038581848145,0.6044170327720817,19.0,197.0,0.0
R,U,"[4, 10]",1.0,8.0,0.358137845993042,1.7438068389892578,0.38179996730439064,19.0,198.0,0.0
B,L,"[4, 9]",1.0,9.0,0.37236595153808594,1.9498579502105713,0.5817865283049894,19.0,199.0,0.0
R,U,"[3, 9]",1.0,10.0,0.23672699928283691,1.7282521724700928,0.4931459591093141,19.0,200.0,0.0
,,"(6, 6)",,,,,,,,
R,U,"[5, 6]",1.0,1.0,0.21153783798217773,2.5119709968566895,0.5882804548079257,20.0,201.0,0.0
Y,R,"[5, 7]",1.0,2.0,0.19626903533935547,1.4777519702911377,0.28286009357297964,20.0,202.0,0.0
Y,R,"[5, 8]",1.0,3.0,0.22870898246765137,1.9239790439605713,0.6897312971004095,20.0,203.0,0.0
G,D,"[6, 8]",1.0,4.0,0.2209160327911377,1.686279058456421,0.4762419750698659,20.0,204.0,0.0
Y,R,"[6, 9]",1.0,5.0,0.24959802627563477,1.8170149326324463,0.576351058705068,20.0,205.0,0.0
Y,R,"[6, 10]",1.0,6.0,0.24088692665100098,1.7834851741790771,0.5432365864560558,20.0,206.0,0.0
R,U,"[5, 10]",1.0,7.0,0.3655979633331299,1.9468231201171875,0.5903803507145677,20.0,207.0,0.0
R,U,"[4, 10]",-2.0,7.0,1.006972074508667,2.4959909915924072,0.5194156548725368,20.0,208.0,0.0
B,L,"[4, 9]",1.0,8.0,0.3460268974304199,1.6905078887939453,0.34333195322982324,20.0,209.0,0.0
R,U,"[3, 9]",1.0,9.0,0.2402181625366211,1.63423490524292,0.3941925007203908,20.0,210.0,0.0
,,"(6, 6)",,,,,,,,
R,U,"[5, 6]",-1.0,0.0,0.09380197525024414,6.307270050048828,0.7178678064429269,21.0,211.0,0.0
Y,R,"[5, 7]",1.0,1.0,0.3911600112915039,1.937917947769165,0.5390077150524193,21.0,212.0,0.0
Y,R,"[5, 8]",1.0,2.0,0.357388973236084,1.7494499683380127,0.38864392589321867,21.0,213.0,0.0
G,D,"[6, 8]",1.0,3.0,0.19783282279968262,1.9348881244659424,0.7396925757105747,21.0,214.0,0.0
Y,R,"[6, 9]",1.0,4.0,0.16247797012329102,1.4872660636901855,0.32727898210956263,21.0,215.0,0.0
Y,R,"[6, 10]",1.0,5.0,0.3963310718536377,1.9356610774993896,0.5461790114123635,21.0,216.0,0.0
R,U,"[5, 10]",1.0,6.0,0.35013890266418457,1.996258020401001,0.6421791330945253,21.0,217.0,0.0
R,U,"[4, 10]",1.0,7.0,0.2587299346923828,1.8104000091552734,0.5527270622790966,21.0,218.0,0.0
B,L,"[4, 9]",1.0,8.0,0.2701408863067627,1.5175211429595947,0.25371904311379656,21.0,219.0,0.0
R,U,"[3, 9]",1.0,9.0,0.3873879909515381,1.6740679740905762,0.2945163891732202,21.0,220.0,0.0
,,"(6, 6)",,,,,,,,
R,U,"[5, 6]",1.0,1.0,0.19278907775878906,3.0782549381256104,0.655677264421726,22.0,221.0,0.0
Y,R,"[5, 7]",1.0,2.0,0.1743450164794922,1.7087180614471436,0.5311050563752001,22.0,222.0,0.0
Y,R,"[5, 8]",1.0,3.0,0.31471800804138184,1.758777141571045,0.43986634802131713,22.0,223.0,0.0
G,D,"[6, 8]",1.0,4.0,0.23465991020202637,1.8753080368041992,0.6483881133341564,22.0,224.0,0.0
Y,R,"[6, 9]",1.0,5.0,0.32736802101135254,1.6272869110107422,0.29261192697980287,22.0,225.0,0.0
Y,R,"[6, 10]",1.0,6.0,0.32668185234069824,1.8532321453094482,0.5289522876208437,22.0,226.0,0.0
R,U,"[5, 10]",1.0,7.0,0.31599903106689453,1.7127480506896973,0.3918060958373304,22.0,227.0,0.0
R,U,"[4, 10]",1.0,8.0,0.39496898651123047,1.6895627975463867,0.2980509214187632,22.0,228.0,0.0
B,L,"[4, 9]",1.0,9.0,0.26113009452819824,1.9356420040130615,0.6666186630081388,22.0,229.0,0.0
R,U,"[3, 9]",1.0,10.0,0.20891809463500977,1.593912124633789,0.37747018994113957,22.0,230.0,0.0
,,"(6, 6)",,,,,,,,
R,U,"[5, 6]",1.0,1.0,0.14951419830322266,2.256636142730713,0.7336171585348672,23.0,231.0,0.0
Y,R,"[5, 7]",1.0,2.0,0.17626404762268066,1.8044259548187256,0.6215461653519383,23.0,232.0,0.0
Y,R,"[5, 8]",1.0,3.0,0.21460914611816406,1.7111539840698242,0.49946324608653025,23.0,233.0,0.0
G,D,"[6, 8]",1.0,4.0,0.19993305206298828,1.8179430961608887,0.6172149660670896,23.0,234.0,0.0
Y,R,"[6, 9]",1.0,5.0,0.1755228042602539,1.9193720817565918,0.7364667574534969,23.0,235.0,0.0
Y,R,"[6, 10]",1.0,6.0,0.19671893119812012,1.4889531135559082,0.29246286899126983,23.0,236.0,0.0
R,U,"[5, 10]",1.0,7.0,0.264268159866333,1.607384204864502,0.34971600983991036,23.0,237.0,0.0
R,U,"[4, 10]",1.0,8.0,0.2245478630065918,1.783747911453247,0.5498808035606164,23.0,238.0,0.0
B,L,"[4, 9]",1.0,9.0,0.20417404174804688,1.7284049987792969,0.528303002295045,23.0,239.0,0.0
R,U,"[3, 9]",1.0,10.0,0.20527195930480957,1.4537920951843262,0.2656480223329181,23.0,240.0,0.0
,,"(6, 6)",,,,,,,,
R,U,"[5, 6]",1.0,1.0,0.3770029544830322,2.3683278560638428,0.7002198603696954,24.0,241.0,0.0
Y,R,"[5, 7]",1.0,2.0,0.23175406455993652,1.860647201538086,0.6275891968499108,24.0,242.0,0.0
Y,R,"[5, 8]",1.0,3.0,0.18647384643554688,1.4603559970855713,0.2882014358605251,24.0,243.0,0.0
G,D,"[6, 8]",1.0,4.0,0.2592008113861084,1.7852988243103027,0.5235035488280728,24.0,244.0,0.0
Y,R,"[6, 9]",1.0,5.0,0.19962596893310547,1.7119410037994385,0.5184982826454685,24.0,245.0,0.0
Y,R,"[6, 10]",1.0,6.0,0.20440196990966797,1.7759480476379395,0.5775497480552728,24.0,246.0,0.0
R,U,"[5, 10]",1.0,7.0,0.24460601806640625,1.8664119243621826,0.6273368064040528,24.0,247.0,0.0
R,U,"[4, 10]",1.0,8.0,0.21048998832702637,1.767063856124878,0.5610719504513249,24.0,248.0,0.0
B,L,"[4, 9]",1.0,9.0,0.24267196655273438,1.5770978927612305,0.33841446306930506,24.0,249.0,0.0
R,U,"[3, 9]",1.0,10.0,0.27403807640075684,1.979036808013916,0.7003702715149362,24.0,250.0,0.0
,,"(6, 6)",,,,,,,,
R,U,"[5, 6]",1.0,1.0,0.26102495193481445,2.962167978286743,0.6291032010166624,25.0,251.0,0.0
Y,R,"[5, 7]",1.0,2.0,0.17409086227416992,1.8637990951538086,0.6763232631221052,25.0,252.0,0.0
Y,R,"[5, 8]",1.0,3.0,0.1940009593963623,1.8281381130218506,0.6376508324250472,25.0,253.0,0.0
G,D,"[6, 8]",1.0,4.0,0.36447620391845703,1.728039026260376,0.365908198427865,25.0,254.0,0.0
Y,R,"[6, 9]",1.0,5.0,0.3663790225982666,1.987441062927246,0.6197983060921204,25.0,255.0,0.0
Y,R,"[6, 10]",1.0,6.0,0.23998808860778809,1.7406418323516846,0.4938828671475562,25.0,256.0,0.0
R,U,"[5, 10]",1.0,7.0,0.35458993911743164,1.9224259853363037,0.5828668801789251,25.0,257.0,0.0
R,U,"[4, 10]",1.0,8.0,0.23625516891479492,1.9020459651947021,0.6681230693661708,25.0,258.0,0.0
B,L,"[4, 9]",1.0,9.0,0.2353038787841797,1.9119970798492432,0.6800609255630279,25.0,259.0,0.0
R,U,"[3, 9]",1.0,10.0,0.26775288581848145,1.7525179386138916,0.4827365604233775,25.0,260.0,0.0
,,"(6, 6)",,,,,,,,
R,U,"[5, 6]",1.0,1.0,0.4473538398742676,2.325650930404663,0.5748649066796312,26.0,261.0,0.0
Y,R,"[5, 7]",1.0,2.0,0.4148900508880615,1.9803919792175293,0.5718669295705824,26.0,262.0,0.0
Y,R,"[5, 8]",1.0,3.0,0.2137458324432373,1.5771949291229248,0.36591523857153,26.0,263.0,0.0
G,D,"[6, 8]",1.0,4.0,0.3202211856842041,2.0416319370269775,0.7238631442316587,26.0,264.0,0.0
Y,R,"[6, 9]",1.0,5.0,0.18283700942993164,1.708996057510376,0.5329788071793232,26.0,265.0,0.0
Y,R,"[6, 10]",1.0,6.0,0.3031339645385742,2.0039730072021484,0.703438675754686,26.0,266.0,0.0
R,U,"[5, 10]",1.0,7.0,0.4971790313720703,2.0221190452575684,0.5256797965174014,26.0,267.0,0.0
R,U,"[4, 10]",1.0,8.0,0.34647512435913086,2.008543014526367,0.6674095127251626,26.0,268.0,0.0
B,L,"[4, 9]",1.0,9.0,0.26274895668029785,1.9166779518127441,0.6505852093467571,26.0,269.0,0.0
R,U,"[3, 9]",1.0,10.0,0.2811598777770996,2.0203311443328857,0.7375710368394295,26.0,270.0,0.0
,,"(6, 6)",,,,,,,,
R,U,"[5, 6]",1.0,1.0,0.3001389503479004,2.451647996902466,0.4726650309126563,27.0,271.0,0.0
Y,R,"[5, 7]",1.0,2.0,0.4134030342102051,1.7163069248199463,0.30585504693415383,27.0,272.0,0.0
Y,R,"[5, 8]",1.0,3.0,0.9807608127593994,2.721101999282837,0.7430750335333705,27.0,273.0,0.0
G,D,"[6, 8]",1.0,4.0,0.23407793045043945,1.9115309715270996,0.6880130349298295,27.0,274.0,0.0
Y,R,"[6, 9]",1.0,5.0,0.31591296195983887,1.5744140148162842,0.2627116205071035,27.0,275.0,0.0
Y,R,"[6, 10]",1.0,6.0,0.2950129508972168,1.849318027496338,0.5451439200525625,27.0,276.0,0.0
R,U,"[5, 10]",1.0,7.0,0.20543599128723145,1.4702389240264893,0.28232251805443653,27.0,277.0,0.0
R,U,"[4, 10]",1.0,8.0,0.1904890537261963,1.6813888549804688,0.480097839584736,27.0,278.0,0.0
B,L,"[4, 9]",1.0,9.0,0.2780141830444336,1.9816219806671143,0.6948051092832827,27.0,279.0,0.0
R,U,"[3, 9]",1.0,10.0,0.2122199535369873,1.793769121170044,0.5886067328431496,27.0,280.0,0.0
,,"(6, 6)",,,,,,,,
R,U,"[5, 6]",1.0,1.0,0.13798904418945312,3.5135929584503174,0.5687346423749526,28.0,281.0,0.0
Y,R,"[5, 7]",1.0,2.0,0.1996448040008545,1.6593618392944336,0.46155501304650126,28.0,282.0,0.0
Y,R,"[5, 8]",1.0,3.0,0.24357819557189941,1.5289020538330078,0.2905441465117828,28.0,283.0,0.0
G,D,"[6, 8]",1.0,4.0,0.3102240562438965,1.7230432033538818,0.413516981119622,28.0,284.0,0.0
Y,R,"[6, 9]",1.0,5.0,0.24925589561462402,1.744278907775879,0.49101270139262254,28.0,285.0,0.0
Y,R,"[6, 10]",1.0,6.0,0.22083020210266113,1.7912909984588623,0.582176082698715,28.0,286.0,0.0
R,U,"[5, 10]",1.0,7.0,0.26560497283935547,1.922178030014038,0.6543060332113396,28.0,287.0,0.0
R,U,"[4, 10]",1.0,8.0,0.18975400924682617,1.4623699188232422,0.2669262448895053,28.0,288.0,0.0
B,L,"[4, 9]",1.0,9.0,0.3222081661224365,1.731604814529419,0.4151074100329308,28.0,289.0,0.0
R,U,"[3, 9]",1.0,10.0,0.28786706924438477,2.0318539142608643,0.7465147982995788,28.0,290.0,0.0
,,"(6, 6)",,,,,,,,
R,U,"[5, 6]",1.0,1.0,0.31532788276672363,2.1882688999176025,0.5517831789910956,29.0,291.0,0.0
Y,R,"[5, 7]",1.0,2.0,0.2574160099029541,1.9699959754943848,0.7047805910290619,29.0,292.0,0.0
Y,R,"[5, 8]",1.0,3.0,0.2314281463623047,1.923957109451294,0.695574933309303,29.0,293.0,0.0
G,D,"[6, 8]",1.0,4.0,0.19312715530395508,1.6158230304718018,0.4114749059890175,29.0,294.0,0.0
Y,R,"[6, 9]",1.0,5.0,0.37319183349609375,2.0118649005889893,0.6396786175033315,29.0,295.0,0.0
Y,R,"[6, 10]",1.0,6.0,0.8720409870147705,2.216265916824341,0.33965292734275726,29.0,296.0,0.0
R,U,"[5, 10]",1.0,7.0,0.46494102478027344,1.8565731048583984,0.39601976305470993,29.0,297.0,0.0
R,U,"[4, 10]",1.0,8.0,0.22806811332702637,1.5099070072174072,0.272628805774882,29.0,298.0,0.0
B,L,"[4, 9]",1.0,9.0,0.3420870304107666,1.597909927368164,0.2539265670612281,29.0,299.0,0.0
R,U,"[3, 9]",1.0,10.0,0.3760972023010254,1.8455469608306885,0.46587576044065726,29.0,300.0,0.0
,,"(6, 6)",,,,,,,,
R,U,"[5, 6]",1.0,1.0,0.4461519718170166,2.6697981357574463,0.7353767804614655,30.0,301.0,0.0
Y,R,"[5, 7]",1.0,2.0,0.33592987060546875,1.842607021331787,0.5115225442369958,30.0,302.0,0.0
Y,R,"[5, 8]",1.0,3.0,0.2149639129638672,1.7043709754943848,0.4991821511186845,30.0,303.0,0.0
G,D,"[6, 8]",1.0,4.0,0.26743006706237793,1.8040730953216553,0.5364496912676837,30.0,304.0,0.0
Y,R,"[6, 9]",1.0,5.0,0.338306188583374,1.9668991565704346,0.636497905800826,30.0,305.0,0.0
Y,R,"[6, 10]",1.0,6.0,0.2776451110839844,1.8129479885101318,0.5329634884600658,30.0,306.0,0.0
R,U,"[5, 10]",1.0,7.0,0.25600194931030273,1.8199009895324707,0.5527350644905598,30.0,307.0,0.0
R,U,"[4, 10]",1.0,8.0,0.2043769359588623,1.7211670875549316,0.5239941462902284,30.0,308.0,0.0
B,L,"[4, 9]",1.0,9.0,0.5076479911804199,2.009488105773926,0.4999953715956791,30.0,309.0,0.0
R,U,"[3, 9]",1.0,10.0,0.24090099334716797,1.8907279968261719,0.6406338250517216,30.0,310.0,0.0
,,"(6, 6)",,,,,,,,
R,U,"[5, 6]",1.0,1.0,0.11140203475952148,1.9964470863342285,0.5704315184054833,31.0,311.0,0.0
Y,R,"[5, 7]",1.0,2.0,0.35762810707092285,1.8381519317626953,0.47521147262493596,31.0,312.0,0.0
Y,R,"[5, 8]",1.0,3.0,0.2591979503631592,1.548788070678711,0.2909061110070622,31.0,313.0,0.0
G,D,"[6, 8]",1.0,4.0,0.2684450149536133,1.831265926361084,0.571880628697522,31.0,314.0,0.0
Y,R,"[6, 9]",1.0,5.0,0.2644541263580322,1.8326449394226074,0.5711010412035282,31.0,315.0,0.0
Y,R,"[6, 10]",1.0,6.0,0.3082408905029297,1.5738799571990967,0.26196499893452974,31.0,316.0,0.0
R,U,"[5, 10]",1.0,7.0,0.47665905952453613,1.7554340362548828,0.28400484113644925,31.0,317.0,0.0
R,U,"[4, 10]",1.0,8.0,0.3751699924468994,2.132532835006714,0.7493801227201696,31.0,318.0,0.0
B,L,"[4, 9]",1.0,9.0,0.37805795669555664,1.6892118453979492,0.3055982717828951,31.0,319.0,0.0
R,U,"[3, 9]",1.0,10.0,0.434736967086792,2.060615062713623,0.6324892973613008,31.0,320.0,0.0
,,"(6, 6)",,,,,,,,
R,U,"[5, 6]",1.0,1.0,0.19852399826049805,2.6307170391082764,0.5133654038383313,32.0,321.0,0.0
Y,R,"[5, 7]",1.0,2.0,0.7246360778808594,2.0178868770599365,0.2814510936376184,32.0,322.0,0.0
Y,R,"[5, 8]",1.0,3.0,0.2677929401397705,1.642571210861206,0.3738965568423358,32.0,323.0,0.0
G,D,"[6, 8]",1.0,4.0,0.23242592811584473,1.795971155166626,0.5695178243759094,32.0,324.0,0.0
Y,R,"[6, 9]",1.0,5.0,0.1864609718322754,1.677009105682373,0.4966797807831315,32.0,325.0,0.0
R,U,"[5, 9]",0.0,5.0,0.21505093574523926,1.847611904144287,0.627344836635495,32.0,326.0,0.0
R,U,"[4, 9]",1.0,6.0,0.19276905059814453,1.6663401126861572,0.4772339123890309,32.0,327.0,0.0
B,L,"[4, 8]",0.0,6.0,0.24210095405578613,1.5509719848632812,0.31162667336178057,32.0,328.0,0.0
R,U,"[3, 8]",0.0,6.0,0.2970700263977051,1.7602458000183105,0.4717326166009498,32.0,329.0,0.0
R,U,"[2, 8]",0.0,6.0,0.4184131622314453,1.8892159461975098,0.4774813309199204,32.0,330.0,0.0
,,"(6, 6)",,,,,,,,
R,U,"[5, 6]",1.0,1.0,0.19448089599609375,3.292752981185913,0.45357339237552396,33.0,331.0,0.0
Y,R,"[5, 7]",1.0,2.0,0.27799415588378906,1.9683830738067627,0.6882854007233257,33.0,332.0,0.0
Y,R,"[5, 8]",1.0,3.0,0.22132515907287598,1.49674391746521,0.2854691219063502,33.0,333.0,0.0
G,D,"[6, 8]",1.0,4.0,0.2783191204071045,1.6460580825805664,0.3647369200005489,33.0,334.0,0.0
Y,R,"[6, 9]",1.0,5.0,0.2923271656036377,1.7284200191497803,0.4263192012301666,33.0,335.0,0.0
Y,R,"[6, 10]",1.0,6.0,0.2916550636291504,1.9264848232269287,0.6360369232912093,33.0,336.0,0.0
R,U,"[5, 10]",1.0,7.0,0.23733901977539062,1.9467828273773193,0.7160359711649984,33.0,337.0,0.0
R,U,"[4, 10]",1.0,8.0,0.6233201026916504,1.9699928760528564,0.33628066005837687,33.0,338.0,0.0
B,L,"[4, 9]",1.0,9.0,0.6166009902954102,2.1604819297790527,0.5464635675233913,33.0,339.0,0.0
R,U,"[3, 9]",1.0,10.0,0.23189210891723633,1.5134179592132568,0.2768169875777299,33.0,340.0,0.0
,,"(6, 6)",,,,,,,,
R,U,"[5, 6]",1.0,1.0,0.40018796920776367,2.7412099838256836,0.6843907650724926,34.0,341.0,0.0
Y,R,"[5, 7]",1.0,2.0,0.17616796493530273,1.4574859142303467,0.27539205268273337,34.0,342.0,0.0
Y,R,"[5, 8]",1.0,3.0,0.6949200630187988,2.2888050079345703,0.5971612328847121,34.0,343.0,0.0
G,D,"[6, 8]",1.0,4.0,0.23403501510620117,1.4951560497283936,0.25940628655137615,34.0,344.0,0.0
Y,R,"[6, 9]",1.0,5.0,0.3955380916595459,1.8090779781341553,0.41813210242264565,34.0,345.0,0.0
Y,R,"[6, 10]",1.0,6.0,0.3038170337677002,1.7767250537872314,0.4782011311538253,34.0,346.0,0.0
R,U,"[5, 10]",1.0,7.0,0.23413586616516113,1.8911001682281494,0.6689700951672573,34.0,347.0,0.0
R,U,"[4, 10]",1.0,8.0,0.25011396408081055,1.8626840114593506,0.6150739297109532,34.0,348.0,0.0
B,L,"[4, 9]",1.0,9.0,0.2504880428314209,1.5486299991607666,0.29732560407617503,34.0,349.0,0.0
R,U,"[3, 9]",1.0,10.0,0.31645703315734863,1.8574540615081787,0.5379327891894088,34.0,350.0,0.0
,,"(6, 6)",,,,,,,,
R,U,"[5, 6]",1.0,1.0,0.15269899368286133,2.3041269779205322,0.47542950142228463,35.0,351.0,0.0
Y,R,"[5, 7]",1.0,2.0,0.20740199089050293,1.4752559661865234,0.2673514095790626,35.0,352.0,0.0
Y,R,"[5, 8]",1.0,3.0,0.26105499267578125,1.6723380088806152,0.4061860788995991,35.0,353.0,0.0
G,D,"[6, 8]",1.0,4.0,0.3734259605407715,2.0428788661956787,0.6659858485910188,35.0,354.0,0.0
Y,R,"[6, 9]",1.0,5.0,0.20250320434570312,1.7780020236968994,0.5769133793819079,35.0,355.0,0.0
Y,R,"[6, 10]",1.0,6.0,0.17665910720825195,1.8068041801452637,0.6335367639786368,35.0,356.0,0.0
R,U,"[5, 10]",1.0,7.0,0.2500889301300049,1.5419979095458984,0.2926231987463002,35.0,357.0,0.0
R,U,"[4, 10]",1.0,8.0,0.28763604164123535,1.8168940544128418,0.5425797772470133,35.0,358.0,0.0
B,L,"[4, 9]",1.0,9.0,0.26195693016052246,1.5795230865478516,0.3222827716723433,35.0,359.0,0.0
R,U,"[3, 9]",1.0,10.0,0.5676929950714111,2.232680082321167,0.671116139111092,35.0,360.0,0.0
,,"(6, 6)",,,,,,,,
R,U,"[5, 6]",1.0,1.0,0.39630699157714844,2.2743000984191895,0.3793032699679147,36.0,361.0,0.0
Y,R,"[5, 7]",1.0,2.0,0.33498692512512207,1.622563123703003,0.2848741214892147,36.0,362.0,0.0
Y,R,"[5, 8]",1.0,3.0,0.5035431385040283,1.8248109817504883,0.32636985481944636,36.0,363.0,0.0
G,D,"[6, 8]",1.0,4.0,0.28600287437438965,1.560420036315918,0.2867039751160829,36.0,364.0,0.0
Y,R,"[6, 9]",1.0,5.0,0.24390411376953125,1.6139161586761475,0.3672923314978887,36.0,365.0,0.0
R,U,"[5, 9]",0.0,5.0,0.22126507759094238,1.7039909362792969,0.4877755502850811,36.0,366.0,0.0
R,U,"[4, 9]",1.0,6.0,0.3231489658355713,1.9188189506530762,0.5897541543571263,36.0,367.0,0.0
R,U,"[3, 9]",1.0,7.0,0.23853588104248047,1.654655933380127,0.41111127377293566,36.0,368.0,0.0
B,L,"[3, 8]",0.0,7.0,0.29414987564086914,1.9388611316680908,0.6498183574401161,36.0,369.0,0.0
R,U,"[2, 8]",0.0,7.0,0.1855480670928955,1.4967641830444336,0.31337567752383116,36.0,370.0,0.0
,,"(6, 6)",,,,,,,,
R,U,"[5, 6]",1.0,1.0,0.19102120399475098,3.5579521656036377,0.5211282474256371,37.0,371.0,0.0
Y,R,"[5, 7]",1.0,2.0,0.37042713165283203,1.6742980480194092,0.3121628133708868,37.0,372.0,0.0
Y,R,"[5, 8]",1.0,3.0,0.26810503005981445,1.5444769859313965,0.2733468331825538,37.0,373.0,0.0
G,D,"[6, 8]",1.0,4.0,0.38799214363098145,1.9223909378051758,0.5287034304571836,37.0,374.0,0.0
Y,R,"[6, 9]",1.0,5.0,0.21143412590026855,1.5429160594940186,0.32178842838847116,37.0,375.0,0.0
Y,R,"[6, 10]",1.0,6.0,0.35219407081604004,1.6628518104553223,0.31792265225158606,37.0,376.0,0.0
R,U,"[5, 10]",1.0,7.0,0.36245012283325195,1.8008348941802979,0.43525679422743635,37.0,377.0,0.0
R,U,"[4, 10]",1.0,8.0,0.31442785263061523,1.6759109497070312,0.3613274993791499,37.0,378.0,0.0
B,L,"[4, 9]",1.0,9.0,0.29671812057495117,1.6792709827423096,0.3904062663779737,37.0,379.0,0.0
R,U,"[3, 9]",1.0,10.0,0.2474830150604248,1.806041955947876,0.5627812484553976,37.0,380.0,0.0
,,"(6, 6)",,,,,,,,
R,U,"[5, 6]",1.0,1.0,0.3612558841705322,2.032546043395996,0.26228003107090136,38.0,381.0,0.0
Y,R,"[5, 7]",1.0,2.0,0.4129009246826172,2.0515880584716797,0.6300464397425296,38.0,382.0,0.0
Y,R,"[5, 8]",1.0,3.0,0.2639000415802002,1.6809120178222656,0.41106741359945376,38.0,383.0,0.0
G,D,"[6, 8]",1.0,4.0,0.25161290168762207,1.8047327995300293,0.5656848664155276,38.0,384.0,0.0
Y,R,"[6, 9]",1.0,5.0,0.2200021743774414,1.7963058948516846,0.5786276264677488,38.0,385.0,0.0
Y,R,"[6, 10]",1.0,6.0,0.37114500999450684,2.0625970363616943,0.6742907114082903,38.0,386.0,0.0
R,U,"[5, 10]",1.0,7.0,0.259990930557251,1.7388529777526855,0.48003765991356834,38.0,387.0,0.0
R,U,"[4, 10]",1.0,8.0,0.3159658908843994,1.777580976486206,0.45748329457619313,38.0,388.0,0.0
B,L,"[4, 9]",1.0,9.0,0.2553689479827881,1.9359209537506104,0.6764837741139174,38.0,389.0,0.0
R,U,"[3, 9]",1.0,10.0,0.2269120216369629,1.6651380062103271,0.4419690498909002,38.0,390.0,0.0
,,"(6, 6)",,,,,,,,
R,U,"[5, 6]",1.0,1.0,0.27321410179138184,2.4813458919525146,0.6394955848214346,39.0,391.0,0.0
Y,R,"[5, 7]",1.0,2.0,0.30896615982055664,1.632431983947754,0.32226347729206095,39.0,392.0,0.0
Y,R,"[5, 8]",1.0,3.0,0.3855400085449219,1.920888900756836,0.5427684762450289,39.0,393.0,0.0
G,D,"[6, 8]",1.0,4.0,0.2579488754272461,1.9766578674316406,0.7193309485827426,39.0,394.0,0.0
Y,R,"[6, 9]",1.0,5.0,0.26859593391418457,1.9705779552459717,0.7065032657394681,39.0,395.0,0.0
Y,R,"[6, 10]",1.0,6.0,0.25290918350219727,1.527674913406372,0.28454766465312864,39.0,396.0,0.0
R,U,"[5, 10]",1.0,7.0,0.320537805557251,1.7443041801452637,0.4286074818498495,39.0,397.0,0.0
R,U,"[4, 10]",1.0,8.0,0.37982797622680664,1.927556037902832,0.5560246983898234,39.0,398.0,0.0
B,L,"[4, 9]",1.0,9.0,0.26582813262939453,1.8476710319519043,0.586879031972485,39.0,399.0,0.0
R,U,"[3, 9]",1.0,10.0,0.2638998031616211,1.6540358066558838,0.3910706869053508,39.0,400.0,0.0
,,"(6, 6)",,,,,,,,
R,U,"[5, 6]",1.0,1.0,0.3576951026916504,2.478355884552002,0.5526609710256327,40.0,401.0,0.0
Y,R,"[5, 7]",1.0,2.0,0.3704500198364258,1.8684449195861816,0.5043023912349774,40.0,402.0,0.0
Y,R,"[5, 8]",1.0,3.0,0.32730889320373535,1.8451039791107178,0.5159745221997858,40.0,403.0,0.0
G,D,"[6, 8]",1.0,4.0,0.19478607177734375,1.7716901302337646,0.5708919851041847,40.0,404.0,0.0
Y,R,"[6, 9]",1.0,5.0,0.3072550296783447,1.5973410606384277,0.2850916254740675,40.0,405.0,0.0
Y,R,"[6, 10]",1.0,6.0,0.369049072265625,1.9823100566864014,0.616922343618059,40.0,406.0,0.0
R,U,"[5, 10]",1.0,7.0,0.2887308597564697,1.8797929286956787,0.5968434572063981,40.0,407.0,0.0
R,U,"[4, 10]",1.0,8.0,0.35343194007873535,1.813133955001831,0.46002091473136836,40.0,408.0,0.0
B,L,"[4, 9]",1.0,9.0,0.3723330497741699,1.625317096710205,0.25205869296339767,40.0,409.0,0.0
R,U,"[3, 9]",1.0,10.0,0.3319718837738037,1.7865841388702393,0.4550202804402535,40.0,410.0,0.0
,,"(6, 6)",,,,,,,,
R,U,"[5, 6]",1.0,1.0,0.22404003143310547,2.4422290325164795,0.3806775535616468,41.0,411.0,0.0
Y,R,"[5, 7]",1.0,2.0,0.31462907791137695,1.9413731098175049,0.621641746116778,41.0,412.0,0.0
Y,R,"[5, 8]",1.0,3.0,0.22029995918273926,1.9175269603729248,0.7057939866129266,41.0,413.0,0.0
G,D,"[6, 8]",1.0,4.0,0.18061089515686035,1.8275909423828125,0.6500583010623667,41.0,414.0,0.0
Y,R,"[6, 9]",1.0,5.0,0.28351593017578125,1.724761962890625,0.441615041439605,41.0,415.0,0.0
Y,R,"[6, 10]",1.0,6.0,0.29267191886901855,1.935655117034912,0.6436621099003133,41.0,416.0,0.0
R,U,"[5, 10]",1.0,7.0,0.3082120418548584,1.7626011371612549,0.45631085712251385,41.0,417.0,0.0
R,U,"[4, 10]",1.0,8.0,0.22457289695739746,1.972391128540039,0.7451214546308442,41.0,418.0,0.0
B,L,"[4, 9]",1.0,9.0,0.27123594284057617,2.0050930976867676,0.7335039081828032,41.0,419.0,0.0
R,U,"[3, 9]",1.0,10.0,0.24828410148620605,1.7506539821624756,0.5009582901505756,41.0,420.0,0.0
,,"(6, 6)",,,,,,,,
R,U,"[5, 6]",1.0,1.0,0.25066494941711426,2.030423879623413,0.26485311982692183,42.0,421.0,0.0
Y,R,"[5, 7]",1.0,2.0,0.3669121265411377,1.870163917541504,0.5014307838674139,42.0,422.0,0.0
Y,R,"[5, 8]",1.0,3.0,0.3961799144744873,1.849855899810791,0.4512691240897945,42.0,423.0,0.0
G,D,"[6, 8]",1.0,4.0,0.28765392303466797,1.5453898906707764,0.26333747648202893,42.0,424.0,0.0
Y,R,"[6, 9]",1.0,5.0,0.3502027988433838,2.080641984939575,0.7269357959114089,42.0,425.0,0.0
Y,R,"[6, 10]",1.0,6.0,0.21950483322143555,1.5591280460357666,0.3530024565909172,42.0,426.0,0.0
R,U,"[5, 10]",1.0,7.0,0.3028130531311035,1.7901499271392822,0.4929232015325769,42.0,427.0,0.0
R,U,"[4, 10]",1.0,8.0,0.23643708229064941,1.641465187072754,0.4177223743659008,42.0,428.0,0.0
B,L,"[4, 9]",1.0,9.0,0.31595897674560547,1.8779990673065186,0.5622961034730698,42.0,429.0,0.0
R,U,"[3, 9]",1.0,10.0,0.2970869541168213,1.5949900150299072,0.29085052875254236,42.0,430.0,0.0
,,"(6, 6)",,,,,,,,
R,U,"[5, 6]",1.0,1.0,0.23166108131408691,2.047825813293457,0.35515057809346595,43.0,431.0,0.0
Y,R,"[5, 7]",1.0,2.0,0.6386928558349609,1.8817548751831055,0.25366106620577183,43.0,432.0,0.0
Y,R,"[5, 8]",1.0,3.0,0.3773350715637207,1.7011408805847168,0.32136260180627674,43.0,433.0,0.0
G,D,"[6, 8]",1.0,4.0,0.565241813659668,2.1006178855895996,0.5382053457910618,43.0,434.0,0.0
Y,R,"[6, 9]",1.0,5.0,0.362468957901001,1.977860927581787,0.6160124107534984,43.0,435.0,0.0
Y,R,"[6, 10]",1.0,6.0,0.23196697235107422,1.5162529945373535,0.2825895350661214,43.0,436.0,0.0
R,U,"[5, 10]",1.0,7.0,0.30235791206359863,1.761888027191162,0.46087187902098536,43.0,437.0,0.0
R,U,"[4, 10]",1.0,8.0,0.2843201160430908,1.9173500537872314,0.6446871189517767,43.0,438.0,0.0
B,L,"[4, 9]",1.0,9.0,0.23663091659545898,1.8745288848876953,0.6524161297836718,43.0,439.0,0.0
R,U,"[3, 9]",1.0,10.0,0.21529507637023926,1.807154893875122,0.5928760549237282,43.0,440.0,0.0
,,"(6, 6)",,,,,,,,
R,U,"[5, 6]",1.0,1.0,0.3674299716949463,1.9288089275360107,0.25524241456870006,44.0,441.0,0.0
Y,R,"[5, 7]",1.0,2.0,0.43102407455444336,2.0851731300354004,0.6567699912069301,44.0,442.0,0.0
Y,R,"[5, 8]",1.0,3.0,0.22072100639343262,1.9451260566711426,0.7183251113927218,44.0,443.0,0.0
G,D,"[6, 8]",1.0,4.0,0.23862099647521973,1.8506410121917725,0.6024189690707519,44.0,444.0,0.0
Y,R,"[6, 9]",1.0,5.0,0.266542911529541,1.8995909690856934,0.635182537091133,44.0,445.0,0.0
Y,R,"[6, 10]",1.0,6.0,0.24355316162109375,1.9264161586761475,0.678253860044682,44.0,446.0,0.0
R,U,"[5, 10]",1.0,7.0,0.2715950012207031,1.7656030654907227,0.49415436348145986,44.0,447.0,0.0
R,U,"[4, 10]",1.0,8.0,0.35620689392089844,1.8703620433807373,0.514284000679758,44.0,448.0,0.0
B,L,"[4, 9]",1.0,9.0,0.3009040355682373,1.703125,0.4007828568144448,44.0,449.0,0.0
R,U,"[3, 9]",1.0,10.0,0.31188011169433594,1.6052958965301514,0.2894605918768264,44.0,450.0,0.0
,,"(6, 6)",,,,,,,,
R,U,"[5, 6]",1.0,1.0,0.27152299880981445,2.7440879344940186,0.3834525153428521,45.0,451.0,0.0
Y,R,"[5, 7]",1.0,2.0,0.268812894821167,1.611825942993164,0.34517241021382167,45.0,452.0,0.0
Y,R,"[5, 8]",1.0,3.0,0.29252195358276367,1.8156750202178955,0.5272573320723069,45.0,453.0,0.0
G,D,"[6, 8]",1.0,4.0,0.22016406059265137,1.6214659214019775,0.4155263231939696,45.0,454.0,0.0
Y,R,"[6, 9]",1.0,5.0,0.26682591438293457,1.9734032154083252,0.705209990058943,45.0,455.0,0.0
Y,R,"[6, 10]",1.0,6.0,0.3030891418457031,1.6250998973846436,0.3306406845436126,45.0,456.0,0.0
R,U,"[5, 10]",1.0,7.0,0.27280211448669434,2.0241100788116455,0.7375624805205239,45.0,457.0,0.0
R,U,"[4, 10]",1.0,8.0,0.7965450286865234,2.3539929389953613,0.5582689376156971,45.0,458.0,0.0
B,L,"[4, 9]",1.0,9.0,0.3240640163421631,1.986327886581421,0.6612098084786642,45.0,459.0,0.0
R,U,"[3, 9]",1.0,10.0,0.23976707458496094,1.4865410327911377,0.26473767674195714,45.0,460.0,0.0
,,"(6, 6)",,,,,,,,
R,U,"[5, 6]",1.0,1.0,0.34775304794311523,2.275470018386841,0.4899461724130134,46.0,461.0,0.0
Y,R,"[5, 7]",1.0,2.0,0.21106600761413574,1.6806039810180664,0.47048943341834887,46.0,462.0,0.0
Y,R,"[5, 8]",1.0,3.0,0.2086658477783203,1.5100021362304688,0.29731323224697204,46.0,463.0,0.0
G,D,"[6, 8]",1.0,4.0,0.2259659767150879,1.8586089611053467,0.6221148526735096,46.0,464.0,0.0
Y,R,"[6, 9]",1.0,5.0,0.23904085159301758,1.6580538749694824,0.413656713943817,46.0,465.0,0.0
Y,R,"[6, 10]",1.0,6.0,0.26047396659851074,1.7953917980194092,0.5259551388499375,46.0,466.0,0.0
R,U,"[5, 10]",1.0,7.0,0.3240029811859131,1.9419670104980469,0.6174390450268477,46.0,467.0,0.0
R,U,"[4, 10]",-1.0,7.0,0.0905008316040039,5.474315166473389,0.30851530537788774,46.0,468.0,0.0
B,L,"[4, 9]",1.0,8.0,0.7843239307403564,2.0962929725646973,0.32133423455435545,46.0,469.0,0.0
R,U,"[3, 9]",1.0,9.0,0.22291898727416992,1.575958013534546,0.34724892089926224,46.0,470.0,0.0
,,"(6, 6)",,,,,,,,
R,U,"[5, 6]",1.0,1.0,0.25759100914001465,2.8506240844726562,0.6642007349680417,47.0,471.0,0.0
Y,R,"[5, 7]",1.0,2.0,0.23085403442382812,1.6478040218353271,0.41217647531709417,47.0,472.0,0.0
Y,R,"[5, 8]",1.0,3.0,0.292896032333374,1.8438730239868164,0.5391970312372196,47.0,473.0,0.0
G,D,"[6, 8]",1.0,4.0,0.27257490158081055,1.9691829681396484,0.6914358844380541,47.0,474.0,0.0
Y,R,"[6, 9]",1.0,5.0,0.23183894157409668,1.5641701221466064,0.33923289017218006,47.0,475.0,0.0
Y,R,"[6, 10]",1.0,6.0,0.33013296127319336,1.6792070865631104,0.3517949967967597,47.0,476.0,0.0
R,U,"[5, 10]",1.0,7.0,0.42394208908081055,1.7263422012329102,0.2947919239825361,47.0,477.0,0.0
R,U,"[4, 10]",1.0,8.0,0.24910497665405273,1.8145790100097656,0.5756017656118885,47.0,478.0,0.0
B,L,"[4, 9]",1.0,9.0,0.2338418960571289,1.7290048599243164,0.5047290822327528,47.0,479.0,0.0
R,U,"[3, 9]",1.0,10.0,0.2801380157470703,1.6965999603271484,0.41803870667214477,47.0,480.0,0.0
,,"(6, 6)",,,,,,,,
R,U,"[5, 6]",1.0,1.0,0.21341681480407715,3.642136812210083,0.5932033494479902,48.0,481.0,0.0
Y,R,"[5, 7]",1.0,2.0,0.18909621238708496,1.5545399188995361,0.38118751085647273,48.0,482.0,0.0
Y,R,"[5, 8]",1.0,3.0,0.349107027053833,1.8217949867248535,0.4695898863481808,48.0,483.0,0.0
G,D,"[6, 8]",-1.0,3.0,0.05378985404968262,5.512409925460815,0.39857290898746656,48.0,484.0,0.0
Y,R,"[6, 9]",1.0,4.0,0.32274603843688965,1.7279319763183594,0.39308939060267867,48.0,485.0,0.0
Y,R,"[6, 10]",1.0,5.0,0.242995023727417,1.631871223449707,0.39151661543157534,48.0,486.0,0.0
R,U,"[5, 10]",1.0,6.0,0.20666289329528809,1.8167319297790527,0.6080591199050261,48.0,487.0,0.0
R,U,"[4, 10]",1.0,7.0,0.21907687187194824,1.7539000511169434,0.5452270067930655,48.0,488.0,0.0
B,L,"[4, 9]",1.0,8.0,0.28228116035461426,1.6896960735321045,0.4017578940958136,48.0,489.0,0.0
R,U,"[3, 9]",1.0,9.0,0.2840909957885742,1.8883600234985352,0.6068457748569875,48.0,490.0,0.0
,,"(6, 6)",,,,,,,,
R,U,"[5, 6]",1.0,1.0,0.6848568916320801,15.379075050354004,0.3352804811979226,49.0,491.0,0.0
Y,R,"[5, 7]",1.0,2.0,0.5127468109130859,2.02880597114563,0.5139894245629438,49.0,492.0,0.0
Y,R,"[5, 8]",1.0,3.0,0.24182701110839844,1.5309069156646729,0.2784015390421298,49.0,493.0,0.0
G,D,"[6, 8]",1.0,4.0,0.3202040195465088,1.934175968170166,0.6288168037921786,49.0,494.0,0.0
Y,R,"[6, 9]",1.0,5.0,0.217149019241333,1.9032700061798096,0.6820137819398076,49.0,495.0,0.0
Y,R,"[6, 10]",1.0,6.0,0.20714998245239258,1.822248935699463,0.6046475951302126,49.0,496.0,0.0
R,U,"[5, 10]",1.0,7.0,0.19340991973876953,1.8786089420318604,0.6826606565754838,49.0,497.0,0.0
R,U,"[4, 10]",1.0,8.0,0.28527402877807617,1.6210191249847412,0.3372654252072288,49.0,498.0,0.0
B,L,"[4, 9]",1.0,9.0,0.25836801528930664,1.8787767887115479,0.6158250513500132,49.0,499.0,0.0
R,U,"[3, 9]",1.0,10.0,0.20304393768310547,1.9406540393829346,0.7395295974038101,49.0,500.0,0.0
,,"(6, 6)",,,,,,,,
R,U,"[5, 6]",1.0,1.0,0.31667113304138184,3.041572093963623,0.4980051754134207,50.0,501.0,0.0
Y,R,"[5, 7]",1.0,2.0,0.32067298889160156,1.7931067943572998,0.4744279335945553,50.0,502.0,0.0
Y,R,"[5, 8]",1.0,3.0,0.20941615104675293,1.7123730182647705,0.503360987479057,50.0,503.0,0.0
G,D,"[6, 8]",1.0,4.0,0.21970605850219727,1.531952142715454,0.31883681448419854,50.0,504.0,0.0
Y,R,"[6, 9]",1.0,5.0,0.3174259662628174,1.939526081085205,0.624981391452629,50.0,505.0,0.0
Y,R,"[6, 10]",1.0,6.0,0.20121479034423828,1.6252820491790771,0.43339946961119635,50.0,506.0,0.0
R,U,"[5, 10]",1.0,7.0,0.2226569652557373,1.8037779331207275,0.5702484708971439,50.0,507.0,0.0
R,U,"[4, 10]",1.0,8.0,0.2577788829803467,1.5859529972076416,0.3229853457272918,50.0,508.0,0.0
B,L,"[4, 9]",1.0,9.0,0.40225887298583984,1.841850996017456,0.44805627945175497,50.0,509.0,0.0
R,U,"[3, 9]",1.0,10.0,0.30030012130737305,1.9574840068817139,0.6552954043526372,50.0,510.0,0.0
,,"(6, 6)",,,,,,,,
R,U,"[5, 6]",1.0,1.0,0.19134306907653809,3.7664010524749756,0.4718309447138603,51.0,511.0,0.0
Y,R,"[5, 7]",1.0,2.0,0.28860998153686523,1.6236848831176758,0.34560710271469197,51.0,512.0,0.0
Y,R,"[5, 8]",1.0,3.0,0.2703890800476074,1.7724809646606445,0.5011586745856256,51.0,513.0,0.0
G,D,"[6, 8]",1.0,4.0,0.3845398426055908,1.653559923171997,0.27148345880062036,51.0,514.0,0.0
Y,R,"[6, 9]",1.0,5.0,0.39234304428100586,2.0800530910491943,0.6844005508571707,51.0,515.0,0.0
Y,R,"[6, 10]",1.0,6.0,0.2102220058441162,1.6217479705810547,0.4064654241675524,51.0,516.0,0.0
R,U,"[5, 10]",1.0,7.0,0.3255319595336914,1.638550043106079,0.31165493174406095,51.0,517.0,0.0
R,U,"[4, 10]",1.0,8.0,0.28818297386169434,1.8339529037475586,0.5620401200672168,51.0,518.0,0.0
B,L,"[4, 9]",1.0,9.0,0.26418113708496094,2.011003017425537,0.7393857812034067,51.0,519.0,0.0
R,U,"[3, 9]",1.0,10.0,0.20318007469177246,1.7965021133422852,0.6027396075949402,51.0,520.0,0.0
,,"(6, 6)",,,,,,,,
R,U,"[5, 6]",1.0,1.0,0.21027302742004395,3.457077980041504,0.7261439171169612,52.0,521.0,0.0
Y,R,"[5, 7]",1.0,2.0,0.221297025680542,1.475419044494629,0.2686791834595033,52.0,522.0,0.0
Y,R,"[5, 8]",1.0,3.0,0.28784918785095215,1.892543077468872,0.610923711103607,52.0,523.0,0.0
G,D,"[6, 8]",1.0,4.0,0.17378997802734375,1.7308449745178223,0.5584226198224861,52.0,524.0,0.0
Y,R,"[6, 9]",-1.0,4.0,0.06493687629699707,5.711047172546387,0.5859575095532553,52.0,525.0,0.0
Y,R,"[6, 10]",1.0,5.0,0.298443078994751,1.6210429668426514,0.3238643396684859,52.0,526.0,0.0
R,U,"[5, 10]",1.0,6.0,0.31082701683044434,1.6851119995117188,0.3755870933395809,52.0,527.0,0.0
R,U,"[4, 10]",1.0,7.0,0.3913118839263916,2.0442190170288086,0.6527896828381663,52.0,528.0,0.0
B,L,"[4, 9]",1.0,8.0,0.17734909057617188,1.5523638725280762,0.3720550503380592,52.0,529.0,0.0
R,U,"[3, 9]",1.0,9.0,0.5012938976287842,2.0066888332366943,0.5118096325948546,52.0,530.0,0.0
,,"(6, 6)",,,,,,,,
R,U,"[5, 6]",1.0,1.0,0.27893495559692383,4.23166298866272,0.326964082137547,53.0,531.0,0.0
Y,R,"[5, 7]",1.0,2.0,0.3269679546356201,1.9745550155639648,0.6510628647387082,53.0,532.0,0.0
Y,R,"[5, 8]",1.0,3.0,0.21061015129089355,1.8579070568084717,0.6425524040126109,53.0,533.0,0.0
G,D,"[6, 8]",1.0,4.0,0.442838191986084,1.7958648204803467,0.35502779709040866,53.0,534.0,0.0
Y,R,"[6, 9]",1.0,5.0,0.37359094619750977,1.9533789157867432,0.5747891663952134,53.0,535.0,0.0
R,U,"[5, 9]",0.0,5.0,0.26668500900268555,1.9665088653564453,0.7077846779634962,53.0,536.0,0.0
R,U,"[4, 9]",1.0,6.0,0.2608659267425537,1.822497844696045,0.5637150563208309,53.0,537.0,0.0
R,U,"[3, 9]",1.0,7.0,0.21455693244934082,1.8874080181121826,0.6675719027871566,53.0,538.0,0.0
G,D,"[4, 9]",0.0,7.0,0.8912289142608643,2.645504951477051,0.7462918287957276,53.0,539.0,0.0
R,U,"[3, 9]",-1.0,7.0,0.04084205627441406,5.52636981010437,0.4227757782195161,53.0,540.0,0.0
,,"(6, 6)",,,,,,,,
R,U,"[5, 6]",1.0,1.0,0.34091615676879883,4.197854042053223,0.6869505382702459,54.0,541.0,0.0
Y,R,"[5, 7]",1.0,2.0,0.2494359016418457,1.9485909938812256,0.7021638536955856,54.0,542.0,0.0
G,D,"[6, 7]",0.0,2.0,0.27756404876708984,1.8478388786315918,0.5666897243052335,54.0,543.0,0.0
Y,R,"[6, 8]",1.0,3.0,0.6235041618347168,1.9122898578643799,0.27921242282159503,54.0,544.0,0.0
Y,R,"[6, 9]",1.0,4.0,0.3256947994232178,1.9053552150726318,0.5676158732255316,54.0,545.0,0.0
G,D,"[7, 9]",0.0,4.0,0.2797250747680664,1.9431869983673096,0.6606625109798687,54.0,546.0,0.0
Y,R,"[7, 10]",0.0,4.0,0.1914839744567871,1.4646720886230469,0.27560558796895546,54.0,547.0,0.0
B,L,"[7, 9]",0.0,4.0,0.31172990798950195,1.9785330295562744,0.6703709434906968,54.0,548.0,0.0
R,U,"[6, 9]",0.0,4.0,0.3203861713409424,2.06256103515625,0.7494825822877604,54.0,549.0,0.0
G,D,"[7, 9]",0.0,4.0,0.41575098037719727,1.9247150421142578,0.5078536026782468,54.0,550.0,0.0
,,"(6, 6)",,,,,,,,
R,U,"[5, 6]",1.0,1.0,0.29037904739379883,3.2222049236297607,0.3133475263121491,55.0,551.0,0.0
Y,R,"[5, 7]",1.0,2.0,0.29575181007385254,1.6454179286956787,0.34196149930175024,55.0,552.0,0.0
Y,R,"[5, 8]",1.0,3.0,0.4733450412750244,1.9388759136199951,0.46409284385979976,55.0,553.0,0.0
G,D,"[6, 8]",1.0,4.0,0.2564380168914795,1.7413620948791504,0.47205463532094916,55.0,554.0,0.0
Y,R,"[6, 9]",1.0,5.0,0.1656818389892578,1.80000901222229,0.6387908158570802,55.0,555.0,0.0
Y,R,"[6, 10]",1.0,6.0,0.29676008224487305,1.8881900310516357,0.5932913727097906,55.0,556.0,0.0
R,U,"[5, 10]",1.0,7.0,0.21555590629577637,1.545659065246582,0.33910443774279014,55.0,557.0,0.0
R,U,"[4, 10]",1.0,8.0,0.27980995178222656,1.6002049446105957,0.32268383805658196,55.0,558.0,0.0
B,L,"[4, 9]",1.0,9.0,0.4985849857330322,2.1423377990722656,0.6480594661264709,55.0,559.0,0.0
R,U,"[3, 9]",1.0,10.0,0.21454501152038574,1.7385079860687256,0.5197942937716862,55.0,560.0,0.0
,,"(6, 6)",,,,,,,,
R,U,"[5, 6]",1.0,1.0,0.3053760528564453,2.0015971660614014,0.27169480279071223,56.0,561.0,0.0
Y,R,"[5, 7]",1.0,2.0,0.30416178703308105,1.8076579570770264,0.512400478310638,56.0,562.0,0.0
Y,R,"[5, 8]",1.0,3.0,0.391495943069458,1.807936191558838,0.40368879618576825,56.0,563.0,0.0
G,D,"[6, 8]",1.0,4.0,0.2934598922729492,1.7694180011749268,0.4729938053687384,56.0,564.0,0.0
Y,R,"[6, 9]",1.0,5.0,0.243804931640625,1.5811660289764404,0.33762068472509527,56.0,565.0,0.0
Y,R,"[6, 10]",1.0,6.0,0.37171006202697754,1.8371200561523438,0.474516584258991,56.0,566.0,0.0
R,U,"[5, 10]",1.0,7.0,0.2181239128112793,1.7763550281524658,0.5674704749307575,56.0,567.0,0.0
R,U,"[4, 10]",1.0,8.0,0.3637399673461914,1.7833008766174316,0.41745332698190607,56.0,568.0,0.0
B,L,"[4, 9]",1.0,9.0,0.21660900115966797,1.7263247966766357,0.5103307768978356,56.0,569.0,0.0
R,U,"[3, 9]",1.0,10.0,0.3147599697113037,1.593026876449585,0.28684729653912666,56.0,570.0,0.0
,,"(6, 6)",,,,,,,,
R,U,"[5, 6]",1.0,1.0,0.21159100532531738,3.242248058319092,0.4620858646657126,57.0,571.0,0.0
Y,R,"[5, 7]",1.0,2.0,0.24573516845703125,1.5276570320129395,0.27326002079521444,57.0,572.0,0.0
Y,R,"[5, 8]",1.0,3.0,0.5671980381011963,2.2818679809570312,0.7213728358630145,57.0,573.0,0.0
G,D,"[6, 8]",1.0,4.0,0.22995495796203613,1.7543580532073975,0.525812163565895,57.0,574.0,0.0
Y,R,"[6, 9]",1.0,5.0,0.31493401527404785,1.8537189960479736,0.546038635238788,57.0,575.0,0.0
Y,R,"[6, 10]",1.0,6.0,0.3599588871002197,1.6217079162597656,0.25137977735212197,57.0,576.0,0.0
R,U,"[5, 10]",1.0,7.0,0.5804438591003418,1.9224159717559814,0.34025191941857336,57.0,577.0,0.0
R,U,"[4, 10]",1.0,8.0,0.5376570224761963,1.9837520122528076,0.4572664963237379,57.0,578.0,0.0
B,L,"[4, 9]",1.0,9.0,0.2492530345916748,1.9398839473724365,0.6968523350761519,57.0,579.0,0.0
R,U,"[3, 9]",1.0,10.0,0.38251399993896484,1.7582519054412842,0.37197664993157165,57.0,580.0,0.0
,,"(6, 6)",,,,,,,,
R,U,"[5, 6]",1.0,1.0,0.40244197845458984,5.480445861816406,0.3691047871665054,58.0,581.0,0.0
Y,R,"[5, 7]",1.0,2.0,0.33518314361572266,2.0059919357299805,0.6747206307241336,58.0,582.0,0.0
Y,R,"[5, 8]",1.0,3.0,0.25588512420654297,1.6412849426269531,0.39946152989197364,58.0,583.0,0.0
G,D,"[6, 8]",1.0,4.0,0.2958979606628418,1.5968070030212402,0.2963301421563303,58.0,584.0,0.0
Y,R,"[6, 9]",1.0,5.0,0.26278090476989746,1.7663300037384033,0.49583558979181325,58.0,585.0,0.0
Y,R,"[6, 10]",1.0,6.0,0.42217183113098145,1.9918830394744873,0.5542247768206783,58.0,586.0,0.0
R,U,"[5, 10]",1.0,7.0,0.33783912658691406,2.055363893508911,0.7260224146608601,58.0,587.0,0.0
R,U,"[4, 10]",1.0,8.0,0.24181890487670898,1.5478219985961914,0.3074398332927258,58.0,588.0,0.0
B,L,"[4, 9]",1.0,9.0,0.2698230743408203,2.003804922103882,0.7441766732211088,58.0,589.0,0.0
R,U,"[3, 9]",1.0,10.0,0.23083996772766113,1.597795009613037,0.37568674995683776,58.0,590.0,0.0
,,"(6, 6)",,,,,,,,
R,U,"[5, 6]",1.0,1.0,0.24385499954223633,2.3088629245758057,0.650783185895758,59.0,591.0,0.0
Y,R,"[5, 7]",1.0,2.0,0.2161848545074463,1.958362102508545,0.7424162786369841,59.0,592.0,0.0
Y,R,"[5, 8]",1.0,3.0,0.20412015914916992,1.8109691143035889,0.6199753796696634,59.0,593.0,0.0
G,D,"[6, 8]",1.0,4.0,0.22636795043945312,1.719670057296753,0.489831373625313,59.0,594.0,0.0
Y,R,"[6, 9]",1.0,5.0,0.22878003120422363,1.6121761798858643,0.38547278848440486,59.0,595.0,0.0
Y,R,"[6, 10]",1.0,6.0,0.3130650520324707,1.6758029460906982,0.36113152079189637,59.0,596.0,0.0
R,U,"[5, 10]",1.0,7.0,0.38251304626464844,1.8546459674835205,0.4822873413163819,59.0,597.0,0.0
R,U,"[4, 10]",1.0,8.0,0.2787461280822754,1.8947858810424805,0.6105868649779751,59.0,598.0,0.0
B,L,"[4, 9]",-1.0,8.0,0.015908002853393555,5.41960597038269,0.3465782268610673,59.0,599.0,0.0
B,L,"[4, 8]",0.0,8.0,0.527468204498291,2.1061480045318604,0.5691667639059661,59.0,600.0,0.0
,,"(6, 6)",,,,,,,,
R,U,"[5, 6]",1.0,1.0,0.27821993827819824,2.9264349937438965,0.6621313360956691,60.0,601.0,0.0
Y,R,"[5, 7]",1.0,2.0,0.21564197540283203,1.5961740016937256,0.375396608116885,60.0,602.0,0.0
Y,R,"[5, 8]",1.0,3.0,0.19446992874145508,1.6602680683135986,0.4686669542219868,60.0,603.0,0.0
G,D,"[6, 8]",1.0,4.0,0.5886240005493164,2.2640769481658936,0.6659032252735655,60.0,604.0,0.0
Y,R,"[6, 9]",1.0,5.0,0.2899360656738281,1.7946062088012695,0.49386062764824606,60.0,605.0,0.0
Y,R,"[6, 10]",1.0,6.0,0.47290492057800293,1.780893087387085,0.30827431788191456,60.0,606.0,0.0
R,U,"[5, 10]",1.0,7.0,0.5473058223724365,1.972606897354126,0.4306841364986591,60.0,607.0,0.0
R,U,"[4, 10]",1.0,8.0,0.5509538650512695,2.080203056335449,0.5273984623304067,60.0,608.0,0.0
B,L,"[4, 9]",1.0,9.0,0.4561920166015625,2.0561819076538086,0.6167209837271052,60.0,609.0,0.0
R,U,"[3, 9]",1.0,10.0,0.5645520687103271,2.281548023223877,0.7147238141216405,60.0,610.0,0.0
,,"(6, 6)",,,,,,,,
R,U,"[5, 6]",1.0,1.0,0.717987060546875,3.094031810760498,0.5422871352411026,61.0,611.0,0.0
Y,R,"[5, 7]",1.0,2.0,0.49689292907714844,2.212636947631836,0.7212403011481565,61.0,612.0,0.0
Y,R,"[5, 8]",1.0,3.0,0.4511239528656006,1.7630109786987305,0.31804905767148134,61.0,613.0,0.0
G,D,"[6, 8]",-2.0,3.0,1.1039009094238281,2.3457281589508057,0.2803563061573962,61.0,614.0,0.0
Y,R,"[6, 9]",1.0,4.0,0.507439136505127,1.90985107421875,0.39007873812487776,61.0,615.0,0.0
Y,R,"[6, 10]",1.0,5.0,0.26961588859558105,1.997704029083252,0.7373834639571579,61.0,616.0,0.0
R,U,"[5, 10]",1.0,6.0,0.4304690361022949,2.060318946838379,0.6309876268132193,61.0,617.0,0.0
R,U,"[4, 10]",1.0,7.0,0.3366820812225342,1.6347341537475586,0.299412294241519,61.0,618.0,0.0
B,L,"[4, 9]",1.0,8.0,0.4046621322631836,1.9198009967803955,0.518922173469937,61.0,619.0,0.0
R,U,"[3, 9]",1.0,9.0,0.31767988204956055,2.021178960800171,0.7065872932631545,61.0,620.0,0.0
,,"(6, 6)",,,,,,,,
R,U,"[5, 6]",1.0,1.0,0.3199770450592041,3.62709379196167,0.26732617141915205,62.0,621.0,0.0
Y,R,"[5, 7]",1.0,2.0,0.9147012233734131,2.5816218852996826,0.6650587844223745,62.0,622.0,0.0
Y,R,"[5, 8]",1.0,3.0,0.31234002113342285,1.9730968475341797,0.6547658750086587,62.0,623.0,0.0
G,D,"[6, 8]",1.0,4.0,0.35419702529907227,1.8064420223236084,0.46137832690265906,62.0,624.0,0.0
Y,R,"[6, 9]",1.0,5.0,0.5836169719696045,2.2528319358825684,0.6806042619833494,62.0,625.0,0.0
Y,R,"[6, 10]",1.0,6.0,0.4519820213317871,2.1574859619140625,0.7049602432257676,62.0,626.0,0.0
R,U,"[5, 10]",1.0,7.0,0.5309169292449951,1.8207318782806396,0.29246971937729865,62.0,627.0,0.0
R,U,"[4, 10]",1.0,8.0,0.7807390689849854,2.1118578910827637,0.33755944272714256,62.0,628.0,0.0
B,L,"[4, 9]",1.0,9.0,0.6215980052947998,2.0582008361816406,0.4456569420987543,62.0,629.0,0.0
R,U,"[3, 9]",1.0,10.0,0.4758491516113281,1.7597789764404297,0.27217682159078943,62.0,630.0,0.0
,,"(6, 6)",,,,,,,,
R,U,"[5, 6]",1.0,1.0,0.24652886390686035,3.7208619117736816,0.5925360566975567,63.0,631.0,0.0
Y,R,"[5, 7]",1.0,2.0,0.5882091522216797,2.285301923751831,0.7111193671456868,63.0,632.0,0.0
Y,R,"[5, 8]",1.0,3.0,0.36383509635925293,1.7979509830474854,0.44256876076497964,63.0,633.0,0.0
G,D,"[6, 8]",1.0,4.0,0.4998011589050293,2.0192008018493652,0.5284587471830349,63.0,634.0,0.0
Y,R,"[6, 9]",1.0,5.0,0.33992981910705566,1.7980339527130127,0.47630772733634386,63.0,635.0,0.0
Y,R,"[6, 10]",1.0,6.0,0.30927205085754395,1.695793867111206,0.3888582030126897,63.0,636.0,0.0
R,U,"[5, 10]",1.0,7.0,0.6141788959503174,2.2054989337921143,0.593979961708474,63.0,637.0,0.0
R,U,"[4, 10]",1.0,8.0,0.38515591621398926,1.8554210662841797,0.4829163439325061,63.0,638.0,0.0
B,L,"[4, 9]",1.0,9.0,0.4605259895324707,2.0993459224700928,0.6322509597493366,63.0,639.0,0.0
R,U,"[3, 9]",1.0,10.0,0.4944019317626953,2.0273451805114746,0.5261030334131938,63.0,640.0,0.0
,,"(6, 6)",,,,,,,,
R,U,"[5, 6]",1.0,1.0,0.5632431507110596,2.6800460815429688,0.5561035871998596,64.0,641.0,0.0
Y,R,"[5, 7]",1.0,2.0,0.4134199619293213,2.0970571041107178,0.6865207313554247,64.0,642.0,0.0
Y,R,"[5, 8]",1.0,3.0,0.4233667850494385,1.794788122177124,0.3647209955915865,64.0,643.0,0.0
G,D,"[6, 8]",1.0,4.0,0.7036750316619873,2.363011121749878,0.6605112414045896,64.0,644.0,0.0
Y,R,"[6, 9]",1.0,5.0,0.31536293029785156,1.934509038925171,0.628398905793317,64.0,645.0,0.0
Y,R,"[6, 10]",1.0,6.0,0.5035359859466553,2.0895731449127197,0.6012370998021772,64.0,646.0,0.0
R,U,"[5, 10]",1.0,7.0,0.43225979804992676,2.000042200088501,0.5679291215399029,64.0,647.0,0.0
R,U,"[4, 10]",1.0,8.0,0.41598081588745117,2.1399409770965576,0.7243807900873955,64.0,648.0,0.0
B,L,"[4, 9]",1.0,9.0,0.4088461399078369,1.9122159481048584,0.5034145579797471,64.0,649.0,0.0
R,U,"[3, 9]",1.0,10.0,0.5759990215301514,1.9590880870819092,0.37915036780255096,64.0,650.0,0.0
,,"(6, 6)",,,,,,,,
R,U,"[5, 6]",1.0,1.0,0.6986289024353027,3.769595146179199,0.5652618426365672,65.0,651.0,0.0
Y,R,"[5, 7]",1.0,2.0,0.6186001300811768,1.9371991157531738,0.3192527733959255,65.0,652.0,0.0
Y,R,"[5, 8]",1.0,3.0,0.5182039737701416,1.9897041320800781,0.4754372351818142,65.0,653.0,0.0
G,D,"[6, 8]",1.0,4.0,0.6079139709472656,1.896178960800171,0.28842835783165316,65.0,654.0,0.0
Y,R,"[6, 9]",1.0,5.0,0.5318398475646973,2.0909340381622314,0.5624241023784184,65.0,655.0,0.0
Y,R,"[6, 10]",1.0,6.0,0.5911409854888916,2.027611017227173,0.4234227063864487,65.0,656.0,0.0
R,U,"[5, 10]",1.0,7.0,0.5692329406738281,1.995595932006836,0.43563532173565056,65.0,657.0,0.0
R,U,"[4, 10]",1.0,8.0,0.5341501235961914,2.0688440799713135,0.5375598276406709,65.0,658.0,0.0
B,L,"[4, 9]",1.0,9.0,0.42044687271118164,2.0982110500335693,0.6856852074703953,65.0,659.0,0.0
R,U,"[3, 9]",1.0,10.0,0.4654810428619385,1.7490861415863037,0.2851247144390037,65.0,660.0,0.0
,,"(6, 6)",,,,,,,,
R,U,"[5, 6]",1.0,1.0,0.3300509452819824,3.261190891265869,0.3793514376348156,66.0,661.0,0.0
Y,R,"[5, 7]",1.0,2.0,0.5028400421142578,2.154728889465332,0.6504707980603035,66.0,662.0,0.0
Y,R,"[5, 8]",1.0,3.0,0.3699760437011719,1.9765868186950684,0.6102704169794447,66.0,663.0,0.0
G,D,"[6, 8]",1.0,4.0,0.6981649398803711,2.2043039798736572,0.5146332151541058,66.0,664.0,0.0
Y,R,"[6, 9]",1.0,5.0,0.4524199962615967,1.8849890232086182,0.4330502306441335,66.0,665.0,0.0
Y,R,"[6, 10]",1.0,6.0,0.446012020111084,2.130768060684204,0.6801215929725422,66.0,666.0,0.0
R,U,"[5, 10]",1.0,7.0,0.45584607124328613,1.7148871421813965,0.2620848324242972,66.0,667.0,0.0
R,U,"[4, 10]",1.0,8.0,0.5562620162963867,2.2419888973236084,0.6869562729133829,66.0,668.0,0.0
B,L,"[4, 9]",1.0,9.0,0.40765810012817383,1.9062690734863281,0.49339662619583097,66.0,669.0,0.0
R,U,"[3, 9]",1.0,10.0,0.5307559967041016,2.0575520992279053,0.5341390202205549,66.0,670.0,0.0
,,"(6, 6)",,,,,,,,
R,U,"[5, 6]",1.0,1.0,0.2657740116119385,2.8081769943237305,0.27587466446925935,67.0,671.0,0.0
Y,R,"[5, 7]",1.0,2.0,0.9292068481445312,2.2870070934295654,0.36275752999119737,67.0,672.0,0.0
Y,R,"[5, 8]",1.0,3.0,0.5419089794158936,1.8939611911773682,0.33994519966760206,67.0,673.0,0.0
G,D,"[6, 8]",1.0,4.0,0.8696119785308838,2.1890361309051514,0.328933027123107,67.0,674.0,0.0
Y,R,"[6, 9]",1.0,5.0,0.4546191692352295,2.066344976425171,0.6117051988245743,67.0,675.0,0.0
Y,R,"[6, 10]",1.0,6.0,0.5595180988311768,2.1238248348236084,0.5688067909499399,67.0,676.0,0.0
R,U,"[5, 10]",1.0,7.0,0.46719789505004883,1.9767248630523682,0.5122158414732045,67.0,677.0,0.0
R,U,"[4, 10]",1.0,8.0,0.5318968296051025,2.080986976623535,0.5432365725365713,67.0,678.0,0.0
B,L,"[4, 9]",1.0,9.0,0.4782090187072754,1.9833309650421143,0.5097518890273578,67.0,679.0,0.0
R,U,"[3, 9]",1.0,10.0,0.4939601421356201,1.8759069442749023,0.3857120702467637,67.0,680.0,0.0
,,"(6, 6)",,,,,,,,
R,U,"[5, 6]",1.0,1.0,0.5136051177978516,3.772199869155884,0.37450751715538866,68.0,681.0,0.0
G,D,"[6, 6]",-1.0,1.0,0.032292842864990234,5.637944936752319,0.5454610257366019,68.0,682.0,0.0
Y,R,"[6, 7]",0.0,1.0,0.2737770080566406,1.9790849685668945,0.6910616975081645,68.0,683.0,0.0
G,D,"[7, 7]",0.0,1.0,0.30611109733581543,1.9127130508422852,0.6036955888838011,68.0,684.0,0.0
Y,R,"[7, 8]",0.0,1.0,0.24735498428344727,1.9519150257110596,0.7054456456145052,68.0,685.0,0.0
R,U,"[6, 8]",1.0,2.0,0.24345016479492188,1.5740041732788086,0.3298619437963852,68.0,686.0,0.0
R,U,"[5, 8]",1.0,3.0,0.2870609760284424,1.6765000820159912,0.3894790794551634,68.0,687.0,0.0
B,L,"[5, 7]",1.0,4.0,0.2613530158996582,1.6187419891357422,0.35826990598462033,68.0,688.0,0.0
R,U,"[4, 7]",0.0,4.0,0.23369097709655762,1.8047997951507568,0.5794920401045656,68.0,689.0,0.0
R,U,"[3, 7]",0.0,4.0,0.29406118392944336,1.815722942352295,0.511825539558194,68.0,690.0,0.0
,,"(6, 6)",,,,,,,,
R,U,"[5, 6]",1.0,1.0,0.24998807907104492,3.6176979541778564,0.46295949248741913,69.0,691.0,0.0
Y,R,"[5, 7]",1.0,2.0,0.5328028202056885,2.224756956100464,0.6872598913939774,69.0,692.0,0.0
Y,R,"[5, 8]",1.0,3.0,0.475877046585083,1.82539701461792,0.34630440022790104,69.0,693.0,0.0
G,D,"[6, 8]",1.0,4.0,0.9838368892669678,2.347698926925659,0.3606748879658594,69.0,694.0,0.0
Y,R,"[6, 9]",1.0,5.0,0.45324277877807617,1.9684908390045166,0.5288511994284857,69.0,695.0,0.0
Y,R,"[6, 10]",1.0,6.0,0.5489020347595215,2.1499409675598145,0.595449862249921,69.0,696.0,0.0
R,U,"[5, 10]",1.0,7.0,0.4321298599243164,1.7757601737976074,0.33819915369392656,69.0,697.0,0.0
R,U,"[4, 10]",1.0,8.0,0.37392210960388184,2.109239101409912,0.7302261673684285,69.0,698.0,0.0
B,L,"[4, 9]",1.0,9.0,0.3065152168273926,1.7550809383392334,0.4354399474099306,69.0,699.0,0.0
R,U,"[3, 9]",1.0,10.0,0.5965731143951416,2.14383602142334,0.5458768129650386,69.0,700.0,0.0
,,"(6, 6)",,,,,,,,
R,U,"[5, 6]",1.0,1.0,0.3616640567779541,4.441885948181152,0.43764068823788393,70.0,701.0,0.0
Y,R,"[5, 7]",1.0,2.0,0.4002559185028076,1.9301230907440186,0.5344092781809453,70.0,702.0,0.0
Y,R,"[5, 8]",1.0,3.0,0.4130220413208008,1.8234570026397705,0.4078835848326804,70.0,703.0,0.0
G,D,"[6, 8]",1.0,4.0,0.43911194801330566,1.8968491554260254,0.47128002061847696,70.0,704.0,0.0
Y,R,"[6, 9]",1.0,5.0,0.5888688564300537,1.8689630031585693,0.27378435331739426,70.0,705.0,0.0
Y,R,"[6, 10]",1.0,6.0,0.4714171886444092,1.8044118881225586,0.3447936070172362,70.0,706.0,0.0
R,U,"[5, 10]",1.0,7.0,0.511638879776001,2.1304771900177,0.6248781025318895,70.0,707.0,0.0
R,U,"[4, 10]",1.0,8.0,0.36008787155151367,2.075026035308838,0.7166407828434715,70.0,708.0,0.0
B,L,"[4, 9]",1.0,9.0,0.34070801734924316,1.7034900188446045,0.35353359238483867,70.0,709.0,0.0
R,U,"[3, 9]",1.0,10.0,0.6257741451263428,1.9914801120758057,0.36154643977286216,70.0,710.0,0.0
,,"(6, 6)",,,,,,,,
R,U,"[5, 6]",1.0,1.0,0.2094409465789795,4.090230941772461,0.418362233433426,71.0,711.0,0.0
Y,R,"[5, 7]",1.0,2.0,0.48191189765930176,1.7546041011810303,0.27307766467133054,71.0,712.0,0.0
Y,R,"[5, 8]",1.0,3.0,0.3773190975189209,1.860624074935913,0.4834501554098033,71.0,713.0,0.0
G,D,"[6, 8]",1.0,4.0,0.3166999816894531,1.9204449653625488,0.603775128946676,71.0,714.0,0.0
Y,R,"[6, 9]",1.0,5.0,0.4299650192260742,1.829906940460205,0.40044507104427984,71.0,715.0,0.0
Y,R,"[6, 10]",1.0,6.0,0.39122486114501953,1.658592939376831,0.2591720606994645,71.0,716.0,0.0
R,U,"[5, 10]",1.0,7.0,0.4296259880065918,2.167898178100586,0.7435877746656714,71.0,717.0,0.0
R,U,"[4, 10]",1.0,8.0,0.19292306900024414,1.6879229545593262,0.49798269249467136,71.0,718.0,0.0
B,L,"[4, 9]",1.0,9.0,0.4499340057373047,2.054713010787964,0.6029691642094712,71.0,719.0,0.0
R,U,"[3, 9]",1.0,10.0,0.3139622211456299,1.8288071155548096,0.5146853027648928,71.0,720.0,0.0
,,"(6, 6)",,,,,,,,
R,U,"[5, 6]",1.0,1.0,0.26200103759765625,3.6249499320983887,0.572856897826084,72.0,721.0,0.0
Y,R,"[5, 7]",1.0,2.0,0.3823089599609375,2.057373046875,0.679938167156342,72.0,722.0,0.0
G,D,"[6, 7]",0.0,2.0,0.2751657962799072,1.7721431255340576,0.4856575820220751,72.0,723.0,0.0
G,D,"[7, 7]",0.0,2.0,0.41149187088012695,2.135899066925049,0.7211494224864363,72.0,724.0,0.0
Y,R,"[7, 8]",0.0,2.0,0.19236516952514648,1.910757064819336,0.7153489387913208,72.0,725.0,0.0
B,L,"[7, 7]",0.0,2.0,0.21286702156066895,1.6252260208129883,0.4073337835151631,72.0,726.0,0.0
R,U,"[6, 7]",0.0,2.0,0.2737619876861572,1.5991990566253662,0.32328120379379366,72.0,727.0,0.0
Y,R,"[6, 8]",1.0,3.0,0.3391690254211426,1.993156909942627,0.6494884827877032,72.0,728.0,0.0
Y,R,"[6, 9]",1.0,4.0,0.24381113052368164,1.9347128868103027,0.684132335753816,72.0,729.0,0.0
G,D,"[7, 9]",0.0,4.0,0.2634589672088623,1.5685582160949707,0.3029090949469131,72.0,730.0,0.0
,,"(6, 6)",,,,,,,,
R,U,"[5, 6]",1.0,1.0,0.43312788009643555,4.142966985702515,0.7121121069027745,73.0,731.0,0.0
Y,R,"[5, 7]",1.0,2.0,0.37776899337768555,1.6841070652008057,0.29661797127133405,73.0,732.0,0.0
Y,R,"[5, 8]",1.0,3.0,0.6653950214385986,2.0172369480133057,0.3470534234498676,73.0,733.0,0.0
G,D,"[6, 8]",1.0,4.0,0.5777881145477295,2.0910561084747314,0.5045928468037775,73.0,734.0,0.0
Y,R,"[6, 9]",1.0,5.0,0.5361208915710449,2.0647120475769043,0.5358116601209251,73.0,735.0,0.0
Y,R,"[6, 10]",1.0,6.0,0.6057350635528564,2.3486311435699463,0.7341592077019077,73.0,736.0,0.0
R,U,"[5, 10]",1.0,7.0,0.2227170467376709,1.744621992111206,0.5123483986012519,73.0,737.0,0.0
R,U,"[4, 10]",1.0,8.0,0.7356891632080078,2.3827390670776367,0.6448687229100531,73.0,738.0,0.0
B,L,"[4, 9]",1.0,9.0,0.35276198387145996,1.7322227954864502,0.3939592160992581,73.0,739.0,0.0
R,U,"[3, 9]",1.0,10.0,0.42267894744873047,2.1395139694213867,0.7163933063374401,73.0,740.0,0.0
,,"(6, 6)",,,,,,,,
R,U,"[5, 6]",1.0,1.0,0.23789596557617188,2.511186122894287,0.6610467636596709,74.0,741.0,0.0
Y,R,"[5, 7]",1.0,2.0,0.46360087394714355,1.9571430683135986,0.5015969688629871,74.0,742.0,0.0
Y,R,"[5, 8]",1.0,3.0,0.5169291496276855,2.0216610431671143,0.5068244212878292,74.0,743.0,0.0
G,D,"[6, 8]",1.0,4.0,0.5512449741363525,2.206968069076538,0.6633117231864409,74.0,744.0,0.0
Y,R,"[6, 9]",1.0,5.0,0.5205709934234619,1.9110760688781738,0.3910886121220773,74.0,745.0,0.0
Y,R,"[6, 10]",1.0,6.0,0.4576249122619629,2.058695077896118,0.5996523072359028,74.0,746.0,0.0
R,U,"[5, 10]",1.0,7.0,0.46184802055358887,2.1908700466156006,0.723704453272926,74.0,747.0,0.0
R,U,"[4, 10]",1.0,8.0,0.4794340133666992,2.0553839206695557,0.579128571481808,74.0,748.0,0.0
B,L,"[4, 9]",1.0,9.0,0.4509890079498291,1.8750741481781006,0.42088561374824696,74.0,749.0,0.0
R,U,"[3, 9]",1.0,10.0,0.4770998954772949,1.9811749458312988,0.5021045780285445,74.0,750.0,0.0
,,"(6, 6)",,,,,,,,
R,U,"[5, 6]",1.0,1.0,0.26538991928100586,3.775296926498413,0.27750104152701766,75.0,751.0,0.0
Y,R,"[5, 7]",1.0,2.0,0.5731348991394043,2.024477958679199,0.4517337954203425,75.0,752.0,0.0
Y,R,"[5, 8]",1.0,3.0,0.3628051280975342,1.705976963043213,0.34103282804746854,75.0,753.0,0.0
G,D,"[6, 8]",1.0,4.0,0.492764949798584,1.982347011566162,0.4898549168461564,75.0,754.0,0.0
Y,R,"[6, 9]",1.0,5.0,0.718411922454834,2.4511020183563232,0.7407301660178282,75.0,755.0,0.0
Y,R,"[6, 10]",1.0,6.0,0.19340109825134277,1.6839962005615234,0.4915469536938528,75.0,756.0,0.0
R,U,"[5, 10]",1.0,7.0,0.662053108215332,2.1183879375457764,0.459865482974576,75.0,757.0,0.0
R,U,"[4, 10]",1.0,8.0,0.6014101505279541,1.87198805809021,0.2819650559267765,75.0,758.0,0.0
B,L,"[4, 9]",1.0,9.0,0.40047311782836914,1.9856750965118408,0.5841270178968592,75.0,759.0,0.0
R,U,"[3, 9]",-2.0,9.0,1.042680025100708,2.2744650840759277,0.25878850769142014,75.0,760.0,0.0
,,"(6, 6)",,,,,,,,
R,U,"[5, 6]",1.0,1.0,0.2154989242553711,3.576138973236084,0.684456696294494,76.0,761.0,0.0
Y,R,"[5, 7]",1.0,2.0,0.418673038482666,1.70455002784729,0.2891794644123417,76.0,762.0,0.0
Y,R,"[5, 8]",1.0,3.0,0.8846538066864014,2.304080009460449,0.42643558877552895,76.0,763.0,0.0
G,D,"[6, 8]",1.0,4.0,0.5785820484161377,2.302669048309326,0.7288491751272643,76.0,764.0,0.0
Y,R,"[6, 9]",1.0,5.0,0.5479681491851807,2.2973759174346924,0.7427147431066083,76.0,765.0,0.0
Y,R,"[6, 10]",1.0,6.0,0.5325770378112793,2.205591917037964,0.6821080297354588,76.0,766.0,0.0
R,U,"[5, 10]",1.0,7.0,0.501162052154541,2.1584479808807373,0.6568261221466537,76.0,767.0,0.0
R,U,"[4, 10]",1.0,8.0,0.5449080467224121,1.972890853881836,0.42990146932583795,76.0,768.0,0.0
B,L,"[4, 9]",1.0,9.0,0.5026631355285645,2.07124400138855,0.5674988939568166,76.0,769.0,0.0
R,U,"[3, 9]",1.0,10.0,0.5548050403594971,2.08329701423645,0.5341847496424594,76.0,770.0,0.0
,,"(6, 6)",,,,,,,,
R,U,"[5, 6]",1.0,1.0,0.5324931144714355,4.605144023895264,0.4725753279814493,77.0,771.0,0.0
Y,R,"[5, 7]",1.0,2.0,0.35953593254089355,1.8282041549682617,0.4674286128853492,77.0,772.0,0.0
Y,R,"[5, 8]",1.0,3.0,0.40907907485961914,1.9385390281677246,0.5224397482999904,77.0,773.0,0.0
G,D,"[6, 8]",1.0,4.0,0.2758159637451172,1.5846469402313232,0.30733506198674065,77.0,774.0,0.0
Y,R,"[6, 9]",1.0,5.0,0.3684699535369873,1.7415759563446045,0.382215280775323,77.0,775.0,0.0
Y,R,"[6, 10]",1.0,6.0,0.45537281036376953,2.217741012573242,0.7495620270688642,77.0,776.0,0.0
R,U,"[5, 10]",1.0,7.0,0.29996681213378906,1.662341833114624,0.3620612218113718,77.0,777.0,0.0
B,L,"[5, 9]",0.0,7.0,0.6063399314880371,1.944288969039917,0.3230962482278299,77.0,778.0,0.0
R,U,"[4, 9]",1.0,8.0,0.29268813133239746,1.9595890045166016,0.6661328257881716,77.0,779.0,0.0
R,U,"[3, 9]",1.0,9.0,0.21803593635559082,1.657822847366333,0.4402829377029298,77.0,780.0,0.0
,,"(6, 6)",,,,,,,,
R,U,"[5, 6]",1.0,1.0,0.32248806953430176,4.001669883728027,0.6583293576394436,78.0,781.0,0.0
Y,R,"[5, 7]",1.0,2.0,0.2730441093444824,1.9363019466400146,0.677909599843353,78.0,782.0,0.0
Y,R,"[5, 8]",1.0,3.0,0.2559490203857422,1.5585989952087402,0.32003438747951285,78.0,783.0,0.0
G,D,"[6, 8]",1.0,4.0,0.43396687507629395,2.07285213470459,0.6424913178689045,78.0,784.0,0.0
Y,R,"[6, 9]",1.0,5.0,0.22631406784057617,1.9043169021606445,0.6800818759908451,78.0,785.0,0.0
Y,R,"[6, 10]",1.0,6.0,0.26197290420532227,1.7949190139770508,0.5251208434532917,78.0,786.0,0.0
R,U,"[5, 10]",1.0,7.0,0.279249906539917,1.942784070968628,0.6678207361865727,78.0,787.0,0.0
R,U,"[4, 10]",1.0,8.0,0.3873000144958496,1.7960519790649414,0.41407461547209495,78.0,788.0,0.0
B,L,"[4, 9]",1.0,9.0,0.5332598686218262,1.8168408870697021,0.28099976700164,78.0,789.0,0.0
R,U,"[3, 9]",1.0,10.0,0.8597109317779541,2.136631965637207,0.2674525945444498,78.0,790.0,0.0
,,"(6, 6)",,,,,,,,
R,U,"[5, 6]",1.0,1.0,0.1747570037841797,3.96342396736145,0.713727008825707,79.0,791.0,0.0
Y,R,"[5, 7]",1.0,2.0,0.26157212257385254,1.9452879428863525,0.6757705708750008,79.0,792.0,0.0
Y,R,"[5, 8]",1.0,3.0,0.4462430477142334,2.0236599445343018,0.5827245406952872,79.0,793.0,0.0
G,D,"[6, 8]",1.0,4.0,0.44080591201782227,2.0488171577453613,0.5984216701932669,79.0,794.0,0.0
Y,R,"[6, 9]",1.0,5.0,0.3691599369049072,1.6844310760498047,0.3162002985315326,79.0,795.0,0.0
Y,R,"[6, 10]",1.0,6.0,0.5715479850769043,1.9347069263458252,0.350861953478841,79.0,796.0,0.0
R,U,"[5, 10]",1.0,7.0,0.5111918449401855,2.1541390419006348,0.6378266294187486,79.0,797.0,0.0
B,L,"[5, 9]",0.0,7.0,0.5417530536651611,2.2090439796447754,0.6635046819915116,79.0,798.0,0.0
B,L,"[5, 8]",0.0,7.0,0.3324580192565918,1.7592182159423828,0.42296238668591096,79.0,799.0,0.0
R,U,"[4, 8]",0.0,7.0,0.27340006828308105,1.7808690071105957,0.5036413502068409,79.0,800.0,0.0
,,"(6, 6)",,,,,,,,
R,U,"[5, 6]",1.0,1.0,0.6646339893341064,4.016409873962402,0.2869316913315757,80.0,801.0,0.0
Y,R,"[5, 7]",1.0,2.0,0.5773870944976807,1.9026849269866943,0.32277387929467743,80.0,802.0,0.0
Y,R,"[5, 8]",1.0,3.0,0.2684159278869629,1.8163080215454102,0.5555404595333524,80.0,803.0,0.0
G,D,"[6, 8]",1.0,4.0,0.21566295623779297,1.5943858623504639,0.3834282891171152,80.0,804.0,0.0
Y,R,"[6, 9]",1.0,5.0,0.2837522029876709,1.9557490348815918,0.6721663266979843,80.0,805.0,0.0
Y,R,"[6, 10]",1.0,6.0,0.22065091133117676,1.4870269298553467,0.25948892436999027,80.0,806.0,0.0
R,U,"[5, 10]",1.0,7.0,0.31434202194213867,1.968134880065918,0.6606053514706928,80.0,807.0,0.0
R,U,"[4, 10]",1.0,8.0,0.21968293190002441,1.4796350002288818,0.2737740076887609,80.0,808.0,0.0
B,L,"[4, 9]",1.0,9.0,0.36522698402404785,2.0863919258117676,0.726449357428418,80.0,809.0,0.0
R,U,"[3, 9]",1.0,10.0,0.24999523162841797,1.7755930423736572,0.5354312819655808,80.0,810.0,0.0
,,"(6, 6)",,,,,,,,
R,U,"[5, 6]",1.0,1.0,0.3950769901275635,2.932988166809082,0.3353129183686074,81.0,811.0,0.0
Y,R,"[5, 7]",1.0,2.0,0.2422780990600586,1.648327112197876,0.40019907108212066,81.0,812.0,0.0
Y,R,"[5, 8]",1.0,3.0,0.22243404388427734,1.7028300762176514,0.4695456760200956,81.0,813.0,0.0
G,D,"[6, 8]",1.0,4.0,0.21436595916748047,1.7166199684143066,0.5027553928516699,81.0,814.0,0.0
Y,R,"[6, 9]",1.0,5.0,0.13950109481811523,1.682535171508789,0.5352250827028081,81.0,815.0,0.0
Y,R,"[6, 10]",1.0,6.0,0.25739002227783203,1.601194143295288,0.33650514819340566,81.0,816.0,0.0
R,U,"[5, 10]",1.0,7.0,0.23936009407043457,1.686690092086792,0.4395908452366425,81.0,817.0,0.0
R,U,"[4, 10]",1.0,8.0,0.21376705169677734,1.9360120296478271,0.725656463479481,81.0,818.0,0.0
B,L,"[4, 9]",1.0,9.0,0.21052789688110352,1.6585679054260254,0.4508242307322711,81.0,819.0,0.0
R,U,"[3, 9]",1.0,10.0,0.23279190063476562,1.829308032989502,0.5967616754389304,81.0,820.0,0.0
,,"(6, 6)",,,,,,,,
R,U,"[5, 6]",1.0,1.0,0.24176478385925293,3.5463550090789795,0.6928525379803464,82.0,821.0,0.0
Y,R,"[5, 7]",1.0,2.0,0.2571258544921875,1.7944180965423584,0.5374410691789409,82.0,822.0,0.0
Y,R,"[5, 8]",1.0,3.0,0.23812198638916016,1.504694938659668,0.2590396956429006,82.0,823.0,0.0
G,D,"[6, 8]",1.0,4.0,0.2501349449157715,1.602017879486084,0.3609031760784948,82.0,824.0,0.0
Y,R,"[6, 9]",1.0,5.0,0.20508384704589844,1.4406909942626953,0.2515847607741295,82.0,825.0,0.0
Y,R,"[6, 10]",1.0,6.0,0.26511287689208984,1.9932219982147217,0.7275968363510519,82.0,826.0,0.0
R,U,"[5, 10]",1.0,7.0,0.21176791191101074,1.6761400699615479,0.47069065868652965,82.0,827.0,0.0
R,U,"[4, 10]",1.0,8.0,0.21857404708862305,1.6482791900634766,0.4355984303725922,82.0,828.0,0.0
B,L,"[4, 9]",1.0,9.0,0.36039018630981445,1.8880770206451416,0.5234948481442159,82.0,829.0,0.0
R,U,"[3, 9]",1.0,10.0,0.2423570156097412,1.679764986038208,0.4365711325389888,82.0,830.0,0.0
,,"(6, 6)",,,,,,,,
R,U,"[5, 6]",1.0,1.0,0.5835461616516113,2.465635061264038,0.418938138440962,83.0,831.0,0.0
Y,R,"[5, 7]",1.0,2.0,0.19696402549743652,1.6328420639038086,0.43510297936997017,83.0,832.0,0.0
Y,R,"[5, 8]",1.0,3.0,0.2369368076324463,1.9495058059692383,0.7175003096030179,83.0,833.0,0.0
G,D,"[6, 8]",1.0,4.0,0.19665193557739258,1.4798259735107422,0.28122678022993874,83.0,834.0,0.0
Y,R,"[6, 9]",1.0,5.0,0.28830981254577637,1.8810510635375977,0.5951194991691229,83.0,835.0,0.0
Y,R,"[6, 10]",1.0,6.0,0.2182469367980957,1.8466649055480957,0.6416651733455505,83.0,836.0,0.0
R,U,"[5, 10]",1.0,7.0,0.2976040840148926,1.670907974243164,0.3795684170764462,83.0,837.0,0.0
R,U,"[4, 10]",1.0,8.0,0.25538086891174316,1.7439911365509033,0.47362177466356664,83.0,838.0,0.0
B,L,"[4, 9]",1.0,9.0,0.2869579792022705,1.5428459644317627,0.266349289798075,83.0,839.0,0.0
R,U,"[3, 9]",1.0,10.0,0.31989598274230957,1.946653127670288,0.6293661119425569,83.0,840.0,0.0
,,"(6, 6)",,,,,,,,
R,U,"[5, 6]",1.0,1.0,0.49407100677490234,2.5856010913848877,0.3483742144988929,84.0,841.0,0.0
Y,R,"[5, 7]",1.0,2.0,0.2365398406982422,1.548537015914917,0.31368582307380577,84.0,842.0,0.0
Y,R,"[5, 8]",1.0,3.0,0.24152588844299316,1.7784569263458252,0.5252294862310964,84.0,843.0,0.0
G,D,"[6, 8]",1.0,4.0,0.19284892082214355,1.719430923461914,0.5278924209338487,84.0,844.0,0.0
Y,R,"[6, 9]",1.0,5.0,0.2332160472869873,1.6700561046600342,0.4479887485684343,84.0,845.0,0.0
Y,R,"[6, 10]",1.0,6.0,0.2769198417663574,1.675218105316162,0.38987413273823057,84.0,846.0,0.0
R,U,"[5, 10]",1.0,7.0,0.36747097969055176,1.8926301002502441,0.5323848499660095,84.0,847.0,0.0
R,U,"[4, 10]",1.0,8.0,0.2583279609680176,1.8667681217193604,0.5989495225837027,84.0,848.0,0.0
B,L,"[4, 9]",1.0,9.0,0.22969698905944824,1.5390920639038086,0.30490689276802835,84.0,849.0,0.0
R,U,"[3, 9]",1.0,10.0,0.39000487327575684,1.6814570426940918,0.2864333267186734,84.0,850.0,0.0
,,"(6, 6)",,,,,,,,
R,U,"[5, 6]",1.0,1.0,0.4426729679107666,3.9076390266418457,0.5437156154551172,85.0,851.0,0.0
Y,R,"[5, 7]",1.0,2.0,0.191817045211792,1.5088248252868652,0.3194567493286378,85.0,852.0,0.0
Y,R,"[5, 8]",1.0,3.0,0.21706509590148926,1.5411169528961182,0.3271638658585071,85.0,853.0,0.0
G,D,"[6, 8]",1.0,4.0,0.24776911735534668,1.6648452281951904,0.42520663920319984,85.0,854.0,0.0
Y,R,"[6, 9]",1.0,5.0,0.22604703903198242,1.9477920532226562,0.722592354591616,85.0,855.0,0.0
Y,R,"[6, 10]",-1.0,5.0,0.0880129337310791,5.895519018173218,0.7347254513254121,85.0,856.0,0.0
R,U,"[5, 10]",1.0,6.0,0.9012908935546875,2.3934848308563232,0.49489357310113913,85.0,857.0,0.0
R,U,"[4, 10]",1.0,7.0,0.23070883750915527,1.943181037902832,0.721303114831385,85.0,858.0,0.0
B,L,"[4, 9]",1.0,8.0,0.1615610122680664,1.440608024597168,0.2787864516665986,85.0,859.0,0.0
R,U,"[3, 9]",1.0,9.0,0.23372387886047363,1.9616611003875732,0.7234594476680165,85.0,860.0,0.0
,,"(6, 6)",,,,,,,,
R,U,"[5, 6]",1.0,1.0,0.3063979148864746,4.377758979797363,0.3513942640249794,86.0,861.0,0.0
Y,R,"[5, 7]",1.0,2.0,0.24523019790649414,1.6093430519104004,0.36068709803339577,86.0,862.0,0.0
Y,R,"[5, 8]",1.0,3.0,0.2052779197692871,1.6506309509277344,0.4612590490779627,86.0,863.0,0.0
G,D,"[6, 8]",1.0,4.0,0.45421886444091797,1.8265349864959717,0.3877834224699482,86.0,864.0,0.0
Y,R,"[6, 9]",1.0,5.0,0.2609381675720215,1.6315670013427734,0.3693658943414967,86.0,865.0,0.0
R,U,"[5, 9]",0.0,5.0,0.17850112915039062,1.639685869216919,0.4587887680061874,86.0,866.0,0.0
R,U,"[4, 9]",1.0,6.0,0.3382258415222168,1.667076826095581,0.34272885396772373,86.0,867.0,0.0
R,U,"[3, 9]",1.0,7.0,0.21053814888000488,1.4985990524291992,0.2913440144533909,86.0,868.0,0.0
B,L,"[3, 8]",0.0,7.0,0.22154998779296875,1.6787400245666504,0.4698534848754985,86.0,869.0,0.0
R,U,"[2, 8]",0.0,7.0,0.16109204292297363,1.8339669704437256,0.6702310825311777,86.0,870.0,0.0
,,"(6, 6)",,,,,,,,
R,U,"[5, 6]",1.0,1.0,0.2721078395843506,3.958538055419922,0.4955218066306003,87.0,871.0,0.0
Y,R,"[5, 7]",1.0,2.0,0.24813294410705566,1.6026301383972168,0.3481563578569917,87.0,872.0,0.0
Y,R,"[5, 8]",1.0,3.0,0.22414207458496094,1.7313079833984375,0.5127369385247444,87.0,873.0,0.0
G,D,"[6, 8]",1.0,4.0,0.2047569751739502,1.7861340045928955,0.5655095877774836,87.0,874.0,0.0
Y,R,"[6, 9]",1.0,5.0,0.2174088954925537,1.8272039890289307,0.6091583138075662,87.0,875.0,0.0
Y,R,"[6, 10]",1.0,6.0,0.23574090003967285,1.8024859428405762,0.5782016811581272,87.0,876.0,0.0
R,U,"[5, 10]",1.0,7.0,0.21538686752319336,1.7839171886444092,0.5788049396837064,87.0,877.0,0.0
R,U,"[4, 10]",1.0,8.0,0.30972790718078613,2.0411429405212402,0.7198568479979113,87.0,878.0,0.0
B,L,"[4, 9]",1.0,9.0,0.3084540367126465,1.694195032119751,0.3808863578851316,87.0,879.0,0.0
R,U,"[3, 9]",1.0,10.0,0.2503352165222168,1.766448974609375,0.5138671604722549,87.0,880.0,0.0
,,"(6, 6)",,,,,,,,
R,U,"[5, 6]",1.0,1.0,0.38032078742980957,2.1406219005584717,0.25475250708297126,88.0,881.0,0.0
Y,R,"[5, 7]",1.0,2.0,0.2951500415802002,1.5876779556274414,0.29234555514035254,88.0,882.0,0.0
Y,R,"[5, 8]",1.0,3.0,0.5319890975952148,1.8101651668548584,0.2857096752206922,88.0,883.0,0.0
G,D,"[6, 8]",1.0,4.0,0.253399133682251,1.9942541122436523,0.7462181087073039,88.0,884.0,0.0
Y,R,"[6, 9]",1.0,5.0,0.21335196495056152,1.7776730060577393,0.5573538110565297,88.0,885.0,0.0
Y,R,"[6, 10]",1.0,6.0,0.22770214080810547,1.6439080238342285,0.4179268615117373,88.0,886.0,0.0
R,U,"[5, 10]",1.0,7.0,0.3385810852050781,1.9225680828094482,0.5737487877819982,88.0,887.0,0.0
R,U,"[4, 10]",1.0,8.0,0.2719399929046631,1.8299040794372559,0.5535259581006797,88.0,888.0,0.0
B,L,"[4, 9]",1.0,9.0,0.25157904624938965,1.6693739891052246,0.4230917041229789,88.0,889.0,0.0
R,U,"[3, 9]",1.0,10.0,0.36095714569091797,1.7713470458984375,0.4109865694224322,88.0,890.0,0.0
,,"(6, 6)",,,,,,,,
R,U,"[5, 6]",1.0,1.0,0.4851861000061035,2.7587361335754395,0.26986355726346717,89.0,891.0,0.0
Y,R,"[5, 7]",1.0,2.0,0.3680999279022217,1.8500800132751465,0.48628802872833315,89.0,892.0,0.0
Y,R,"[5, 8]",1.0,3.0,0.24873805046081543,1.9718048572540283,0.7245167157198483,89.0,893.0,0.0
G,D,"[6, 8]",1.0,4.0,0.22092986106872559,1.8953039646148682,0.6863811471032032,89.0,894.0,0.0
Y,R,"[6, 9]",-1.0,4.0,0.0693199634552002,5.568855047225952,0.43877488790431995,89.0,895.0,0.0
Y,R,"[6, 10]",1.0,5.0,0.36008691787719727,1.8940391540527344,0.5326697933819237,89.0,896.0,0.0
G,D,"[7, 10]",0.0,5.0,0.45310401916503906,2.0296339988708496,0.5788337760464284,89.0,897.0,0.0
B,L,"[7, 9]",0.0,5.0,0.2737588882446289,1.9362618923187256,0.6483690461168596,89.0,898.0,0.0
R,U,"[6, 9]",0.0,5.0,0.2448439598083496,1.8488359451293945,0.5971906680737461,89.0,899.0,0.0
G,D,"[7, 9]",0.0,5.0,0.2853820323944092,1.6368310451507568,0.3508238114396377,89.0,900.0,0.0
,,"(6, 6)",,,,,,,,
R,U,"[5, 6]",-1.0,0.0,0.04036092758178711,7.90376615524292,0.5042043371412928,90.0,901.0,0.0
Y,R,"[5, 7]",1.0,1.0,0.2510099411010742,1.9574799537658691,0.7115013052513665,90.0,902.0,0.0
Y,R,"[5, 8]",1.0,2.0,0.2276771068572998,1.6315159797668457,0.4100223410599233,90.0,903.0,0.0
G,D,"[6, 8]",1.0,3.0,0.32958102226257324,1.8175020217895508,0.4940147737541986,90.0,904.0,0.0
Y,R,"[6, 9]",1.0,4.0,0.2899739742279053,1.759639024734497,0.4869103408969247,90.0,905.0,0.0
Y,R,"[6, 10]",1.0,5.0,0.2993478775024414,1.756955862045288,0.4605470040159644,90.0,906.0,0.0
R,U,"[5, 10]",1.0,6.0,0.30429816246032715,1.9425618648529053,0.6361819490379705,90.0,907.0,0.0
R,U,"[4, 10]",1.0,7.0,0.24328899383544922,1.618021011352539,0.37113364015896516,90.0,908.0,0.0
B,L,"[4, 9]",1.0,8.0,0.3065319061279297,1.7490880489349365,0.4367689057764192,90.0,909.0,0.0
R,U,"[3, 9]",1.0,9.0,0.26673007011413574,1.5717511177062988,0.30870773260416023,90.0,910.0,0.0
,,"(6, 6)",,,,,,,,
R,U,"[5, 6]",1.0,1.0,0.6128230094909668,3.778602123260498,0.253858977096941,91.0,911.0,0.0
Y,R,"[5, 7]",1.0,2.0,0.31450796127319336,1.737126111984253,0.4239978170112446,91.0,912.0,0.0
Y,R,"[5, 8]",1.0,3.0,0.21521997451782227,1.4748589992523193,0.2657583411748885,91.0,913.0,0.0
G,D,"[6, 8]",1.0,4.0,0.21005797386169434,1.5126008987426758,0.2949586310120235,91.0,914.0,0.0
Y,R,"[6, 9]",1.0,5.0,0.26084017753601074,1.968203067779541,0.7127363715769315,91.0,915.0,0.0
Y,R,"[6, 10]",1.0,6.0,0.21246099472045898,1.9639599323272705,0.7431809805337275,91.0,916.0,0.0
R,U,"[5, 10]",1.0,7.0,0.22748899459838867,1.582043170928955,0.35899521052508165,91.0,917.0,0.0
R,U,"[4, 10]",1.0,8.0,0.30254507064819336,1.9436120986938477,0.6521844171894788,91.0,918.0,0.0
B,L,"[4, 9]",1.0,9.0,0.2573580741882324,1.581083059310913,0.3169446250909549,91.0,919.0,0.0
R,U,"[3, 9]",1.0,10.0,0.2657968997955322,1.9270820617675781,0.660249433714315,91.0,920.0,0.0
,,"(6, 6)",,,,,,,,
R,U,"[5, 6]",1.0,1.0,0.43317508697509766,3.9054300785064697,0.3492791137052333,92.0,921.0,0.0
Y,R,"[5, 7]",1.0,2.0,0.2944021224975586,1.697577953338623,0.3967288889325434,92.0,922.0,0.0
Y,R,"[5, 8]",1.0,3.0,0.23032498359680176,1.5098941326141357,0.2734047716609169,92.0,923.0,0.0
G,D,"[6, 8]",1.0,4.0,0.25236010551452637,1.5421779155731201,0.2987935170485868,92.0,924.0,0.0
Y,R,"[6, 9]",1.0,5.0,0.2123398780822754,1.9129230976104736,0.6945857351094671,92.0,925.0,0.0
Y,R,"[6, 10]",1.0,6.0,0.21448493003845215,1.5099639892578125,0.30496286500130115,92.0,926.0,0.0
R,U,"[5, 10]",1.0,7.0,0.40468502044677734,2.12825083732605,0.732815512439722,92.0,927.0,0.0
R,U,"[4, 10]",1.0,8.0,0.22332191467285156,1.6817119121551514,0.44794842271302315,92.0,928.0,0.0
B,L,"[4, 9]",1.0,9.0,0.5420258045196533,2.1519851684570312,0.5998203412721341,92.0,929.0,0.0
R,U,"[3, 9]",1.0,10.0,0.22301793098449707,1.650071144104004,0.41667451632679203,92.0,930.0,0.0
,,"(6, 6)",,,,,,,,
R,U,"[5, 6]",1.0,1.0,0.3677048683166504,3.7668049335479736,0.5499631685133113,93.0,931.0,0.0
Y,R,"[5, 7]",1.0,2.0,0.2243189811706543,1.7479479312896729,0.5145151301319087,93.0,932.0,0.0
Y,R,"[5, 8]",1.0,3.0,0.1742260456085205,1.7633700370788574,0.5776782336038115,93.0,933.0,0.0
G,D,"[6, 8]",1.0,4.0,0.2482609748840332,1.773953914642334,0.5351080250481388,93.0,934.0,0.0
Y,R,"[6, 9]",1.0,5.0,0.19390606880187988,1.4722821712493896,0.27429779471630694,93.0,935.0,0.0
Y,R,"[6, 10]",1.0,6.0,0.2534210681915283,1.6087429523468018,0.3661397268747406,93.0,936.0,0.0
R,U,"[5, 10]",1.0,7.0,0.2535691261291504,1.7918858528137207,0.5412129267006096,93.0,937.0,0.0
R,U,"[4, 10]",1.0,8.0,0.20622801780700684,1.787632942199707,0.578742218996872,93.0,938.0,0.0
B,L,"[4, 9]",1.0,9.0,0.22623801231384277,1.5529589653015137,0.3152034524362014,93.0,939.0,0.0
R,U,"[3, 9]",1.0,10.0,0.26429295539855957,1.7259199619293213,0.4577600755382525,93.0,940.0,0.0
,,"(6, 6)",,,,,,,,
R,U,"[5, 6]",1.0,1.0,0.2814018726348877,3.2830419540405273,0.5239543526846926,94.0,941.0,0.0
Y,R,"[5, 7]",1.0,2.0,0.23140287399291992,1.754065990447998,0.5278806556497285,94.0,942.0,0.0
Y,R,"[5, 8]",1.0,3.0,0.1761610507965088,1.6652019023895264,0.493256478940277,94.0,943.0,0.0
G,D,"[6, 8]",1.0,4.0,0.28551506996154785,1.8284480571746826,0.554858993917345,94.0,944.0,0.0
Y,R,"[6, 9]",1.0,5.0,0.25016212463378906,1.8064489364624023,0.5611834124085368,94.0,945.0,0.0
Y,R,"[6, 10]",1.0,6.0,0.268157958984375,1.5807030200958252,0.3255208778381228,94.0,946.0,0.0
R,U,"[5, 10]",1.0,7.0,0.2961850166320801,1.9492461681365967,0.6576499279089293,94.0,947.0,0.0
R,U,"[4, 10]",1.0,8.0,0.3016989231109619,1.7254738807678223,0.4332171551344191,94.0,948.0,0.0
B,L,"[4, 9]",1.0,9.0,0.4933929443359375,2.0814199447631836,0.5811143162870938,94.0,949.0,0.0
R,U,"[3, 9]",1.0,10.0,0.2612438201904297,1.9131309986114502,0.6442500079517346,94.0,950.0,0.0
,,"(6, 6)",,,,,,,,
R,U,"[5, 6]",1.0,1.0,0.7730350494384766,2.5116450786590576,0.2894680925400458,95.0,951.0,0.0
R,U,"[4, 6]",0.0,1.0,0.3184201717376709,1.9617419242858887,0.6508527683973537,95.0,952.0,0.0
Y,R,"[4, 7]",0.0,1.0,0.21066713333129883,1.8505680561065674,0.6346922531574026,95.0,953.0,0.0
R,U,"[3, 7]",0.0,1.0,0.3437469005584717,2.069660186767578,0.720865462128086,95.0,954.0,0.0
B,L,"[3, 6]",0.0,1.0,0.21883201599121094,1.4955470561981201,0.2835428439670787,95.0,955.0,0.0
G,D,"[4, 6]",0.0,1.0,0.2940220832824707,1.6365721225738525,0.3365261084889564,95.0,956.0,0.0
Y,R,"[4, 7]",0.0,1.0,0.20363306999206543,1.8326921463012695,0.6356731916939057,95.0,957.0,0.0
R,U,"[3, 7]",0.0,1.0,0.835313081741333,2.469558000564575,0.6384659480410546,95.0,958.0,0.0
B,L,"[3, 6]",0.0,1.0,0.2096240520477295,1.7344880104064941,0.523037651720687,95.0,959.0,0.0
G,D,"[4, 6]",0.0,1.0,0.4543039798736572,2.0672528743743896,0.6234919554462317,95.0,960.0,0.0
,,"(6, 6)",,,,,,,,
R,U,"[5, 6]",1.0,1.0,0.24723505973815918,8.308565855026245,0.31550175520032314,96.0,961.0,0.0
Y,R,"[5, 7]",1.0,2.0,0.6068990230560303,1.8680269718170166,0.2501991348749437,96.0,962.0,0.0
Y,R,"[5, 8]",1.0,3.0,0.26616501808166504,1.9245109558105469,0.6574961956454477,96.0,963.0,0.0
G,D,"[6, 8]",1.0,4.0,0.2544829845428467,1.978187084197998,0.7189734323854139,96.0,964.0,0.0
Y,R,"[6, 9]",1.0,5.0,0.21435284614562988,1.5903899669647217,0.37634900627256057,96.0,965.0,0.0
Y,R,"[6, 10]",1.0,6.0,0.24883604049682617,1.9006781578063965,0.6600542807912473,96.0,966.0,0.0
R,U,"[5, 10]",1.0,7.0,0.2838399410247803,1.9685909748077393,0.6952509069725898,96.0,967.0,0.0
R,U,"[4, 10]",1.0,8.0,0.30648303031921387,1.8398871421813965,0.518556161377576,96.0,968.0,0.0
B,L,"[4, 9]",1.0,9.0,0.31731605529785156,1.6103758811950684,0.2956868132449506,96.0,969.0,0.0
R,U,"[3, 9]",1.0,10.0,0.36741089820861816,1.678088903427124,0.3071333808027394,96.0,970.0,0.0
,,"(6, 6)",,,,,,,,
R,U,"[5, 6]",1.0,1.0,0.40244197845458984,5.3129918575286865,0.7363005999380431,97.0,971.0,0.0
Y,R,"[5, 7]",1.0,2.0,0.25206899642944336,1.5904569625854492,0.34371021041811894,97.0,972.0,0.0
Y,R,"[5, 8]",1.0,3.0,0.36113786697387695,1.6303949356079102,0.2740586504737462,97.0,973.0,0.0
G,D,"[6, 8]",1.0,4.0,0.3223237991333008,2.0185580253601074,0.6922702566061599,97.0,974.0,0.0
Y,R,"[6, 9]",1.0,5.0,0.24362897872924805,1.9902489185333252,0.7490603570212813,97.0,975.0,0.0
Y,R,"[6, 10]",1.0,6.0,0.23827409744262695,1.8113021850585938,0.5770687374264385,97.0,976.0,0.0
R,U,"[5, 10]",1.0,7.0,0.25168299674987793,1.8826770782470703,0.6430956987976486,97.0,977.0,0.0
R,U,"[4, 10]",1.0,8.0,0.22232508659362793,1.9018402099609375,0.6785180004683073,97.0,978.0,0.0
B,L,"[4, 9]",1.0,9.0,0.3401000499725342,2.0412371158599854,0.70266912951449,97.0,979.0,0.0
R,U,"[3, 9]",1.0,10.0,0.3943600654602051,1.9505000114440918,0.5532116521281469,97.0,980.0,0.0
,,"(6, 6)",,,,,,,,
R,U,"[5, 6]",1.0,1.0,0.5178320407867432,3.3995471000671387,0.5193415762146154,98.0,981.0,0.0
Y,R,"[5, 7]",1.0,2.0,0.42027902603149414,2.1373889446258545,0.7232528987910429,98.0,982.0,0.0
Y,R,"[5, 8]",1.0,3.0,0.228057861328125,1.7838048934936523,0.5571615632077289,98.0,983.0,0.0
G,D,"[6, 8]",1.0,4.0,0.2115919589996338,1.6092009544372559,0.3998101159781278,98.0,984.0,0.0
Y,R,"[6, 9]",1.0,5.0,0.261868953704834,1.7576100826263428,0.49050622820071504,98.0,985.0,0.0
Y,R,"[6, 10]",1.0,6.0,0.2648599147796631,2.0019381046295166,0.742233334891758,98.0,986.0,0.0
R,U,"[5, 10]",1.0,7.0,0.21079683303833008,1.738279104232788,0.5306143641272998,98.0,987.0,0.0
R,U,"[4, 10]",1.0,8.0,0.23987603187561035,1.9662199020385742,0.7133806921457371,98.0,988.0,0.0
B,L,"[4, 9]",1.0,9.0,0.2691361904144287,1.7915551662445068,0.5217823760111651,98.0,989.0,0.0
R,U,"[3, 9]",1.0,10.0,0.2898550033569336,1.9955270290374756,0.7004007251157918,98.0,990.0,0.0
,,"(6, 6)",,,,,,,,
R,U,"[5, 6]",1.0,1.0,0.5483717918395996,5.148966073989868,0.732442321254198,99.0,991.0,0.0
Y,R,"[5, 7]",1.0,2.0,0.2579798698425293,1.9515697956085205,0.6840968100544788,99.0,992.0,0.0
Y,R,"[5, 8]",1.0,3.0,0.337785005569458,2.0693368911743164,0.7368332304775287,99.0,993.0,0.0
G,D,"[6, 8]",1.0,4.0,0.1682288646697998,1.4136860370635986,0.2507530325977224,99.0,994.0,0.0
Y,R,"[6, 9]",1.0,5.0,0.3823859691619873,1.9882290363311768,0.6052635506886728,99.0,995.0,0.0
Y,R,"[6, 10]",1.0,6.0,0.21407103538513184,1.4898970127105713,0.278753372225647,99.0,996.0,0.0
R,U,"[5, 10]",1.0,7.0,0.3362259864807129,1.5956199169158936,0.2742923406523411,99.0,997.0,0.0
R,U,"[4, 10]",1.0,8.0,0.2138381004333496,1.7953917980194092,0.58608882284822,99.0,998.0,0.0
B,L,"[4, 9]",1.0,9.0,0.20475196838378906,1.704103946685791,0.5068189229410087,99.0,999.0,0.0
R,U,"[3, 9]",1.0,10.0,0.23466205596923828,1.4816670417785645,0.25543499730815244,99.0,1000.0,0.0
