button_choice,action_choice,coordinate_choice,reward,cumulative_reward,rt,total_trial_time,iti,block_n,trial_n,trial_type
R,U,"[5, 6]",1.0,1.0,0.7431211471557617,2.447000026702881,0.6809753568439556,0.0,1.0,0.0
Y,R,"[5, 7]",1.0,2.0,0.3185091018676758,1.8940870761871338,0.5754399778918002,0.0,2.0,0.0
Y,R,"[5, 8]",1.0,3.0,0.2182760238647461,1.5491979122161865,0.3411018399439339,0.0,3.0,0.0
G,D,"[6, 8]",1.0,4.0,0.30614209175109863,1.5751879215240479,0.2830934930568233,0.0,4.0,0.0
Y,R,"[6, 9]",1.0,5.0,0.2807610034942627,1.7964301109313965,0.5125950772743968,0.0,5.0,0.0
Y,R,"[6, 10]",1.0,6.0,0.20775508880615234,1.9639308452606201,0.7429104556742587,0.0,6.0,0.0
Y,R,"[6, 11]",0.0,6.0,0.3877689838409424,1.9884240627288818,0.6147048962289501,0.0,7.0,0.0
R,U,"[5, 11]",0.0,6.0,0.43877291679382324,2.183730125427246,0.7316931827744522,0.0,8.0,0.0
B,L,"[5, 10]",1.0,7.0,0.6073708534240723,1.8916959762573242,0.29049871009959205,0.0,9.0,0.0
R,U,"[4, 10]",1.0,8.0,0.64910888671875,2.023838996887207,0.3808042161647427,0.0,10.0,0.0
,,"(6, 6)",,,,,,,,
R,U,"[5, 6]",1.0,1.0,0.5555968284606934,4.827508211135864,0.6746253838376877,1.0,11.0,0.0
Y,R,"[5, 7]",1.0,2.0,0.28098487854003906,1.9532699584960938,0.6778855261927581,1.0,12.0,0.0
Y,R,"[5, 8]",1.0,3.0,0.37601304054260254,1.7620420455932617,0.390173275152851,1.0,13.0,0.0
G,D,"[6, 8]",1.0,4.0,0.3492910861968994,1.694843053817749,0.35170854841389027,1.0,14.0,0.0
Y,R,"[6, 9]",1.0,5.0,0.38029909133911133,2.0731360912323,0.6911450875238836,1.0,15.0,0.0
Y,R,"[6, 10]",1.0,6.0,0.17069005966186523,1.4340848922729492,0.2756360555926917,1.0,16.0,0.0
R,U,"[5, 10]",1.0,7.0,0.36232709884643555,1.9877018928527832,0.6294694972156052,1.0,17.0,0.0
R,U,"[4, 10]",1.0,8.0,0.18629097938537598,1.6541109085083008,0.4673971232299717,1.0,18.0,0.0
B,L,"[4, 9]",1.0,9.0,0.22236013412475586,1.8792400360107422,0.6461324209808487,1.0,19.0,0.0
R,U,"[3, 9]",1.0,10.0,0.21495985984802246,1.8965320587158203,0.6760181803774956,1.0,20.0,0.0
,,"(6, 6)",,,,,,,,
R,U,"[5, 6]",1.0,1.0,0.3892350196838379,2.2712390422821045,0.39736182429127703,2.0,21.0,0.0
Y,R,"[5, 7]",1.0,2.0,0.6273229122161865,2.3813350200653076,0.745112589071782,2.0,22.0,0.0
Y,R,"[5, 8]",1.0,3.0,0.19593286514282227,1.4989140033721924,0.29435792764187274,2.0,23.0,0.0
G,D,"[6, 8]",1.0,4.0,0.4175558090209961,1.6670160293579102,0.26147876871611964,2.0,24.0,0.0
Y,R,"[6, 9]",1.0,5.0,0.3351421356201172,1.8299481868743896,0.5077586786295581,2.0,25.0,0.0
R,U,"[5, 9]",0.0,5.0,0.38649988174438477,1.8998749256134033,0.5242650217875797,2.0,26.0,0.0
R,U,"[4, 9]",1.0,6.0,0.2145709991455078,1.7896919250488281,0.5804129243497104,2.0,27.0,0.0
R,U,"[3, 9]",1.0,7.0,0.7085609436035156,2.339750051498413,0.6202298073873411,2.0,28.0,0.0
B,L,"[3, 8]",0.0,7.0,0.3511829376220703,1.6813509464263916,0.3350955910654733,2.0,29.0,0.0
R,U,"[2, 8]",0.0,7.0,0.4170708656311035,1.725917100906372,0.31115757221456214,2.0,30.0,0.0
,,"(6, 6)",,,,,,,,
R,U,"[5, 6]",1.0,1.0,0.49387502670288086,3.6669609546661377,0.5277020155612471,3.0,31.0,0.0
Y,R,"[5, 7]",1.0,2.0,0.43252992630004883,1.844498872756958,0.422324040821876,3.0,32.0,0.0
Y,R,"[5, 8]",1.0,3.0,0.1814558506011963,1.4384839534759521,0.2609171063620068,3.0,33.0,0.0
G,D,"[6, 8]",1.0,4.0,0.4381139278411865,1.7495770454406738,0.32702517678228904,3.0,34.0,0.0
Y,R,"[6, 9]",1.0,5.0,0.1960890293121338,1.7372901439666748,0.5474693487081497,3.0,35.0,0.0
Y,R,"[6, 10]",1.0,6.0,0.1674060821533203,1.658210039138794,0.4890244920834277,3.0,36.0,0.0
R,U,"[5, 10]",1.0,7.0,0.25199079513549805,1.9708938598632812,0.7262907633690785,3.0,37.0,0.0
R,U,"[4, 10]",-1.0,7.0,0.0803680419921875,5.794050931930542,0.6540298267096167,3.0,38.0,0.0
B,L,"[4, 9]",1.0,8.0,0.3144078254699707,1.7294549942016602,0.41668974091516403,3.0,39.0,0.0
R,U,"[3, 9]",1.0,9.0,0.36101484298706055,1.6608150005340576,0.29425698536266953,3.0,40.0,0.0
,,"(6, 6)",,,,,,,,
R,U,"[5, 6]",1.0,1.0,0.45845890045166016,2.530068874359131,0.6572588922403858,4.0,41.0,0.0
Y,R,"[5, 7]",1.0,2.0,0.24261999130249023,1.55293607711792,0.31046363228188156,4.0,42.0,0.0
Y,R,"[5, 8]",1.0,3.0,0.43196606636047363,1.9367930889129639,0.5136251908432322,4.0,43.0,0.0
G,D,"[6, 8]",1.0,4.0,0.35254693031311035,1.9250679016113281,0.5719084030391548,4.0,44.0,0.0
Y,R,"[6, 9]",1.0,5.0,0.16389799118041992,1.7915599346160889,0.6301392259468492,4.0,45.0,0.0
Y,R,"[6, 10]",1.0,6.0,0.18103694915771484,1.6788959503173828,0.49237599971407964,4.0,46.0,0.0
R,U,"[5, 10]",1.0,7.0,0.2962319850921631,1.961111068725586,0.6699288403728954,4.0,47.0,0.0
R,U,"[4, 10]",1.0,8.0,0.21551203727722168,1.7232630252838135,0.5101519192388309,4.0,48.0,0.0
B,L,"[4, 9]",1.0,9.0,0.26088500022888184,1.9295308589935303,0.6727398656282537,4.0,49.0,0.0
R,U,"[3, 9]",1.0,10.0,0.2187800407409668,1.8165810108184814,0.6062629551050728,4.0,50.0,0.0
,,"(6, 6)",,,,,,,,
G,D,"[7, 6]",0.0,0.0,0.4160161018371582,2.5784738063812256,0.5345724648381466,5.0,51.0,0.0
Y,R,"[7, 7]",0.0,0.0,0.8185358047485352,2.27468204498291,0.45930958995885696,5.0,52.0,0.0
Y,R,"[7, 8]",-1.0,0.0,0.0013270378112792969,5.356698989868164,0.2993247884351506,5.0,53.0,0.0
Y,R,"[7, 9]",0.0,0.0,0.5991389751434326,2.2060298919677734,0.6053338077026127,5.0,54.0,0.0
R,U,"[6, 9]",1.0,1.0,0.37731409072875977,1.9434850215911865,0.5652878030100374,5.0,55.0,0.0
R,U,"[5, 9]",0.0,1.0,0.3590998649597168,1.9787211418151855,0.6105242494291074,5.0,56.0,0.0
B,L,"[5, 8]",1.0,2.0,0.25089406967163086,1.5366251468658447,0.29731951399410894,5.0,57.0,0.0
B,L,"[5, 7]",1.0,3.0,0.6895289421081543,2.0488221645355225,0.34606700491957637,5.0,58.0,0.0
B,L,"[5, 6]",1.0,4.0,0.4494140148162842,1.7618420124053955,0.30797463709066575,5.0,59.0,0.0
B,L,"[5, 5]",0.0,4.0,0.4923579692840576,2.1854448318481445,0.6930222230362952,5.0,60.0,0.0
,,"(6, 6)",,,,,,,,
R,U,"[5, 6]",1.0,1.0,0.4938468933105469,3.066922903060913,0.7432629633934198,6.0,61.0,0.0
Y,R,"[5, 7]",1.0,2.0,0.39734482765197754,1.8324909210205078,0.44264248639067677,6.0,62.0,0.0
Y,R,"[5, 8]",1.0,3.0,0.334183931350708,1.7574758529663086,0.4333569250791728,6.0,63.0,0.0
G,D,"[6, 8]",1.0,4.0,0.4224979877471924,1.7391860485076904,0.3059498244577425,6.0,64.0,0.0
Y,R,"[6, 9]",1.0,5.0,0.4490218162536621,1.853074073791504,0.40900539331375163,6.0,65.0,0.0
Y,R,"[6, 10]",1.0,6.0,0.28795599937438965,1.6486809253692627,0.37434765267514963,6.0,66.0,0.0
R,U,"[5, 10]",1.0,7.0,0.3889322280883789,1.9084198474884033,0.5325835092502165,6.0,67.0,0.0
R,U,"[4, 10]",1.0,8.0,0.27656102180480957,1.77144193649292,0.48738091143556844,6.0,68.0,0.0
B,L,"[4, 9]",1.0,9.0,0.30062389373779297,1.5482370853424072,0.25239688989984477,6.0,69.0,0.0
R,U,"[3, 9]",1.0,10.0,0.5558960437774658,1.8658421039581299,0.3014390020485432,6.0,70.0,0.0
,,"(6, 6)",,,,,,,,
Y,R,"[6, 7]",0.0,0.0,0.23163604736328125,2.50881290435791,0.5268055814549024,7.0,71.0,0.0
R,U,"[5, 7]",1.0,1.0,0.61788010597229,2.0901269912719727,0.483585661368903,7.0,72.0,0.0
R,U,"[4, 7]",0.0,1.0,0.44985103607177734,1.8743009567260742,0.42466448990290173,7.0,73.0,0.0
G,D,"[5, 7]",0.0,1.0,0.3072080612182617,1.769474983215332,0.46050992008259317,7.0,74.0,0.0
Y,R,"[5, 8]",-1.0,1.0,0.008023977279663086,5.376252174377441,0.32022722047293023,7.0,75.0,0.0
G,D,"[6, 8]",1.0,2.0,0.31516408920288086,1.8811280727386475,0.5677729988467782,7.0,76.0,0.0
G,D,"[7, 8]",0.0,2.0,0.5467500686645508,2.031733989715576,0.4829192252668962,7.0,77.0,0.0
Y,R,"[7, 9]",0.0,2.0,0.41949009895324707,1.8144481182098389,0.39734639915532716,7.0,78.0,0.0
Y,R,"[7, 10]",0.0,2.0,0.21177005767822266,1.9354650974273682,0.7158470683719022,7.0,79.0,0.0
B,L,"[7, 9]",0.0,2.0,0.3734598159790039,1.7950870990753174,0.41120980759548575,7.0,80.0,0.0
,,"(6, 6)",,,,,,,,
R,U,"[5, 6]",1.0,1.0,0.5323541164398193,3.936595916748047,0.6141919353271252,8.0,81.0,0.0
Y,R,"[5, 7]",1.0,2.0,0.3490719795227051,2.0933170318603516,0.7408820471238078,8.0,82.0,0.0
Y,R,"[5, 8]",1.0,3.0,0.24785304069519043,1.620067834854126,0.37780250192417403,8.0,83.0,0.0
G,D,"[6, 8]",1.0,4.0,0.5930380821228027,1.9065649509429932,0.3176459868087916,8.0,84.0,0.0
Y,R,"[6, 9]",1.0,5.0,0.37536120414733887,1.9860849380493164,0.6033505706291986,8.0,85.0,0.0
Y,R,"[6, 10]",1.0,6.0,0.3020598888397217,1.8377041816711426,0.5414400521798426,8.0,86.0,0.0
R,U,"[5, 10]",1.0,7.0,0.5567018985748291,2.1498069763183594,0.5909476187769138,8.0,87.0,0.0
R,U,"[4, 10]",1.0,8.0,0.43964314460754395,2.031810998916626,0.5895941354766985,8.0,88.0,0.0
B,L,"[4, 9]",1.0,9.0,0.4333021640777588,2.061357021331787,0.6339869554518127,8.0,89.0,0.0
R,U,"[3, 9]",1.0,10.0,0.39960598945617676,2.0520780086517334,0.6525920871904358,8.0,90.0,0.0
,,"(6, 6)",,,,,,,,
R,U,"[5, 6]",1.0,1.0,0.5313899517059326,2.4232120513916016,0.5259046222156993,9.0,91.0,0.0
Y,R,"[5, 7]",1.0,2.0,0.29493093490600586,1.853714942932129,0.5629242364141656,9.0,92.0,0.0
Y,R,"[5, 8]",1.0,3.0,0.37653684616088867,1.679664134979248,0.29280385504471124,9.0,93.0,0.0
G,D,"[6, 8]",1.0,4.0,0.49955296516418457,2.180321216583252,0.6894297286634317,9.0,94.0,0.0
Y,R,"[6, 9]",1.0,5.0,0.2682070732116699,1.8856101036071777,0.6249682609931715,9.0,95.0,0.0
Y,R,"[6, 10]",1.0,6.0,0.24583101272583008,1.6604831218719482,0.4190182614812063,9.0,96.0,0.0
R,U,"[5, 10]",1.0,7.0,0.5382280349731445,2.112215042114258,0.5643459873552387,9.0,97.0,0.0
R,U,"[4, 10]",1.0,8.0,0.308535099029541,1.8293728828430176,0.5105040692365705,9.0,98.0,0.0
B,L,"[4, 9]",1.0,9.0,0.2679328918457031,1.742246150970459,0.4860076418381617,9.0,99.0,0.0
R,U,"[3, 9]",1.0,10.0,0.24679803848266602,1.665160894393921,0.41783691839138626,9.0,100.0,0.0
,,"(6, 6)",,,,,,,,
R,U,"[5, 6]",1.0,1.0,0.4103679656982422,2.473496913909912,0.6244585090144571,10.0,101.0,0.0
Y,R,"[5, 7]",1.0,2.0,0.3086550235748291,1.8129949569702148,0.5041438354939981,10.0,102.0,0.0
Y,R,"[5, 8]",1.0,3.0,0.32404398918151855,1.5808308124542236,0.25190586146105226,10.0,103.0,0.0
G,D,"[6, 8]",1.0,4.0,0.48562192916870117,2.163968086242676,0.6820916474671613,10.0,104.0,0.0
Y,R,"[6, 9]",1.0,5.0,0.2879831790924072,1.7561161518096924,0.4551158217763628,10.0,105.0,0.0
Y,R,"[6, 10]",1.0,6.0,0.3378269672393799,2.018310070037842,0.689803265202676,10.0,106.0,0.0
R,U,"[5, 10]",1.0,7.0,0.2430579662322998,1.8476600646972656,0.6041946953858899,10.0,107.0,0.0
R,U,"[4, 10]",1.0,8.0,0.3421149253845215,1.972977876663208,0.6271140945473389,10.0,108.0,0.0
B,L,"[4, 9]",1.0,9.0,0.2573840618133545,1.9813179969787598,0.7249029716617841,10.0,109.0,0.0
R,U,"[3, 9]",1.0,10.0,0.33603715896606445,1.8129911422729492,0.4880557844655374,10.0,110.0,0.0
,,"(6, 6)",,,,,,,,
R,U,"[5, 6]",1.0,1.0,0.46675896644592285,2.3342299461364746,0.28922299679506364,11.0,111.0,0.0
Y,R,"[5, 7]",1.0,2.0,0.3489689826965332,1.9175970554351807,0.5731876742212707,11.0,112.0,0.0
Y,R,"[5, 8]",1.0,3.0,0.36335301399230957,1.778738021850586,0.41868030376504306,11.0,113.0,0.0
G,D,"[6, 8]",1.0,4.0,0.41395092010498047,2.1315040588378906,0.7169859465357864,11.0,114.0,0.0
Y,R,"[6, 9]",1.0,5.0,0.26372385025024414,1.687938928604126,0.4213922865588619,11.0,115.0,0.0
Y,R,"[6, 10]",1.0,6.0,0.46306800842285156,2.159911870956421,0.6976366354604202,11.0,116.0,0.0
R,U,"[5, 10]",1.0,7.0,0.27960801124572754,1.5441069602966309,0.25888003387389025,11.0,117.0,0.0
R,U,"[4, 10]",1.0,8.0,0.5203440189361572,2.042011022567749,0.5338966703677603,11.0,118.0,0.0
B,L,"[4, 9]",1.0,9.0,0.3143630027770996,1.8221960067749023,0.5060525547594015,11.0,119.0,0.0
R,U,"[3, 9]",1.0,10.0,0.35754919052124023,2.0300350189208984,0.6692573750531043,11.0,120.0,0.0
,,"(6, 6)",,,,,,,,
R,U,"[5, 6]",1.0,1.0,0.4768960475921631,2.4310240745544434,0.3505986689110116,12.0,121.0,0.0
Y,R,"[5, 7]",1.0,2.0,0.47585487365722656,2.115928888320923,0.6328257588476134,12.0,122.0,0.0
Y,R,"[5, 8]",1.0,3.0,0.2932920455932617,1.6916918754577637,0.3914325904087108,12.0,123.0,0.0
G,D,"[6, 8]",1.0,4.0,0.512847900390625,2.1223299503326416,0.6135115870257272,12.0,124.0,0.0
Y,R,"[6, 9]",1.0,5.0,0.24152517318725586,1.8509628772735596,0.5977777307598703,12.0,125.0,0.0
Y,R,"[6, 10]",1.0,6.0,0.2425069808959961,1.5336029529571533,0.28163759639031216,12.0,126.0,0.0
R,U,"[5, 10]",1.0,7.0,0.4831850528717041,1.8919689655303955,0.40676089155844775,12.0,127.0,0.0
R,U,"[4, 10]",1.0,8.0,0.4129500389099121,1.9297840595245361,0.5196724956405108,12.0,128.0,0.0
B,L,"[4, 9]",1.0,9.0,0.33439183235168457,1.6259269714355469,0.2958912192594372,12.0,129.0,0.0
R,U,"[3, 9]",1.0,10.0,0.378399133682251,1.7888200283050537,0.40117284304872,12.0,130.0,0.0
,,"(6, 6)",,,,,,,,
R,U,"[5, 6]",1.0,1.0,0.49542903900146484,2.5666139125823975,0.4844291732859734,13.0,131.0,0.0
Y,R,"[5, 7]",1.0,2.0,0.5344631671905518,2.144101858139038,0.6116686332522091,13.0,132.0,0.0
Y,R,"[5, 8]",1.0,3.0,0.28161096572875977,1.9718520641326904,0.7000748831201603,13.0,133.0,0.0
G,D,"[6, 8]",1.0,4.0,0.32741594314575195,1.7980589866638184,0.46497962184744684,13.0,134.0,0.0
Y,R,"[6, 9]",1.0,5.0,0.28537797927856445,1.6669058799743652,0.38193360137027543,13.0,135.0,0.0
Y,R,"[6, 10]",1.0,6.0,0.2790038585662842,1.8090229034423828,0.5240301482585119,13.0,136.0,0.0
R,U,"[5, 10]",1.0,7.0,0.7907009124755859,2.3450629711151123,0.5523720857330376,13.0,137.0,0.0
R,U,"[4, 10]",1.0,8.0,0.3256659507751465,2.042820930480957,0.7117751343794909,13.0,138.0,0.0
B,L,"[4, 9]",1.0,9.0,0.22164082527160645,1.5655300617218018,0.3442686165881523,13.0,139.0,0.0
R,U,"[3, 9]",1.0,10.0,0.3356509208679199,1.660742998123169,0.33838292959905736,13.0,140.0,0.0
,,"(6, 6)",,,,,,,,
R,U,"[5, 6]",1.0,1.0,0.6658642292022705,2.510962963104248,0.3326639448312936,14.0,141.0,0.0
Y,R,"[5, 7]",1.0,2.0,0.3762788772583008,1.687403917312622,0.3033539298139061,14.0,142.0,0.0
Y,R,"[5, 8]",1.0,3.0,0.3159029483795166,2.023869037628174,0.7100074620606912,14.0,143.0,0.0
G,D,"[6, 8]",1.0,4.0,0.3562350273132324,1.7298622131347656,0.37365475755750943,14.0,144.0,0.0
Y,R,"[6, 9]",1.0,5.0,0.26996302604675293,1.8081541061401367,0.5482145028721788,14.0,145.0,0.0
Y,R,"[6, 10]",1.0,6.0,0.2514071464538574,1.813513994216919,0.5617292883585552,14.0,146.0,0.0
R,U,"[5, 10]",1.0,7.0,0.46978092193603516,1.8417599201202393,0.38693535377628197,14.0,147.0,0.0
R,U,"[4, 10]",1.0,8.0,0.38623595237731934,2.117975950241089,0.7379224537806595,14.0,148.0,0.0
B,L,"[4, 9]",1.0,9.0,0.19168400764465332,1.4829301834106445,0.28779294981151343,14.0,149.0,0.0
R,U,"[3, 9]",1.0,10.0,0.4472498893737793,1.7614240646362305,0.3158992693878396,14.0,150.0,0.0
,,"(6, 6)",,,,,,,,
R,U,"[5, 6]",1.0,1.0,0.666032075881958,2.922441005706787,0.7378744798863297,15.0,151.0,0.0
Y,R,"[5, 7]",1.0,2.0,0.2317659854888916,1.8723289966583252,0.6436212308491177,15.0,152.0,0.0
Y,R,"[5, 8]",1.0,3.0,0.25820279121398926,1.97102689743042,0.7148764564844696,15.0,153.0,0.0
G,D,"[6, 8]",1.0,4.0,0.4158439636230469,1.6777799129486084,0.259375005008446,15.0,154.0,0.0
Y,R,"[6, 9]",1.0,5.0,0.4061088562011719,2.0622079372406006,0.6545497855225674,15.0,155.0,0.0
Y,R,"[6, 10]",1.0,6.0,0.3302319049835205,1.8598480224609375,0.5311068246615707,15.0,156.0,0.0
R,U,"[5, 10]",1.0,7.0,0.32094693183898926,1.734555959701538,0.4157396561132081,15.0,157.0,0.0
R,U,"[4, 10]",1.0,8.0,0.48036980628967285,1.9062221050262451,0.42186645782438975,15.0,158.0,0.0
B,L,"[4, 9]",1.0,9.0,0.44045090675354004,2.0490190982818604,0.6039575001814935,15.0,159.0,0.0
R,U,"[3, 9]",1.0,10.0,0.285430908203125,1.9470300674438477,0.6675904170576279,15.0,160.0,0.0
,,"(6, 6)",,,,,,,,
R,U,"[5, 6]",1.0,1.0,0.5313889980316162,3.5097098350524902,0.7273162922662848,16.0,161.0,0.0
Y,R,"[5, 7]",1.0,2.0,0.24735617637634277,1.6082921028137207,0.36922538513799846,16.0,162.0,0.0
Y,R,"[5, 8]",1.0,3.0,0.4277040958404541,1.7154037952423096,0.2846082684332286,16.0,163.0,0.0
G,D,"[6, 8]",1.0,4.0,0.8302488327026367,2.4505341053009033,0.6182105949921061,16.0,164.0,0.0
Y,R,"[6, 9]",1.0,5.0,0.2370009422302246,1.8746399879455566,0.642798006254937,16.0,165.0,0.0
Y,R,"[6, 10]",1.0,6.0,0.21532487869262695,1.8147590160369873,0.6073906500125199,16.0,166.0,0.0
R,U,"[5, 10]",1.0,7.0,0.21255707740783691,1.933387041091919,0.7246310737477188,16.0,167.0,0.0
R,U,"[4, 10]",1.0,8.0,0.37979602813720703,2.031845808029175,0.656017889318537,16.0,168.0,0.0
B,L,"[4, 9]",1.0,9.0,0.20684003829956055,1.817525863647461,0.6068121627896665,16.0,169.0,0.0
R,U,"[3, 9]",1.0,10.0,0.4002678394317627,1.8687679767608643,0.4757784297978443,16.0,170.0,0.0
,,"(6, 6)",,,,,,,,
R,U,"[5, 6]",-2.0,0.0,1.0404870510101318,3.2928860187530518,0.5850290729099319,17.0,171.0,0.0
Y,R,"[5, 7]",1.0,1.0,0.3646259307861328,1.8793861865997314,0.5145495016309903,17.0,172.0,0.0
Y,R,"[5, 8]",1.0,2.0,0.32746005058288574,1.618607997894287,0.2832876334892667,17.0,173.0,0.0
G,D,"[6, 8]",1.0,3.0,0.7375221252441406,2.3782289028167725,0.6278976254987878,17.0,174.0,0.0
Y,R,"[6, 9]",1.0,4.0,0.3009920120239258,2.0286550521850586,0.7396875379729851,17.0,175.0,0.0
Y,R,"[6, 10]",1.0,5.0,0.5384700298309326,2.217471122741699,0.690562005799849,17.0,176.0,0.0
R,U,"[5, 10]",1.0,6.0,0.30783891677856445,1.8263280391693115,0.5170295539429961,17.0,177.0,0.0
R,U,"[4, 10]",1.0,7.0,0.28848719596862793,1.8880608081817627,0.5881856547909508,17.0,178.0,0.0
B,L,"[4, 9]",1.0,8.0,0.2193911075592041,1.8576140403747559,0.645785810089601,17.0,179.0,0.0
R,U,"[3, 9]",1.0,9.0,0.21746516227722168,1.8870930671691895,0.6662094704819878,17.0,180.0,0.0
,,"(6, 6)",,,,,,,,
R,U,"[5, 6]",-2.0,0.0,1.4189400672912598,7.795898914337158,0.6456446687460938,18.0,181.0,0.0
Y,R,"[5, 7]",1.0,1.0,0.46006298065185547,1.9131529331207275,0.44184107272158546,18.0,182.0,0.0
Y,R,"[5, 8]",1.0,2.0,0.3432791233062744,1.7243258953094482,0.3830414450787551,18.0,183.0,0.0
G,D,"[6, 8]",1.0,3.0,0.32662415504455566,1.8594958782196045,0.5256007270342282,18.0,184.0,0.0
Y,R,"[6, 9]",1.0,4.0,0.2015221118927002,1.8415138721466064,0.6502793605251442,18.0,185.0,0.0
Y,R,"[6, 10]",1.0,5.0,0.47425389289855957,2.0340888500213623,0.5511369299933446,18.0,186.0,0.0
Y,R,"[6, 11]",-1.0,5.0,0.0007441043853759766,5.671767950057983,0.6059838137753872,18.0,187.0,0.0
R,U,"[5, 11]",0.0,5.0,0.3235459327697754,1.7588269710540771,0.43174497168826226,18.0,188.0,0.0
B,L,"[5, 10]",1.0,6.0,0.3198380470275879,1.7310328483581543,0.4126551331167506,18.0,189.0,0.0
R,U,"[4, 10]",1.0,7.0,0.42148590087890625,2.0292229652404785,0.591770718064693,18.0,190.0,0.0
,,"(6, 6)",,,,,,,,
R,U,"[5, 6]",1.0,1.0,0.7188899517059326,4.298529148101807,0.6734749892490932,19.0,191.0,0.0
Y,R,"[5, 7]",1.0,2.0,0.23889398574829102,1.9016118049621582,0.6751730551885021,19.0,192.0,0.0
Y,R,"[5, 8]",1.0,3.0,0.26295900344848633,1.8508920669555664,0.5928785346320452,19.0,193.0,0.0
G,D,"[6, 8]",1.0,4.0,0.324862003326416,1.6778271198272705,0.3540562151620486,19.0,194.0,0.0
Y,R,"[6, 9]",1.0,5.0,0.5064918994903564,2.154531955718994,0.6415283220091641,19.0,195.0,0.0
Y,R,"[6, 10]",1.0,6.0,0.28951001167297363,1.945713996887207,0.6538612167023508,19.0,196.0,0.0
R,U,"[5, 10]",1.0,7.0,0.24766802787780762,1.6790120601654053,0.4332336976679123,19.0,197.0,0.0
R,U,"[4, 10]",1.0,8.0,0.2831308841705322,1.5975840091705322,0.3140991780080101,19.0,198.0,0.0
B,L,"[4, 9]",1.0,9.0,0.5424718856811523,2.040443181991577,0.4875740764124656,19.0,199.0,0.0
R,U,"[3, 9]",1.0,10.0,0.2217559814453125,1.578674077987671,0.36642410770587297,19.0,200.0,0.0
,,"(6, 6)",,,,,,,,
R,U,"[5, 6]",1.0,1.0,0.4702951908111572,2.2948050498962402,0.2945373494178628,20.0,201.0,0.0
Y,R,"[5, 7]",1.0,2.0,0.33205699920654297,1.9215748310089111,0.5991836043919916,20.0,202.0,0.0
Y,R,"[5, 8]",1.0,3.0,0.23576784133911133,1.9642140865325928,0.7299198986074799,20.0,203.0,0.0
G,D,"[6, 8]",1.0,4.0,0.20302915573120117,1.5908830165863037,0.3877693925750284,20.0,204.0,0.0
Y,R,"[6, 9]",1.0,5.0,0.3266751766204834,1.8500730991363525,0.5210277313282147,20.0,205.0,0.0
Y,R,"[6, 10]",1.0,6.0,0.29764795303344727,1.9153850078582764,0.619547263617243,20.0,206.0,0.0
R,U,"[5, 10]",1.0,7.0,0.25101709365844727,1.8539071083068848,0.606827868975073,20.0,207.0,0.0
R,U,"[4, 10]",1.0,8.0,0.31113195419311523,2.01255202293396,0.7026423106697872,20.0,208.0,0.0
B,L,"[4, 9]",1.0,9.0,0.259476900100708,1.675023078918457,0.4111944446906398,20.0,209.0,0.0
R,U,"[3, 9]",1.0,10.0,0.46459484100341797,1.7858607769012451,0.3303859057026067,20.0,210.0,0.0
,,"(6, 6)",,,,,,,,
R,U,"[5, 6]",1.0,1.0,0.3774271011352539,2.22763991355896,0.32463344973856867,21.0,211.0,0.0
Y,R,"[5, 7]",1.0,2.0,0.3619539737701416,1.7824029922485352,0.42360697175752743,21.0,212.0,0.0
Y,R,"[5, 8]",1.0,3.0,0.2655670642852783,1.5894830226898193,0.3298504987514858,21.0,213.0,0.0
G,D,"[6, 8]",1.0,4.0,0.39860105514526367,2.0299630165100098,0.6260871465529003,21.0,214.0,0.0
Y,R,"[6, 9]",1.0,5.0,0.19390201568603516,1.5682740211486816,0.3780652116901364,21.0,215.0,0.0
Y,R,"[6, 10]",1.0,6.0,0.12630200386047363,1.663728952407837,0.5414531718921656,21.0,216.0,0.0
R,U,"[5, 10]",1.0,7.0,0.270719051361084,1.641484022140503,0.38311864475007257,21.0,217.0,0.0
R,U,"[4, 10]",1.0,8.0,0.4379398822784424,1.9655060768127441,0.5317254160981604,21.0,218.0,0.0
B,L,"[4, 9]",1.0,9.0,0.3449728488922119,2.070449113845825,0.718945158373866,21.0,219.0,0.0
R,U,"[3, 9]",1.0,10.0,0.19934892654418945,1.470059871673584,0.2724977809473427,21.0,220.0,0.0
,,"(6, 6)",,,,,,,,
R,U,"[5, 6]",1.0,1.0,0.4097139835357666,2.5699009895324707,0.6252627350350104,22.0,221.0,0.0
Y,R,"[5, 7]",1.0,2.0,0.31800103187561035,1.9932260513305664,0.6850523380595499,22.0,222.0,0.0
Y,R,"[5, 8]",1.0,3.0,0.2838020324707031,1.90488600730896,0.6233550835423649,22.0,223.0,0.0
G,D,"[6, 8]",1.0,4.0,0.5349009037017822,2.253925085067749,0.7271959187493269,22.0,224.0,0.0
Y,R,"[6, 9]",1.0,5.0,0.2467789649963379,1.681823968887329,0.442633156653626,22.0,225.0,0.0
Y,R,"[6, 10]",1.0,6.0,0.4384129047393799,2.0749311447143555,0.6339702515192512,22.0,226.0,0.0
R,U,"[5, 10]",1.0,7.0,0.2940847873687744,1.6043829917907715,0.30533841128080214,22.0,227.0,0.0
R,U,"[4, 10]",1.0,8.0,0.4981040954589844,2.198507070541382,0.7034009397742299,22.0,228.0,0.0
B,L,"[4, 9]",1.0,9.0,0.2862238883972168,1.7236881256103516,0.4438877385173184,22.0,229.0,0.0
R,U,"[3, 9]",1.0,10.0,0.2594130039215088,1.762024164199829,0.5059300556049297,22.0,230.0,0.0
,,"(6, 6)",,,,,,,,
R,U,"[5, 6]",1.0,1.0,0.4176630973815918,2.1134769916534424,0.3527489182919893,23.0,231.0,0.0
Y,R,"[5, 7]",1.0,2.0,0.463029146194458,1.8857619762420654,0.4218339148026609,23.0,232.0,0.0
Y,R,"[5, 8]",1.0,3.0,0.27869391441345215,1.8043320178985596,0.5260368045369506,23.0,233.0,0.0
G,D,"[6, 8]",1.0,4.0,0.4207170009613037,2.106632947921753,0.6991428066923864,23.0,234.0,0.0
Y,R,"[6, 9]",1.0,5.0,0.18386602401733398,1.5300958156585693,0.3462111981106178,23.0,235.0,0.0
Y,R,"[6, 10]",1.0,6.0,0.29563307762145996,1.818324089050293,0.5146384838194267,23.0,236.0,0.0
R,U,"[5, 10]",1.0,7.0,0.2731308937072754,1.8175461292266846,0.5317456116420363,23.0,237.0,0.0
R,U,"[4, 10]",1.0,8.0,0.24739313125610352,1.8753039836883545,0.6236113928551988,23.0,238.0,0.0
B,L,"[4, 9]",1.0,9.0,0.34760117530822754,1.9665699005126953,0.6235845056980993,23.0,239.0,0.0
R,U,"[3, 9]",1.0,10.0,0.3600039482116699,1.82145094871521,0.46182627379208835,23.0,240.0,0.0
,,"(6, 6)",,,,,,,,
R,U,"[5, 6]",1.0,1.0,0.6457850933074951,2.7850570678710938,0.6467053502927522,24.0,241.0,0.0
Y,R,"[5, 7]",1.0,2.0,0.38926005363464355,1.9612529277801514,0.5579480275000264,24.0,242.0,0.0
Y,R,"[5, 8]",1.0,3.0,0.24919891357421875,1.7735378742218018,0.5313778328911122,24.0,243.0,0.0
G,D,"[6, 8]",1.0,4.0,0.42653703689575195,1.8648688793182373,0.4296774395026784,24.0,244.0,0.0
Y,R,"[6, 9]",1.0,5.0,0.3332490921020508,1.7128758430480957,0.3760175217863374,24.0,245.0,0.0
Y,R,"[6, 10]",1.0,6.0,0.41023683547973633,1.7816839218139648,0.37433307750913264,24.0,246.0,0.0
R,U,"[5, 10]",1.0,7.0,0.3278498649597168,1.8997809886932373,0.5738915565488452,24.0,247.0,0.0
R,U,"[4, 10]",1.0,8.0,0.19686198234558105,1.7467339038848877,0.5539365186766998,24.0,248.0,0.0
B,L,"[4, 9]",1.0,9.0,0.45378589630126953,2.042430877685547,0.5961819611832717,24.0,249.0,0.0
R,U,"[3, 9]",1.0,10.0,0.18378305435180664,1.7852449417114258,0.5981801685294583,24.0,250.0,0.0
,,"(6, 6)",,,,,,,,
R,U,"[5, 6]",1.0,1.0,0.4237041473388672,2.2228729724884033,0.40442558236575665,25.0,251.0,0.0
Y,R,"[5, 7]",1.0,2.0,0.6107537746429443,2.1600639820098877,0.5476700235583942,25.0,252.0,0.0
Y,R,"[5, 8]",1.0,3.0,0.33913111686706543,1.9613151550292969,0.6255711430183016,25.0,253.0,0.0
G,D,"[6, 8]",1.0,4.0,0.30529308319091797,1.8504669666290283,0.5427201718496175,25.0,254.0,0.0
Y,R,"[6, 9]",1.0,5.0,0.33716797828674316,2.0671849250793457,0.7430420322703396,25.0,255.0,0.0
Y,R,"[6, 10]",1.0,6.0,0.2343611717224121,1.6781589984893799,0.4548482209302231,25.0,256.0,0.0
R,U,"[5, 10]",1.0,7.0,0.47410106658935547,1.8493170738220215,0.37076885980932683,25.0,257.0,0.0
R,U,"[4, 10]",1.0,8.0,0.3651089668273926,1.952078104019165,0.5893443232452782,25.0,258.0,0.0
B,L,"[4, 9]",1.0,9.0,0.23501992225646973,1.674252986907959,0.4470104621520157,25.0,259.0,0.0
R,U,"[3, 9]",1.0,10.0,0.2870969772338867,1.9785749912261963,0.6920530304648578,25.0,260.0,0.0
,,"(6, 6)",,,,,,,,
R,U,"[5, 6]",1.0,1.0,0.5448811054229736,2.3633291721343994,0.32235775560263924,26.0,261.0,0.0
Y,R,"[5, 7]",1.0,2.0,0.4683201313018799,1.9130830764770508,0.4518841436658221,26.0,262.0,0.0
Y,R,"[5, 8]",1.0,3.0,0.2609539031982422,1.560230016708374,0.29561403114695073,26.0,263.0,0.0
G,D,"[6, 8]",1.0,4.0,0.43219590187072754,2.027100086212158,0.58906338346206,26.0,264.0,0.0
Y,R,"[6, 9]",1.0,5.0,0.24445009231567383,1.7909421920776367,0.5466957250587476,26.0,265.0,0.0
Y,R,"[6, 10]",1.0,6.0,0.2793269157409668,1.964643955230713,0.6778596809739912,26.0,266.0,0.0
R,U,"[5, 10]",1.0,7.0,0.2412889003753662,1.8417549133300781,0.6030903504404093,26.0,267.0,0.0
R,U,"[4, 10]",1.0,8.0,0.41826510429382324,1.7117080688476562,0.2982701648139344,26.0,268.0,0.0
B,L,"[4, 9]",1.0,9.0,0.4255688190460205,1.9796268939971924,0.5442388209190688,26.0,269.0,0.0
R,U,"[3, 9]",1.0,10.0,0.35302305221557617,1.9504718780517578,0.6113298807942682,26.0,270.0,0.0
,,"(6, 6)",,,,,,,,
R,U,"[5, 6]",1.0,1.0,0.4839339256286621,2.147331953048706,0.30882735523493493,27.0,271.0,0.0
Y,R,"[5, 7]",1.0,2.0,0.6530258655548096,1.9180982112884521,0.27707897476250176,27.0,272.0,0.0
Y,R,"[5, 8]",1.0,3.0,0.39424800872802734,2.0098459720611572,0.6197084005724527,27.0,273.0,0.0
G,D,"[6, 8]",1.0,4.0,0.2606239318847656,1.7197868824005127,0.4563374310192687,27.0,274.0,0.0
Y,R,"[6, 9]",1.0,5.0,0.2939271926879883,1.89426589012146,0.6005312368946012,27.0,275.0,0.0
Y,R,"[6, 10]",1.0,6.0,0.26186490058898926,1.6595449447631836,0.39357158268110365,27.0,276.0,0.0
R,U,"[5, 10]",1.0,7.0,0.3517739772796631,1.6349458694458008,0.29528546506704345,27.0,277.0,0.0
R,U,"[4, 10]",1.0,8.0,0.4102201461791992,1.6641919612884521,0.25940782742515106,27.0,278.0,0.0
B,L,"[4, 9]",1.0,9.0,0.4787890911102295,1.7776968479156494,0.303680731144229,27.0,279.0,0.0
R,U,"[3, 9]",1.0,10.0,0.29346489906311035,1.759903907775879,0.46334123589233656,27.0,280.0,0.0
,,"(6, 6)",,,,,,,,
R,U,"[5, 6]",1.0,1.0,0.44415903091430664,2.84139084815979,0.4047775192207786,28.0,281.0,0.0
Y,R,"[5, 7]",1.0,2.0,0.27842211723327637,1.6708390712738037,0.392383018243382,28.0,282.0,0.0
Y,R,"[5, 8]",1.0,3.0,0.42557191848754883,1.918731927871704,0.49428447945837345,28.0,283.0,0.0
G,D,"[6, 8]",1.0,4.0,0.4300661087036133,2.14408016204834,0.7214913277280803,28.0,284.0,0.0
Y,R,"[6, 9]",-1.0,4.0,0.07402396202087402,5.413830995559692,0.2689439219100555,28.0,285.0,0.0
Y,R,"[6, 10]",1.0,5.0,0.25348901748657227,1.6102099418640137,0.3623909961763643,28.0,286.0,0.0
R,U,"[5, 10]",1.0,6.0,0.44865894317626953,2.130919933319092,0.6762159125359899,28.0,287.0,0.0
R,U,"[4, 10]",1.0,7.0,0.1939699649810791,1.6866669654846191,0.49635730380019766,28.0,288.0,0.0
B,L,"[4, 9]",1.0,8.0,0.2219400405883789,1.7053170204162598,0.4684108452752507,28.0,289.0,0.0
R,U,"[3, 9]",1.0,9.0,0.35103702545166016,1.7976670265197754,0.44933374363454504,28.0,290.0,0.0
,,"(6, 6)",,,,,,,,
R,U,"[5, 6]",1.0,1.0,0.5015239715576172,2.404236078262329,0.5533885402832093,29.0,291.0,0.0
Y,R,"[5, 7]",1.0,2.0,0.276914119720459,1.7609930038452148,0.4811168540104273,29.0,292.0,0.0
Y,R,"[5, 8]",1.0,3.0,0.32129907608032227,1.78519606590271,0.4498023761120664,29.0,293.0,0.0
G,D,"[6, 8]",1.0,4.0,0.4012160301208496,1.6878788471221924,0.28780502821648885,29.0,294.0,0.0
Y,R,"[6, 9]",1.0,5.0,0.3947021961212158,1.9814510345458984,0.5855285423835546,29.0,295.0,0.0
Y,R,"[6, 10]",1.0,6.0,0.40422487258911133,2.0722429752349854,0.6742308903686836,29.0,296.0,0.0
R,U,"[5, 10]",1.0,7.0,0.24553918838500977,1.9566519260406494,0.7143571252700429,29.0,297.0,0.0
R,U,"[4, 10]",1.0,8.0,0.2358849048614502,1.850334882736206,0.6149867492326291,29.0,298.0,0.0
B,L,"[4, 9]",1.0,9.0,0.23381519317626953,1.7773098945617676,0.5418735681310982,29.0,299.0,0.0
R,U,"[3, 9]",1.0,10.0,0.30512499809265137,2.0369150638580322,0.7452417709584143,29.0,300.0,0.0
,,"(6, 6)",,,,,,,,
R,U,"[5, 6]",1.0,1.0,0.4446899890899658,2.5106940269470215,0.5561069845977961,30.0,301.0,0.0
Y,R,"[5, 7]",1.0,2.0,0.40816402435302734,1.7103710174560547,0.3001248342078125,30.0,302.0,0.0
Y,R,"[5, 8]",1.0,3.0,0.35048699378967285,1.7646729946136475,0.41460945171252356,30.0,303.0,0.0
G,D,"[6, 8]",1.0,4.0,0.31882691383361816,2.049143075942993,0.7301256412532424,30.0,304.0,0.0
Y,R,"[6, 9]",1.0,5.0,0.1678619384765625,1.68784499168396,0.518123345837732,30.0,305.0,0.0
Y,R,"[6, 10]",1.0,6.0,0.1883680820465088,1.9187119007110596,0.7365967946660967,30.0,306.0,0.0
R,U,"[5, 10]",1.0,7.0,0.45073986053466797,2.0875279903411865,0.6408491953013578,30.0,307.0,0.0
R,U,"[4, 10]",1.0,8.0,0.23954296112060547,1.7536990642547607,0.5113176842911833,30.0,308.0,0.0
B,L,"[4, 9]",1.0,9.0,0.3704259395599365,2.0689191818237305,0.7133291802473058,30.0,309.0,0.0
R,U,"[3, 9]",1.0,10.0,0.24805212020874023,1.8342010974884033,0.5810087694257164,30.0,310.0,0.0
,,"(6, 6)",,,,,,,,
R,U,"[5, 6]",1.0,1.0,0.3788948059082031,2.7067439556121826,0.5210741331495465,31.0,311.0,0.0
Y,R,"[5, 7]",1.0,2.0,0.47554802894592285,1.9578559398651123,0.4789704037590813,31.0,312.0,0.0
Y,R,"[5, 8]",1.0,3.0,0.45700693130493164,1.766442060470581,0.31216498598736125,31.0,313.0,0.0
G,D,"[6, 8]",1.0,4.0,0.4255340099334717,2.062965154647827,0.6414744597761575,31.0,314.0,0.0
Y,R,"[6, 9]",1.0,5.0,0.3023369312286377,1.7577860355377197,0.46604445223833324,31.0,315.0,0.0
Y,R,"[6, 10]",1.0,6.0,0.4356250762939453,2.1149048805236816,0.6806787657799751,31.0,316.0,0.0
R,U,"[5, 10]",1.0,7.0,0.22791695594787598,1.8997960090637207,0.6636964777407752,31.0,317.0,0.0
R,U,"[4, 10]",1.0,8.0,0.31895017623901367,1.965759038925171,0.6462302328178038,31.0,318.0,0.0
B,L,"[4, 9]",1.0,9.0,0.23928403854370117,1.583726167678833,0.3301951196672465,31.0,319.0,0.0
R,U,"[3, 9]",1.0,10.0,0.37195491790771484,1.661303997039795,0.2914586506297476,31.0,320.0,0.0
,,"(6, 6)",,,,,,,,
R,U,"[5, 6]",1.0,1.0,0.4199228286743164,2.412811040878296,0.5374218636459033,32.0,321.0,0.0
Y,R,"[5, 7]",1.0,2.0,0.3602571487426758,1.865173101425171,0.5025812965659118,32.0,322.0,0.0
Y,R,"[5, 8]",1.0,3.0,0.28958797454833984,1.5799651145935059,0.29935563451074054,32.0,323.0,0.0
G,D,"[6, 8]",1.0,4.0,0.4231729507446289,2.1207029819488525,0.6864586148895772,32.0,324.0,0.0
Y,R,"[6, 9]",1.0,5.0,0.2675309181213379,1.6130268573760986,0.3496477156348222,32.0,325.0,0.0
Y,R,"[6, 10]",1.0,6.0,0.40579795837402344,1.8221509456634521,0.4050792082941882,32.0,326.0,0.0
R,U,"[5, 10]",1.0,7.0,0.35817599296569824,2.045663833618164,0.6837855146806975,32.0,327.0,0.0
R,U,"[4, 10]",1.0,8.0,0.32639598846435547,1.8167340755462646,0.4838728627795202,32.0,328.0,0.0
B,L,"[4, 9]",1.0,9.0,0.25548505783081055,1.7712271213531494,0.5217614475431154,32.0,329.0,0.0
R,U,"[3, 9]",1.0,10.0,0.2677879333496094,1.7099239826202393,0.4484033648234335,32.0,330.0,0.0
,,"(6, 6)",,,,,,,,
R,U,"[5, 6]",1.0,1.0,0.3915889263153076,2.613370895385742,0.44508849681444085,33.0,331.0,0.0
Y,R,"[5, 7]",1.0,2.0,0.37209296226501465,1.7612180709838867,0.38961681229732625,33.0,332.0,0.0
Y,R,"[5, 8]",1.0,3.0,0.36341381072998047,2.0271639823913574,0.6666808423545582,33.0,333.0,0.0
G,D,"[6, 8]",1.0,4.0,0.2530050277709961,1.8753268718719482,0.6251384937146139,33.0,334.0,0.0
Y,R,"[6, 9]",1.0,5.0,0.23746299743652344,1.67775297164917,0.45309937525250177,33.0,335.0,0.0
Y,R,"[6, 10]",1.0,6.0,0.2860379219055176,1.9485678672790527,0.6680415379139416,33.0,336.0,0.0
R,U,"[5, 10]",1.0,7.0,0.28105998039245605,1.726651906967163,0.4449913220913216,33.0,337.0,0.0
R,U,"[4, 10]",1.0,8.0,0.3294041156768799,1.6208748817443848,0.2991786536452409,33.0,338.0,0.0
B,L,"[4, 9]",1.0,9.0,0.4060029983520508,1.8686161041259766,0.4510989573080619,33.0,339.0,0.0
R,U,"[3, 9]",1.0,10.0,0.3104560375213623,1.8764970302581787,0.5606342753385238,33.0,340.0,0.0
,,"(6, 6)",,,,,,,,
R,U,"[5, 6]",1.0,1.0,0.46713900566101074,2.4428648948669434,0.5036427015589813,34.0,341.0,0.0
Y,R,"[5, 7]",1.0,2.0,0.344653844833374,1.9480688571929932,0.6015226632848227,34.0,342.0,0.0
Y,R,"[5, 8]",1.0,3.0,0.2765929698944092,1.9302830696105957,0.648288566967691,34.0,343.0,0.0
G,D,"[6, 8]",1.0,4.0,0.19920802116394043,1.9176077842712402,0.7158207116987594,34.0,344.0,0.0
Y,R,"[6, 9]",1.0,5.0,0.16357183456420898,1.6280169486999512,0.460745748983817,34.0,345.0,0.0
Y,R,"[6, 10]",1.0,6.0,0.3069469928741455,1.7988088130950928,0.4929141444091502,34.0,346.0,0.0
R,U,"[5, 10]",1.0,7.0,0.2898850440979004,1.7554800510406494,0.46526546907472605,34.0,347.0,0.0
R,U,"[4, 10]",1.0,8.0,0.2591400146484375,1.5238120555877686,0.25564923575532017,34.0,348.0,0.0
B,L,"[4, 9]",1.0,9.0,0.34353184700012207,1.82228684425354,0.47774054108997677,34.0,349.0,0.0
R,U,"[3, 9]",1.0,10.0,0.2781209945678711,1.937788963317871,0.6653260389514225,34.0,350.0,0.0
,,"(6, 6)",,,,,,,,
R,U,"[5, 6]",1.0,1.0,0.31944990158081055,1.9494760036468506,0.31510138387722275,35.0,351.0,0.0
Y,R,"[5, 7]",1.0,2.0,0.34981298446655273,1.8509881496429443,0.4992598070050838,35.0,352.0,0.0
Y,R,"[5, 8]",1.0,3.0,0.28083109855651855,1.649245023727417,0.3653412829061515,35.0,353.0,0.0
G,D,"[6, 8]",1.0,4.0,0.36892104148864746,2.039604902267456,0.6711198490345289,35.0,354.0,0.0
Y,R,"[6, 9]",1.0,5.0,0.22619295120239258,1.8459680080413818,0.6171736635587252,35.0,355.0,0.0
Y,R,"[6, 10]",1.0,6.0,0.20342683792114258,1.923779010772705,0.7240245316674159,35.0,356.0,0.0
R,U,"[5, 10]",-1.0,6.0,0.06211113929748535,5.807180881500244,0.6812337435296227,35.0,357.0,0.0
R,U,"[4, 10]",1.0,7.0,0.283203125,1.5820059776306152,0.29703538970909416,35.0,358.0,0.0
B,L,"[4, 9]",1.0,8.0,0.40169215202331543,1.7965750694274902,0.3933467824782559,35.0,359.0,0.0
R,U,"[3, 9]",1.0,9.0,0.357410192489624,1.6407239437103271,0.28411334941800026,35.0,360.0,0.0
,,"(6, 6)",,,,,,,,
R,U,"[5, 6]",1.0,1.0,0.3406229019165039,2.238553047180176,0.3227855449963082,36.0,361.0,0.0
Y,R,"[5, 7]",1.0,2.0,0.505040168762207,2.018850088119507,0.5246298506780741,36.0,362.0,0.0
Y,R,"[5, 8]",1.0,3.0,0.31534409523010254,1.6947541236877441,0.3861073410196273,36.0,363.0,0.0
G,D,"[6, 8]",1.0,4.0,0.46277403831481934,1.820469856262207,0.35659231174513306,36.0,364.0,0.0
Y,R,"[6, 9]",1.0,5.0,0.32792091369628906,1.8465580940246582,0.5196827161747309,36.0,365.0,0.0
Y,R,"[6, 10]",1.0,6.0,0.2906501293182373,1.8418939113616943,0.5447561917852579,36.0,366.0,0.0
R,U,"[5, 10]",1.0,7.0,0.28031110763549805,1.9242091178894043,0.6522684041866633,36.0,367.0,0.0
R,U,"[4, 10]",1.0,8.0,0.252971887588501,1.9864280223846436,0.7384474079662822,36.0,368.0,0.0
B,L,"[4, 9]",1.0,9.0,0.17360711097717285,1.5949280261993408,0.4171436365275223,36.0,369.0,0.0
R,U,"[3, 9]",1.0,10.0,0.274594783782959,1.939913034439087,0.6569401008587938,36.0,370.0,0.0
,,"(6, 6)",,,,,,,,
R,U,"[5, 6]",1.0,1.0,0.35419487953186035,2.0319740772247314,0.272428516841912,37.0,371.0,0.0
R,U,"[4, 6]",0.0,1.0,0.33019113540649414,1.6851840019226074,0.3574084853806521,37.0,372.0,0.0
Y,R,"[4, 7]",0.0,1.0,0.41971397399902344,2.051114797592163,0.6416624555194768,37.0,373.0,0.0
Y,R,"[4, 8]",0.0,1.0,0.26759791374206543,1.5655930042266846,0.3075141375967118,37.0,374.0,0.0
R,U,"[3, 8]",0.0,1.0,0.5869059562683105,2.0797359943389893,0.5036372086682668,37.0,375.0,0.0
B,L,"[3, 7]",0.0,1.0,0.23349785804748535,1.8145420551300049,0.5847954345529527,37.0,376.0,0.0
B,L,"[3, 6]",0.0,1.0,0.22286391258239746,1.6978340148925781,0.4660104948863026,37.0,377.0,0.0
Y,R,"[3, 7]",0.0,1.0,0.27478718757629395,1.9928841590881348,0.708581762025499,37.0,378.0,0.0
Y,R,"[3, 8]",-1.0,1.0,0.026695966720581055,5.508835077285767,0.4177124881106815,37.0,379.0,0.0
R,U,"[2, 8]",0.0,1.0,0.3007950782775879,1.9767580032348633,0.6774497927111536,37.0,380.0,0.0
,,"(6, 6)",,,,,,,,
R,U,"[5, 6]",1.0,1.0,0.4483938217163086,3.3247671127319336,0.7021116657696782,38.0,381.0,0.0
Y,R,"[5, 7]",1.0,2.0,0.13282394409179688,1.835623025894165,0.7044269942290787,38.0,382.0,0.0
Y,R,"[5, 8]",1.0,3.0,0.2484288215637207,1.826568841934204,0.581065721758944,38.0,383.0,0.0
G,D,"[6, 8]",1.0,4.0,0.255079984664917,1.5896358489990234,0.32095976039146645,38.0,384.0,0.0
Y,R,"[6, 9]",1.0,5.0,0.3347630500793457,2.040273904800415,0.7108380830104897,38.0,385.0,0.0
Y,R,"[6, 10]",1.0,6.0,0.11148405075073242,1.8530490398406982,0.7470818450080414,38.0,386.0,0.0
R,U,"[5, 10]",1.0,7.0,0.22963905334472656,1.7307360172271729,0.4946765708890898,38.0,387.0,0.0
R,U,"[4, 10]",1.0,8.0,0.2639811038970947,1.8676629066467285,0.6122734681010221,38.0,388.0,0.0
B,L,"[4, 9]",1.0,9.0,0.2996678352355957,2.0174038410186768,0.7127906767094978,38.0,389.0,0.0
R,U,"[3, 9]",1.0,10.0,0.22397685050964355,1.6657018661499023,0.4287935266674797,38.0,390.0,0.0
,,"(6, 6)",,,,,,,,
G,D,"[7, 6]",0.0,0.0,0.42702698707580566,2.505242109298706,0.7003273776040042,39.0,391.0,0.0
R,U,"[6, 6]",0.0,0.0,0.6392788887023926,1.9197959899902344,0.287153478399143,39.0,392.0,0.0
B,L,"[6, 5]",0.0,0.0,0.15263915061950684,1.5936429500579834,0.44736930441698214,39.0,393.0,0.0
B,L,"[6, 4]",0.0,0.0,0.4250459671020508,1.7881669998168945,0.3689417077809328,39.0,394.0,0.0
Y,R,"[6, 5]",0.0,0.0,0.5432639122009277,1.999640941619873,0.4517026980412093,39.0,395.0,0.0
Y,R,"[6, 6]",0.0,0.0,0.3372678756713867,1.7509510517120361,0.41939949068211313,39.0,396.0,0.0
R,U,"[5, 6]",1.0,1.0,0.31953001022338867,1.6191380023956299,0.3053432098508023,39.0,397.0,0.0
R,U,"[4, 6]",0.0,1.0,0.38658809661865234,1.9105560779571533,0.5322858108683786,39.0,398.0,0.0
G,D,"[5, 6]",0.0,1.0,0.25582289695739746,1.830122947692871,0.5622767721676132,39.0,399.0,0.0
R,U,"[4, 6]",0.0,1.0,0.368541955947876,1.7496531009674072,0.37880401793913104,39.0,400.0,0.0
,,"(6, 6)",,,,,,,,
R,U,"[5, 6]",1.0,1.0,0.6468291282653809,5.424735069274902,0.5366272600077028,40.0,401.0,0.0
Y,R,"[5, 7]",1.0,2.0,0.40589404106140137,1.816573143005371,0.4033074673834369,40.0,402.0,0.0
Y,R,"[5, 8]",1.0,3.0,0.3352069854736328,1.8531720638275146,0.5229921280402723,40.0,403.0,0.0
G,D,"[6, 8]",1.0,4.0,0.2211461067199707,1.7402839660644531,0.52995825437951,40.0,404.0,0.0
Y,R,"[6, 9]",1.0,5.0,0.2511789798736572,1.768888235092163,0.5153918858218554,40.0,405.0,0.0
Y,R,"[6, 10]",1.0,6.0,0.5128600597381592,2.117406129837036,0.5994214623444988,40.0,406.0,0.0
R,U,"[5, 10]",1.0,7.0,0.19305992126464844,1.6287429332733154,0.42838029355520896,40.0,407.0,0.0
R,U,"[4, 10]",1.0,8.0,0.24798989295959473,1.953009843826294,0.7143430890363252,40.0,408.0,0.0
B,L,"[4, 9]",1.0,9.0,0.20668292045593262,1.5991120338439941,0.3803989579928449,40.0,409.0,0.0
R,U,"[3, 9]",1.0,10.0,0.40839600563049316,2.0658960342407227,0.6459092705414875,40.0,410.0,0.0
,,"(6, 6)",,,,,,,,
R,U,"[5, 6]",1.0,1.0,0.4356420040130615,2.5489470958709717,0.7115088596408286,41.0,411.0,0.0
Y,R,"[5, 7]",1.0,2.0,0.2664790153503418,1.9756810665130615,0.7205199634185817,41.0,412.0,0.0
Y,R,"[5, 8]",1.0,3.0,0.16814589500427246,1.6935148239135742,0.5308457559581382,41.0,413.0,0.0
G,D,"[6, 8]",1.0,4.0,0.3800230026245117,1.8432998657226562,0.4575659720422232,41.0,414.0,0.0
Y,R,"[6, 9]",1.0,5.0,0.2856760025024414,1.5405189990997314,0.26483395946788907,41.0,415.0,0.0
Y,R,"[6, 10]",1.0,6.0,0.3686208724975586,2.1032721996307373,0.7342404893283947,41.0,416.0,0.0
R,U,"[5, 10]",1.0,7.0,0.2958660125732422,1.7025079727172852,0.40364718540535477,41.0,417.0,0.0
R,U,"[4, 10]",1.0,8.0,0.2166271209716797,1.6094269752502441,0.39653330632825456,41.0,418.0,0.0
B,L,"[4, 9]",1.0,9.0,0.2899818420410156,1.7754778861999512,0.47187483310266615,41.0,419.0,0.0
R,U,"[3, 9]",1.0,10.0,0.2344059944152832,1.9333069324493408,0.7048313173064703,41.0,420.0,0.0
,,"(6, 6)",,,,,,,,
R,U,"[5, 6]",1.0,1.0,0.39408206939697266,2.107388973236084,0.27944401803696595,42.0,421.0,0.0
Y,R,"[5, 7]",1.0,2.0,0.4142038822174072,1.801800012588501,0.3810430035247175,42.0,422.0,0.0
Y,R,"[5, 8]",1.0,3.0,0.2522008419036865,1.934157133102417,0.6814484446701393,42.0,423.0,0.0
G,D,"[6, 8]",1.0,4.0,0.22227096557617188,1.8323240280151367,0.5972188155594409,42.0,424.0,0.0
Y,R,"[6, 9]",1.0,5.0,0.25649404525756836,1.9672539234161377,0.6975945127069472,42.0,425.0,0.0
Y,R,"[6, 10]",1.0,6.0,0.20091986656188965,1.6242949962615967,0.4224376453620243,42.0,426.0,0.0
R,U,"[5, 10]",1.0,7.0,0.5462992191314697,1.86873197555542,0.32441596051347654,42.0,427.0,0.0
R,U,"[4, 10]",1.0,8.0,0.3284580707550049,1.9799199104309082,0.6539281507756944,42.0,428.0,0.0
B,L,"[4, 9]",1.0,9.0,0.28022003173828125,1.7544128894805908,0.47539643912602625,42.0,429.0,0.0
R,U,"[3, 9]",1.0,10.0,0.2341170310974121,1.6785600185394287,0.45369012347705345,42.0,430.0,0.0
,,"(6, 6)",,,,,,,,
R,U,"[5, 6]",1.0,1.0,0.40056610107421875,2.473459005355835,0.6935579465768908,43.0,431.0,0.0
Y,R,"[5, 7]",1.0,2.0,0.2841501235961914,1.7041940689086914,0.431344275476237,43.0,432.0,0.0
Y,R,"[5, 8]",1.0,3.0,0.3214249610900879,1.8679590225219727,0.5491409169612361,43.0,433.0,0.0
G,D,"[6, 8]",1.0,4.0,0.4537320137023926,2.0998361110687256,0.6488388405981487,43.0,434.0,0.0
Y,R,"[6, 9]",1.0,5.0,0.24296808242797852,1.5620019435882568,0.31104177389429566,43.0,435.0,0.0
R,U,"[5, 9]",0.0,5.0,0.5007162094116211,2.0028421878814697,0.513710222317513,43.0,436.0,0.0
R,U,"[4, 9]",1.0,6.0,0.29009294509887695,1.5532870292663574,0.2504628150005342,43.0,437.0,0.0
R,U,"[3, 9]",1.0,7.0,0.7100470066070557,2.2223939895629883,0.5060293329030705,43.0,438.0,0.0
B,L,"[3, 8]",0.0,7.0,0.28541994094848633,2.0255520343780518,0.7480124393788095,43.0,439.0,0.0
R,U,"[2, 8]",0.0,7.0,0.3590109348297119,1.642266035079956,0.2739750630375041,43.0,440.0,0.0
,,"(6, 6)",,,,,,,,
R,U,"[5, 6]",1.0,1.0,0.39740800857543945,2.38424015045166,0.3081741936558215,44.0,441.0,0.0
Y,R,"[5, 7]",1.0,2.0,0.42035889625549316,1.8883090019226074,0.4797631071708283,44.0,442.0,0.0
Y,R,"[5, 8]",1.0,3.0,0.7019011974334717,2.20225191116333,0.4984825980255426,44.0,443.0,0.0
G,D,"[6, 8]",1.0,4.0,0.7265381813049316,2.090986967086792,0.35625000828408365,44.0,444.0,0.0
Y,R,"[6, 9]",1.0,5.0,0.3549528121948242,1.847076177597046,0.48652929328284517,44.0,445.0,0.0
Y,R,"[6, 10]",1.0,6.0,0.28302597999572754,1.863111972808838,0.5828600091748515,44.0,446.0,0.0
R,U,"[5, 10]",1.0,7.0,0.2612340450286865,1.9897170066833496,0.7223078973654533,44.0,447.0,0.0
R,U,"[4, 10]",1.0,8.0,0.10689806938171387,1.85477614402771,0.7437248941119221,44.0,448.0,0.0
B,L,"[4, 9]",1.0,9.0,0.24688386917114258,1.859670877456665,0.620214898246229,44.0,449.0,0.0
R,U,"[3, 9]",1.0,10.0,0.35358214378356934,1.7050058841705322,0.35874908522876114,44.0,450.0,0.0
,,"(6, 6)",,,,,,,,
R,U,"[5, 6]",1.0,1.0,0.36153697967529297,2.5687708854675293,0.5771838513305003,45.0,451.0,0.0
Y,R,"[5, 7]",1.0,2.0,0.43653392791748047,2.001412868499756,0.5785233447997626,45.0,452.0,0.0
Y,R,"[5, 8]",1.0,3.0,0.22182583808898926,1.653980016708374,0.41610234812417274,45.0,453.0,0.0
G,D,"[6, 8]",1.0,4.0,0.3818519115447998,1.7750811576843262,0.39114177979326425,45.0,454.0,0.0
Y,R,"[6, 9]",1.0,5.0,0.32515811920166016,1.7190771102905273,0.3935482210038138,45.0,455.0,0.0
Y,R,"[6, 10]",1.0,6.0,0.3196568489074707,1.9327220916748047,0.6260048103848312,45.0,456.0,0.0
R,U,"[5, 10]",1.0,7.0,0.35512399673461914,1.6481709480285645,0.29108755603787456,45.0,457.0,0.0
R,U,"[4, 10]",1.0,8.0,0.2730748653411865,1.7344310283660889,0.45875375029372023,45.0,458.0,0.0
Y,R,"[4, 11]",0.0,8.0,0.47221994400024414,2.1146750450134277,0.6398685651471634,45.0,459.0,0.0
R,U,"[3, 11]",0.0,8.0,0.36615490913391113,1.9419360160827637,0.5818315696224498,45.0,460.0,0.0
,,"(6, 6)",,,,,,,,
R,U,"[5, 6]",1.0,1.0,0.39431095123291016,2.636554002761841,0.6348315442335021,46.0,461.0,0.0
Y,R,"[5, 7]",1.0,2.0,0.369887113571167,2.0373902320861816,0.6722568042606274,46.0,462.0,0.0
Y,R,"[5, 8]",1.0,3.0,0.31086182594299316,1.918126106262207,0.6072092805693614,46.0,463.0,0.0
G,D,"[6, 8]",1.0,4.0,0.36165285110473633,1.74222993850708,0.3828260984798709,46.0,464.0,0.0
Y,R,"[6, 9]",1.0,5.0,0.3686511516571045,1.6529290676116943,0.2858166628346431,46.0,465.0,0.0
Y,R,"[6, 10]",1.0,6.0,0.39265012741088867,1.9138000011444092,0.5159306901255273,46.0,466.0,0.0
R,U,"[5, 10]",1.0,7.0,0.27298808097839355,1.8812689781188965,0.6138391196276697,46.0,467.0,0.0
R,U,"[4, 10]",1.0,8.0,0.2336571216583252,1.6902658939361572,0.45424532495205217,46.0,468.0,0.0
B,L,"[4, 9]",1.0,9.0,0.3462190628051758,1.7334599494934082,0.3877067518519596,46.0,469.0,0.0
R,U,"[3, 9]",1.0,10.0,0.3058478832244873,1.706160068511963,0.3938464293570396,46.0,470.0,0.0
,,"(6, 6)",,,,,,,,
R,U,"[5, 6]",1.0,1.0,0.37789392471313477,2.436851978302002,0.4139695715587694,47.0,471.0,0.0
Y,R,"[5, 7]",1.0,2.0,0.45995116233825684,1.7550148963928223,0.28567011644178114,47.0,472.0,0.0
Y,R,"[5, 8]",1.0,3.0,0.4039499759674072,2.1334190368652344,0.7354125589770463,47.0,473.0,0.0
G,D,"[6, 8]",1.0,4.0,0.2226848602294922,1.5419809818267822,0.31106838970168177,47.0,474.0,0.0
Y,R,"[6, 9]",1.0,5.0,0.43420886993408203,2.0286171436309814,0.6059622445150424,47.0,475.0,0.0
Y,R,"[6, 10]",1.0,6.0,0.2858459949493408,1.5325021743774414,0.2554655430642938,47.0,476.0,0.0
R,U,"[5, 10]",1.0,7.0,0.4545559883117676,1.8555150032043457,0.4108800549386217,47.0,477.0,0.0
R,U,"[4, 10]",1.0,8.0,0.27157092094421387,1.8073430061340332,0.5513706740280484,47.0,478.0,0.0
B,L,"[4, 9]",1.0,9.0,0.2609710693359375,1.8732421398162842,0.6078837463782991,47.0,479.0,0.0
R,U,"[3, 9]",1.0,10.0,0.21790099143981934,1.4984970092773438,0.28987437404528027,47.0,480.0,0.0
,,"(6, 6)",,,,,,,,
R,U,"[5, 6]",1.0,1.0,0.3338799476623535,2.559595823287964,0.6991650469764517,48.0,481.0,0.0
Y,R,"[5, 7]",1.0,2.0,0.2246859073638916,1.5942060947418213,0.36029076555544565,48.0,482.0,0.0
Y,R,"[5, 8]",1.0,3.0,0.33512401580810547,1.6250770092010498,0.3019629212947469,48.0,483.0,0.0
G,D,"[6, 8]",1.0,4.0,0.4787940979003906,2.2126009464263916,0.7308753131705532,48.0,484.0,0.0
Y,R,"[6, 9]",1.0,5.0,0.2322840690612793,1.789870023727417,0.554280008505025,48.0,485.0,0.0
Y,R,"[6, 10]",1.0,6.0,0.2737278938293457,1.8722789287567139,0.5931490831854784,48.0,486.0,0.0
R,U,"[5, 10]",1.0,7.0,0.29111790657043457,1.5880670547485352,0.29816552521324896,48.0,487.0,0.0
R,U,"[4, 10]",1.0,8.0,0.2901480197906494,1.6057450771331787,0.30384154643008365,48.0,488.0,0.0
B,L,"[4, 9]",1.0,9.0,0.46225690841674805,2.0575599670410156,0.594322600932695,48.0,489.0,0.0
R,U,"[3, 9]",1.0,10.0,0.31108903884887695,1.5703251361846924,0.2649542202739255,48.0,490.0,0.0
,,"(6, 6)",,,,,,,,
R,U,"[5, 6]",1.0,1.0,0.3215479850769043,2.507728099822998,0.505758081686686,49.0,491.0,0.0
Y,R,"[5, 7]",1.0,2.0,0.24373197555541992,1.8402488231658936,0.5958439178650887,49.0,492.0,0.0
Y,R,"[5, 8]",1.0,3.0,0.2857170104980469,1.7572369575500488,0.46992380119719646,49.0,493.0,0.0
G,D,"[6, 8]",1.0,4.0,0.2906479835510254,1.8422698974609375,0.5454253167183397,49.0,494.0,0.0
Y,R,"[6, 9]",1.0,5.0,0.2696080207824707,1.8058228492736816,0.5345777420109433,49.0,495.0,0.0
Y,R,"[6, 10]",1.0,6.0,0.2896749973297119,1.7481310367584229,0.4493025503006451,49.0,496.0,0.0
R,U,"[5, 10]",1.0,7.0,0.3558769226074219,1.8970410823822021,0.5296699604400193,49.0,497.0,0.0
R,U,"[4, 10]",1.0,8.0,0.24364304542541504,1.8050239086151123,0.5513542292716558,49.0,498.0,0.0
B,L,"[4, 9]",1.0,9.0,0.29593396186828613,1.7625648975372314,0.46395851806234634,49.0,499.0,0.0
R,U,"[3, 9]",1.0,10.0,0.4439539909362793,2.1489808559417725,0.695953190145087,49.0,500.0,0.0
,,"(6, 6)",,,,,,,,
R,U,"[5, 6]",1.0,1.0,0.35339808464050293,2.682410955429077,0.6117652088291231,50.0,501.0,0.0
Y,R,"[5, 7]",1.0,2.0,0.37380003929138184,1.63059401512146,0.2593651758622385,50.0,502.0,0.0
Y,R,"[5, 8]",1.0,3.0,0.4658529758453369,1.7095601558685303,0.2521041414596459,50.0,503.0,0.0
G,D,"[6, 8]",1.0,4.0,0.6992361545562744,2.0750820636749268,0.37706406187260416,50.0,504.0,0.0
Y,R,"[6, 9]",1.0,5.0,0.2504899501800537,1.6335339546203613,0.39404626845928564,50.0,505.0,0.0
Y,R,"[6, 10]",1.0,6.0,0.27722597122192383,1.7399888038635254,0.4672297371575807,50.0,506.0,0.0
R,U,"[5, 10]",1.0,7.0,0.4241609573364258,2.090502977371216,0.6574318507034858,50.0,507.0,0.0
R,U,"[4, 10]",1.0,8.0,0.3218259811401367,1.6671409606933594,0.3582441333047265,50.0,508.0,0.0
B,L,"[4, 9]",1.0,9.0,0.33052611351013184,1.9164221286773682,0.5910693588742819,50.0,509.0,0.0
R,U,"[3, 9]",1.0,10.0,0.24063897132873535,1.6482441425323486,0.4061361305625666,50.0,510.0,0.0
,,"(6, 6)",,,,,,,,
R,U,"[5, 6]",1.0,1.0,0.31897687911987305,2.305251121520996,0.4279846300323777,51.0,511.0,0.0
Y,R,"[5, 7]",1.0,2.0,0.2696249485015869,1.7421138286590576,0.486649543571601,51.0,512.0,0.0
Y,R,"[5, 8]",1.0,3.0,0.30643296241760254,1.6083428859710693,0.2952019745949812,51.0,513.0,0.0
G,D,"[6, 8]",1.0,4.0,0.3602118492126465,2.0279788970947266,0.6727600908190076,51.0,514.0,0.0
Y,R,"[6, 9]",1.0,5.0,0.3280770778656006,1.7847568988800049,0.4577443892611272,51.0,515.0,0.0
Y,R,"[6, 10]",1.0,6.0,0.2978501319885254,1.6110351085662842,0.3187531912550902,51.0,516.0,0.0
R,U,"[5, 10]",1.0,7.0,0.6150901317596436,1.890821933746338,0.27638106868752643,51.0,517.0,0.0
R,U,"[4, 10]",1.0,8.0,0.3407149314880371,1.9687449932098389,0.6279687131938152,51.0,518.0,0.0
B,L,"[4, 9]",1.0,9.0,0.2130889892578125,1.7460260391235352,0.5408168720123783,51.0,519.0,0.0
R,U,"[3, 9]",1.0,10.0,0.25106310844421387,1.8404879570007324,0.5979348137367242,51.0,520.0,0.0
,,"(6, 6)",,,,,,,,
R,U,"[5, 6]",1.0,1.0,0.3175790309906006,2.351719856262207,0.6662238232882585,52.0,521.0,0.0
Y,R,"[5, 7]",1.0,2.0,0.20758390426635742,1.6907038688659668,0.473578592080944,52.0,522.0,0.0
Y,R,"[5, 8]",1.0,3.0,0.21061277389526367,1.8765599727630615,0.6666346299039916,52.0,523.0,0.0
G,D,"[6, 8]",1.0,4.0,0.2453460693359375,1.7597010135650635,0.5098327440302841,52.0,524.0,0.0
Y,R,"[6, 9]",1.0,5.0,0.35427093505859375,1.6463100910186768,0.3062304578347109,52.0,525.0,0.0
Y,R,"[6, 10]",1.0,6.0,0.35126686096191406,1.9888911247253418,0.6448078308054935,52.0,526.0,0.0
R,U,"[5, 10]",1.0,7.0,0.3204841613769531,1.8597700595855713,0.5545757705325676,52.0,527.0,0.0
R,U,"[4, 10]",1.0,8.0,0.22794580459594727,1.486572027206421,0.2582039717001277,52.0,528.0,0.0
B,L,"[4, 9]",1.0,9.0,0.3922908306121826,1.6888439655303955,0.2969397060826588,52.0,529.0,0.0
R,U,"[3, 9]",1.0,10.0,0.3448622226715088,1.9997270107269287,0.6463177169079488,52.0,530.0,0.0
,,"(6, 6)",,,,,,,,
R,U,"[5, 6]",1.0,1.0,0.3343479633331299,2.3945658206939697,0.6908371316541744,53.0,531.0,0.0
Y,R,"[5, 7]",1.0,2.0,0.22462010383605957,1.6103689670562744,0.38471868161877576,53.0,532.0,0.0
Y,R,"[5, 8]",1.0,3.0,0.4228329658508301,1.8498508930206299,0.4179061792956834,53.0,533.0,0.0
G,D,"[6, 8]",1.0,4.0,0.7169680595397949,2.1693480014801025,0.45382555482146253,53.0,534.0,0.0
Y,R,"[6, 9]",1.0,5.0,0.31113195419311523,1.9446070194244385,0.631453460107876,53.0,535.0,0.0
Y,R,"[6, 10]",1.0,6.0,0.3651609420776367,2.003704786300659,0.6351599922780174,53.0,536.0,0.0
R,U,"[5, 10]",1.0,7.0,0.45619797706604004,1.9680209159851074,0.503338811982034,53.0,537.0,0.0
R,U,"[4, 10]",1.0,8.0,0.28438496589660645,1.9278349876403809,0.647572246619227,53.0,538.0,0.0
B,L,"[4, 9]",1.0,9.0,0.6002190113067627,2.2335269451141357,0.6311936562649496,53.0,539.0,0.0
R,U,"[3, 9]",1.0,10.0,0.3119020462036133,1.6918611526489258,0.3732905216769841,53.0,540.0,0.0
,,"(6, 6)",,,,,,,,
R,U,"[5, 6]",1.0,1.0,0.5086281299591064,2.898695945739746,0.6550040608974944,54.0,541.0,0.0
Y,R,"[5, 7]",1.0,2.0,0.29736995697021484,1.8038809299468994,0.5089354021508317,54.0,542.0,0.0
Y,R,"[5, 8]",1.0,3.0,0.4793710708618164,1.7365679740905762,0.2624058135843198,54.0,543.0,0.0
G,D,"[6, 8]",1.0,4.0,0.7213330268859863,2.1487720012664795,0.427567358514593,54.0,544.0,0.0
Y,R,"[6, 9]",1.0,5.0,0.3539888858795166,1.9433619976043701,0.6041392195417197,54.0,545.0,0.0
Y,R,"[6, 10]",1.0,6.0,0.37302708625793457,1.9751842021942139,0.6125371637527667,54.0,546.0,0.0
R,U,"[5, 10]",1.0,7.0,0.2780590057373047,1.946047067642212,0.6585794683396489,54.0,547.0,0.0
R,U,"[4, 10]",1.0,8.0,0.10448980331420898,1.432997226715088,0.3417806572817378,54.0,548.0,0.0
B,L,"[4, 9]",-2.0,8.0,1.045989990234375,2.7052600383758545,0.6966326642086942,54.0,549.0,0.0
B,L,"[4, 8]",0.0,8.0,0.46132707595825195,1.9341809749603271,0.46444463974048245,54.0,550.0,0.0
,,"(6, 6)",,,,,,,,
R,U,"[5, 6]",1.0,1.0,0.28827810287475586,2.3581321239471436,0.48911344603242923,55.0,551.0,0.0
Y,R,"[5, 7]",1.0,2.0,0.32591891288757324,1.7587101459503174,0.4311776683791905,55.0,552.0,0.0
Y,R,"[5, 8]",1.0,3.0,0.4692718982696533,2.075978994369507,0.607057515234555,55.0,553.0,0.0
G,D,"[6, 8]",1.0,4.0,0.20659804344177246,1.6892499923706055,0.4963175305302378,55.0,554.0,0.0
Y,R,"[6, 9]",1.0,5.0,0.14957213401794434,1.6382560729980469,0.4846143204464828,55.0,555.0,0.0
Y,R,"[6, 10]",1.0,6.0,0.25960302352905273,1.9567999839782715,0.6911471281708668,55.0,556.0,0.0
R,U,"[5, 10]",1.0,7.0,0.2901759147644043,1.8836779594421387,0.5917528432514664,55.0,557.0,0.0
R,U,"[4, 10]",1.0,8.0,0.23891711235046387,1.7140109539031982,0.4722533636547214,55.0,558.0,0.0
Y,R,"[4, 11]",0.0,8.0,0.39017295837402344,2.1140739917755127,0.7194471198038667,55.0,559.0,0.0
R,U,"[3, 11]",0.0,8.0,0.33556509017944336,1.6750679016113281,0.3449437036495352,55.0,560.0,0.0
,,"(6, 6)",,,,,,,,
R,U,"[5, 6]",1.0,1.0,0.39066600799560547,2.442748785018921,0.32092484963633383,56.0,561.0,0.0
Y,R,"[5, 7]",1.0,2.0,0.3271908760070801,1.5928359031677246,0.2638659397182565,56.0,562.0,0.0
Y,R,"[5, 8]",1.0,3.0,0.3387899398803711,1.9241440296173096,0.5709395175745725,56.0,563.0,0.0
G,D,"[6, 8]",1.0,4.0,0.31734299659729004,1.7082600593566895,0.39603068766610433,56.0,564.0,0.0
Y,R,"[6, 9]",1.0,5.0,0.3344728946685791,2.0722849369049072,0.7346078610283185,56.0,565.0,0.0
Y,R,"[6, 10]",-1.0,5.0,0.09734702110290527,5.522911071777344,0.3576851441282273,56.0,566.0,0.0
R,U,"[5, 10]",1.0,6.0,0.2880120277404785,1.9136128425598145,0.6379605632056351,56.0,567.0,0.0
R,U,"[4, 10]",1.0,7.0,0.33413100242614746,2.074341058731079,0.7452412582291486,56.0,568.0,0.0
B,L,"[4, 9]",1.0,8.0,0.5240199565887451,2.058012008666992,0.5203806405404157,56.0,569.0,0.0
R,U,"[3, 9]",1.0,9.0,0.39399099349975586,1.886582851409912,0.4900151792181907,56.0,570.0,0.0
,,"(6, 6)",,,,,,,,
R,U,"[5, 6]",1.0,1.0,0.733518123626709,3.2773470878601074,0.5841383973437199,57.0,571.0,0.0
Y,R,"[5, 7]",1.0,2.0,0.4804818630218506,1.8666210174560547,0.38408876647822526,57.0,572.0,0.0
Y,R,"[5, 8]",1.0,3.0,0.41164398193359375,1.9395389556884766,0.5234480700565636,57.0,573.0,0.0
G,D,"[6, 8]",1.0,4.0,0.7163500785827637,2.140900135040283,0.43103198540918236,57.0,574.0,0.0
Y,R,"[6, 9]",1.0,5.0,0.3816068172454834,1.8792290687561035,0.493587042092889,57.0,575.0,0.0
Y,R,"[6, 10]",1.0,6.0,0.3895719051361084,2.051647901535034,0.6615689948103005,57.0,576.0,0.0
R,U,"[5, 10]",1.0,7.0,0.33145880699157715,1.6248838901519775,0.3035129446586728,57.0,577.0,0.0
R,U,"[4, 10]",1.0,8.0,0.44824695587158203,2.1265039443969727,0.6796886981306995,57.0,578.0,0.0
B,L,"[4, 9]",1.0,9.0,0.29692721366882324,1.5568859577178955,0.25361291937201735,57.0,579.0,0.0
R,U,"[3, 9]",1.0,10.0,0.5349030494689941,1.936716079711914,0.40681506779756943,57.0,580.0,0.0
,,"(6, 6)",,,,,,,,
R,U,"[5, 6]",1.0,1.0,0.300278902053833,2.9749138355255127,0.4482858706715675,58.0,581.0,0.0
Y,R,"[5, 7]",1.0,2.0,0.251209020614624,1.67535400390625,0.42360379381850244,58.0,582.0,0.0
Y,R,"[5, 8]",1.0,3.0,0.3145179748535156,1.6506590843200684,0.3410292922955998,58.0,583.0,0.0
G,D,"[6, 8]",1.0,4.0,0.44044017791748047,2.1623611450195312,0.7199714287539782,58.0,584.0,0.0
Y,R,"[6, 9]",1.0,5.0,0.270784854888916,1.6662251949310303,0.4027851195725353,58.0,585.0,0.0
Y,R,"[6, 10]",1.0,6.0,0.3821580410003662,1.9060959815979004,0.5252614082167216,58.0,586.0,0.0
R,U,"[5, 10]",1.0,7.0,0.4971351623535156,1.955312967300415,0.4639852926031048,58.0,587.0,0.0
R,U,"[4, 10]",1.0,8.0,0.2594430446624756,1.595167875289917,0.325904378529673,58.0,588.0,0.0
B,L,"[4, 9]",1.0,9.0,0.4470820426940918,2.0342509746551514,0.5933257247801674,58.0,589.0,0.0
R,U,"[3, 9]",1.0,10.0,0.3067491054534912,1.853748083114624,0.5469716753943179,58.0,590.0,0.0
,,"(6, 6)",,,,,,,,
R,U,"[5, 6]",1.0,1.0,0.5056650638580322,3.027768850326538,0.6412864551345523,59.0,591.0,0.0
Y,R,"[5, 7]",1.0,2.0,0.339385986328125,1.6041288375854492,0.2791554630572318,59.0,592.0,0.0
Y,R,"[5, 8]",1.0,3.0,0.4397430419921875,2.033618927001953,0.5790171486084501,59.0,593.0,0.0
G,D,"[6, 8]",1.0,4.0,0.2533528804779053,1.651158094406128,0.3970127495982171,59.0,594.0,0.0
Y,R,"[6, 9]",1.0,5.0,0.3503890037536621,1.7125930786132812,0.3596813416106635,59.0,595.0,0.0
Y,R,"[6, 10]",1.0,6.0,0.5733640193939209,2.2704060077667236,0.6962878676553952,59.0,596.0,0.0
R,U,"[5, 10]",1.0,7.0,0.35599398612976074,1.6235949993133545,0.25375611730834663,59.0,597.0,0.0
R,U,"[4, 10]",1.0,8.0,0.4303879737854004,1.7169759273529053,0.2872753258051873,59.0,598.0,0.0
B,L,"[4, 9]",1.0,9.0,0.43862199783325195,1.954930067062378,0.508646185672515,59.0,599.0,0.0
R,U,"[3, 9]",1.0,10.0,0.46863293647766113,1.9237639904022217,0.46578338185276397,59.0,600.0,0.0
,,"(6, 6)",,,,,,,,
R,U,"[5, 6]",1.0,1.0,0.3519129753112793,2.668765068054199,0.6843285897194269,60.0,601.0,0.0
Y,R,"[5, 7]",1.0,2.0,0.44162702560424805,2.152559995651245,0.7034560014749418,60.0,602.0,0.0
Y,R,"[5, 8]",1.0,3.0,0.36966800689697266,1.8022871017456055,0.4392968206845383,60.0,603.0,0.0
G,D,"[6, 8]",1.0,4.0,0.4536139965057373,2.149610996246338,0.7052410530696235,60.0,604.0,0.0
Y,R,"[6, 9]",1.0,5.0,0.324552059173584,1.6353180408477783,0.3075421601801135,60.0,605.0,0.0
Y,R,"[6, 10]",1.0,6.0,0.45121312141418457,2.096013069152832,0.6532775082149844,60.0,606.0,0.0
R,U,"[5, 10]",1.0,7.0,0.3161630630493164,1.5942950248718262,0.28124828445433725,60.0,607.0,0.0
R,U,"[4, 10]",1.0,8.0,0.5144238471984863,2.1927649974823,0.6735618304037929,60.0,608.0,0.0
B,L,"[4, 9]",1.0,9.0,0.3848838806152344,1.9317150115966797,0.5552545956116699,60.0,609.0,0.0
R,U,"[3, 9]",1.0,10.0,0.41953110694885254,1.903672218322754,0.4924580597092925,60.0,610.0,0.0
,,"(6, 6)",,,,,,,,
R,U,"[5, 6]",1.0,1.0,0.36103296279907227,11.205754041671753,0.6977464579981497,61.0,611.0,0.0
Y,R,"[5, 7]",1.0,2.0,0.2140519618988037,1.5872771739959717,0.3686449870605082,61.0,612.0,0.0
Y,R,"[5, 8]",1.0,3.0,0.3614809513092041,1.9227230548858643,0.5578677112788555,61.0,613.0,0.0
G,D,"[6, 8]",1.0,4.0,0.2916989326477051,1.7523548603057861,0.46028704764171635,61.0,614.0,0.0
Y,R,"[6, 9]",1.0,5.0,0.3307359218597412,2.060137987136841,0.7367630253707003,61.0,615.0,0.0
Y,R,"[6, 10]",1.0,6.0,0.29712891578674316,1.88838791847229,0.5922277369768123,61.0,616.0,0.0
R,U,"[5, 10]",1.0,7.0,0.40470194816589355,2.0878119468688965,0.679652831750295,61.0,617.0,0.0
R,U,"[4, 10]",1.0,8.0,0.22780585289001465,1.8435320854187012,0.6064522458872739,61.0,618.0,0.0
B,L,"[4, 9]",1.0,9.0,0.2973339557647705,1.580570936203003,0.28733172010193614,61.0,619.0,0.0
R,U,"[3, 9]",1.0,10.0,0.5460400581359863,2.2360329627990723,0.6897029884180184,61.0,620.0,0.0
,,"(6, 6)",,,,,,,,
R,U,"[5, 6]",1.0,1.0,0.3909909725189209,4.099740982055664,0.43952580467103025,62.0,621.0,0.0
Y,R,"[5, 7]",1.0,2.0,0.3057980537414551,1.925398826599121,0.6146771218885394,62.0,622.0,0.0
Y,R,"[5, 8]",1.0,3.0,0.2602818012237549,1.9973909854888916,0.7286142385440907,62.0,623.0,0.0
G,D,"[6, 8]",1.0,4.0,0.34530091285705566,2.070333957672119,0.7160427909303335,62.0,624.0,0.0
Y,R,"[6, 9]",1.0,5.0,0.20064592361450195,1.4687740802764893,0.2680851669626393,62.0,625.0,0.0
Y,R,"[6, 10]",1.0,6.0,0.4808969497680664,1.7512102127075195,0.26927165812852705,62.0,626.0,0.0
R,U,"[5, 10]",1.0,7.0,0.4708559513092041,2.054866075515747,0.5739297147137445,62.0,627.0,0.0
R,U,"[4, 10]",1.0,8.0,0.34488797187805176,2.079029083251953,0.735984381415638,62.0,628.0,0.0
B,L,"[4, 9]",1.0,9.0,0.23845219612121582,1.6668369770050049,0.4363895112625221,62.0,629.0,0.0
R,U,"[3, 9]",1.0,10.0,0.33387207984924316,1.8559379577636719,0.5256321419531766,62.0,630.0,0.0
,,"(6, 6)",,,,,,,,
R,U,"[5, 6]",1.0,1.0,0.3359670639038086,2.749315023422241,0.5414710623563254,63.0,631.0,0.0
Y,R,"[5, 7]",1.0,2.0,0.34782910346984863,1.6822869777679443,0.34074860057994466,63.0,632.0,0.0
Y,R,"[5, 8]",1.0,3.0,0.28845882415771484,1.7645208835601807,0.47174649704726224,63.0,633.0,0.0
G,D,"[6, 8]",1.0,4.0,0.4387989044189453,2.0023279190063477,0.5576117831210958,63.0,634.0,0.0
Y,R,"[6, 9]",1.0,5.0,0.38947010040283203,1.817445993423462,0.441476421026114,63.0,635.0,0.0
Y,R,"[6, 10]",1.0,6.0,0.26523804664611816,1.674375057220459,0.4158066263429224,63.0,636.0,0.0
R,U,"[5, 10]",1.0,7.0,0.4187338352203369,1.8685898780822754,0.45109300542559677,63.0,637.0,0.0
R,U,"[4, 10]",1.0,8.0,0.3590538501739502,1.6595580577850342,0.2942045566416526,63.0,638.0,0.0
B,L,"[4, 9]",1.0,9.0,0.41112422943115234,1.992929220199585,0.5866064302909788,63.0,639.0,0.0
R,U,"[3, 9]",1.0,10.0,0.27817296981811523,1.59586501121521,0.316045939086781,63.0,640.0,0.0
,,"(6, 6)",,,,,,,,
R,U,"[5, 6]",1.0,1.0,0.3826160430908203,2.5123720169067383,0.5779961521202764,64.0,641.0,0.0
Y,R,"[5, 7]",1.0,2.0,0.2709949016571045,1.5935790538787842,0.338464406865888,64.0,642.0,0.0
Y,R,"[5, 8]",1.0,3.0,0.5170328617095947,2.1694350242614746,0.6575553397182352,64.0,643.0,0.0
R,U,"[4, 8]",0.0,3.0,0.5203700065612793,2.249967098236084,0.740557986604724,64.0,644.0,0.0
R,U,"[3, 8]",0.0,3.0,0.8023190498352051,2.088550090789795,0.29623351800537484,64.0,645.0,0.0
Y,R,"[3, 9]",1.0,4.0,0.34629297256469727,2.000464916229248,0.6463105725133439,64.0,646.0,0.0
R,U,"[2, 9]",0.0,4.0,0.30973196029663086,1.589143991470337,0.28571856600335044,64.0,647.0,0.0
Y,R,"[2, 10]",0.0,4.0,0.279055118560791,1.9936540126800537,0.7121553084943757,64.0,648.0,0.0
Y,R,"[2, 11]",0.0,4.0,0.46624112129211426,2.112752914428711,0.6416332511653232,64.0,649.0,0.0
G,D,"[3, 11]",0.0,4.0,0.2661881446838379,1.68927001953125,0.4310555715083343,64.0,650.0,0.0
,,"(6, 6)",,,,,,,,
R,U,"[5, 6]",1.0,1.0,0.2855558395385742,2.9811770915985107,0.49539511837551253,65.0,651.0,0.0
Y,R,"[5, 7]",1.0,2.0,0.30255699157714844,2.0467870235443115,0.7419787474268293,65.0,652.0,0.0
Y,R,"[5, 8]",1.0,3.0,0.28522205352783203,1.552535057067871,0.2780906907568233,65.0,653.0,0.0
G,D,"[6, 8]",1.0,4.0,0.33618712425231934,1.9404230117797852,0.6182005520742138,65.0,654.0,0.0
Y,R,"[6, 9]",1.0,5.0,0.2648181915283203,1.8888778686523438,0.6238691718753648,65.0,655.0,0.0
Y,R,"[6, 10]",1.0,6.0,0.1613149642944336,1.555776834487915,0.3961661274086084,65.0,656.0,0.0
R,U,"[5, 10]",1.0,7.0,0.2981600761413574,1.8017029762268066,0.4977051591573002,65.0,657.0,0.0
R,U,"[4, 10]",1.0,8.0,0.36710286140441895,1.72813081741333,0.3592991579652517,65.0,658.0,0.0
B,L,"[4, 9]",1.0,9.0,0.3375239372253418,1.8150520324707031,0.47408217384341567,65.0,659.0,0.0
R,U,"[3, 9]",1.0,10.0,0.3038520812988281,1.9000930786132812,0.6072766832860383,65.0,660.0,0.0
,,"(6, 6)",,,,,,,,
R,U,"[5, 6]",1.0,1.0,0.4613978862762451,2.8306238651275635,0.6377600795765395,66.0,661.0,0.0
Y,R,"[5, 7]",1.0,2.0,0.3001430034637451,1.9045379161834717,0.6090598402164911,66.0,662.0,0.0
Y,R,"[5, 8]",1.0,3.0,0.37739992141723633,1.9891729354858398,0.614732023584895,66.0,663.0,0.0
G,D,"[6, 8]",1.0,4.0,0.28142595291137695,1.9466168880462646,0.661598785366702,66.0,664.0,0.0
Y,R,"[6, 9]",1.0,5.0,0.36710381507873535,1.9584598541259766,0.6029194326822046,66.0,665.0,0.0
Y,R,"[6, 10]",1.0,6.0,0.3013911247253418,1.576164960861206,0.2794913441639749,66.0,666.0,0.0
R,U,"[5, 10]",1.0,7.0,0.39829015731811523,2.073230028152466,0.6689739551040733,66.0,667.0,0.0
R,U,"[4, 10]",1.0,8.0,0.3003971576690674,1.978322982788086,0.6805122663586878,66.0,668.0,0.0
B,L,"[4, 9]",1.0,9.0,0.32701802253723145,1.779000997543335,0.44301320486500967,66.0,669.0,0.0
R,U,"[3, 9]",1.0,10.0,0.4403359889984131,1.814115047454834,0.37371353845133765,66.0,670.0,0.0
,,"(6, 6)",,,,,,,,
R,U,"[5, 6]",1.0,1.0,0.3589460849761963,2.4946069717407227,0.6014037903025101,67.0,671.0,0.0
Y,R,"[5, 7]",1.0,2.0,0.3736610412597656,1.8725099563598633,0.49070406836617136,67.0,672.0,0.0
Y,R,"[5, 8]",1.0,3.0,0.4299890995025635,1.9305710792541504,0.5044249728189829,67.0,673.0,0.0
G,D,"[6, 8]",1.0,4.0,0.3704240322113037,1.6474738121032715,0.2686744716856531,67.0,674.0,0.0
Y,R,"[6, 9]",1.0,5.0,0.4208240509033203,1.6747078895568848,0.2600564117305247,67.0,675.0,0.0
Y,R,"[6, 10]",1.0,6.0,0.4749269485473633,2.2167489528656006,0.7429988240708539,67.0,676.0,0.0
R,U,"[5, 10]",1.0,7.0,0.29323387145996094,1.6184329986572266,0.32837462864966455,67.0,677.0,0.0
R,U,"[4, 10]",1.0,8.0,0.31049394607543945,2.0382609367370605,0.7328585216241832,67.0,678.0,0.0
B,L,"[4, 9]",1.0,9.0,0.22679805755615234,1.7879559993743896,0.5542397110682951,67.0,679.0,0.0
R,U,"[3, 9]",1.0,10.0,0.2082059383392334,1.6482841968536377,0.4361973920483703,67.0,680.0,0.0
,,"(6, 6)",,,,,,,,
R,U,"[5, 6]",1.0,1.0,0.3766510486602783,2.2308809757232666,0.40007266708675515,68.0,681.0,0.0
Y,R,"[5, 7]",1.0,2.0,0.6170001029968262,2.0007998943328857,0.3841134987133804,68.0,682.0,0.0
Y,R,"[5, 8]",1.0,3.0,0.4700629711151123,1.807487964630127,0.34156956377052006,68.0,683.0,0.0
G,D,"[6, 8]",1.0,4.0,0.48331689834594727,1.8685431480407715,0.3933183987533486,68.0,684.0,0.0
Y,R,"[6, 9]",1.0,5.0,0.2561681270599365,1.4908761978149414,0.2509829936216107,68.0,685.0,0.0
Y,R,"[6, 10]",1.0,6.0,0.4611470699310303,2.08555006980896,0.619411446587778,68.0,686.0,0.0
R,U,"[5, 10]",1.0,7.0,0.26294684410095215,1.6853539943695068,0.4219047490521453,68.0,687.0,0.0
R,U,"[4, 10]",1.0,8.0,0.3294558525085449,1.8832030296325684,0.5546051317531875,68.0,688.0,0.0
B,L,"[4, 9]",1.0,9.0,0.31693601608276367,1.7301368713378906,0.41812080623295245,68.0,689.0,0.0
R,U,"[3, 9]",1.0,10.0,0.2897310256958008,1.8765878677368164,0.5779447471807643,68.0,690.0,0.0
,,"(6, 6)",,,,,,,,
R,U,"[5, 6]",1.0,1.0,0.4850039482116699,2.7146449089050293,0.44261461247499073,69.0,691.0,0.0
Y,R,"[5, 7]",1.0,2.0,0.3384208679199219,1.9355580806732178,0.594613678180183,69.0,692.0,0.0
Y,R,"[5, 8]",1.0,3.0,0.28603601455688477,1.5467679500579834,0.27491681584070354,69.0,693.0,0.0
G,D,"[6, 8]",1.0,4.0,0.42103099822998047,1.8572180271148682,0.4486134352851989,69.0,694.0,0.0
Y,R,"[6, 9]",1.0,5.0,0.35633301734924316,2.083735227584839,0.7153363727227104,69.0,695.0,0.0
Y,R,"[6, 10]",1.0,6.0,0.3059699535369873,1.912966012954712,0.5950754211320488,69.0,696.0,0.0
R,U,"[5, 10]",1.0,7.0,0.6389400959014893,1.9472618103027344,0.30901006949094884,69.0,697.0,0.0
R,U,"[4, 10]",1.0,8.0,0.27700185775756836,1.7262170314788818,0.45178026671435145,69.0,698.0,0.0
B,L,"[4, 9]",1.0,9.0,0.3796849250793457,1.7576730251312256,0.3762096732132832,69.0,699.0,0.0
R,U,"[3, 9]",1.0,10.0,0.24263501167297363,1.5187139511108398,0.27821373397498045,69.0,700.0,0.0
,,"(6, 6)",,,,,,,,
R,U,"[5, 6]",1.0,1.0,0.45763111114501953,3.8723459243774414,0.5169032462735627,70.0,701.0,0.0
Y,R,"[5, 7]",1.0,2.0,0.25263309478759766,1.5189151763916016,0.2693306948232326,70.0,702.0,0.0
Y,R,"[5, 8]",1.0,3.0,0.4018888473510742,2.0403380393981934,0.6425771700009488,70.0,703.0,0.0
G,D,"[6, 8]",1.0,4.0,0.3395810127258301,1.7494311332702637,0.42551679986791197,70.0,704.0,0.0
Y,R,"[6, 9]",1.0,5.0,0.3584470748901367,1.624183177947998,0.2665433666439465,70.0,705.0,0.0
Y,R,"[6, 10]",1.0,6.0,0.5572149753570557,2.0280210971832275,0.460807535361924,70.0,706.0,0.0
R,U,"[5, 10]",1.0,7.0,0.3155050277709961,1.914700984954834,0.6087957336817744,70.0,707.0,0.0
R,U,"[4, 10]",1.0,8.0,0.3148159980773926,1.9804658889770508,0.6723117087502202,70.0,708.0,0.0
B,L,"[4, 9]",1.0,9.0,0.27051401138305664,1.9784319400787354,0.7177089125257295,70.0,709.0,0.0
R,U,"[3, 9]",1.0,10.0,0.2855989933013916,1.5490660667419434,0.26686908515274377,70.0,710.0,0.0
,,"(6, 6)",,,,,,,,
R,U,"[5, 6]",1.0,1.0,0.39991188049316406,2.9782769680023193,0.711336853559944,71.0,711.0,0.0
Y,R,"[5, 7]",1.0,2.0,0.24848508834838867,1.9740779399871826,0.7356891112353314,71.0,712.0,0.0
Y,R,"[5, 8]",1.0,3.0,0.21105098724365234,1.9570770263671875,0.7423269614628489,71.0,713.0,0.0
Y,R,"[5, 9]",0.0,3.0,0.2601048946380615,1.5977511405944824,0.34041925948861085,71.0,714.0,0.0
R,U,"[4, 9]",1.0,4.0,0.5400431156158447,2.133141040802002,0.5899012220229611,71.0,715.0,0.0
R,U,"[3, 9]",1.0,5.0,0.4317190647125244,1.820051908493042,0.3932472286268262,71.0,716.0,0.0
R,U,"[2, 9]",0.0,5.0,0.3741340637207031,2.005812883377075,0.6322316358698508,71.0,717.0,0.0
G,D,"[3, 9]",0.0,5.0,0.6504080295562744,2.0544040203094482,0.4034647628993241,71.0,718.0,0.0
G,D,"[4, 9]",0.0,5.0,0.31539011001586914,1.8119850158691406,0.49863023557923336,71.0,719.0,0.0
B,L,"[4, 8]",0.0,5.0,0.2717139720916748,1.5880510807037354,0.32011782190802507,71.0,720.0,0.0
,,"(6, 6)",,,,,,,,
R,U,"[5, 6]",1.0,1.0,0.39616894721984863,2.7460200786590576,0.7491743128083916,72.0,721.0,0.0
Y,R,"[5, 7]",1.0,2.0,0.21931195259094238,1.7833688259124756,0.5657298657270674,72.0,722.0,0.0
Y,R,"[5, 8]",1.0,3.0,0.40700697898864746,1.823395013809204,0.40589606474505746,72.0,723.0,0.0
G,D,"[6, 8]",1.0,4.0,0.2762880325317383,1.5322680473327637,0.25504540374853296,72.0,724.0,0.0
Y,R,"[6, 9]",1.0,5.0,0.3636898994445801,2.0298850536346436,0.6676507229744288,72.0,725.0,0.0
Y,R,"[6, 10]",1.0,6.0,0.26455092430114746,1.8321709632873535,0.5666044947367399,72.0,726.0,0.0
R,U,"[5, 10]",1.0,7.0,0.4114220142364502,1.9742438793182373,0.5574373312352858,72.0,727.0,0.0
R,U,"[4, 10]",1.0,8.0,0.34357500076293945,1.6560320854187012,0.3137080762992859,72.0,728.0,0.0
B,L,"[4, 9]",1.0,9.0,0.48488306999206543,1.997758150100708,0.5111224150023104,72.0,729.0,0.0
R,U,"[3, 9]",1.0,10.0,0.319594144821167,1.910233974456787,0.604537128778976,72.0,730.0,0.0
,,"(6, 6)",,,,,,,,
R,U,"[5, 6]",1.0,1.0,0.5131831169128418,2.8848750591278076,0.25635387283393807,73.0,731.0,0.0
Y,R,"[5, 7]",1.0,2.0,0.4157838821411133,2.0179049968719482,0.6072261321233712,73.0,732.0,0.0
Y,R,"[5, 8]",1.0,3.0,0.24390196800231934,1.9299368858337402,0.6870889098999796,73.0,733.0,0.0
G,D,"[6, 8]",1.0,4.0,0.2584249973297119,1.7270219326019287,0.4641595025067414,73.0,734.0,0.0
Y,R,"[6, 9]",1.0,5.0,0.2861299514770508,1.5430331230163574,0.2573106661428478,73.0,735.0,0.0
Y,R,"[6, 10]",1.0,6.0,0.4158310890197754,2.055182933807373,0.6453392372743394,73.0,736.0,0.0
R,U,"[5, 10]",1.0,7.0,0.2761569023132324,1.6536622047424316,0.36598137124886027,73.0,737.0,0.0
R,U,"[4, 10]",1.0,8.0,0.3261868953704834,1.8499488830566406,0.5157231881106245,73.0,738.0,0.0
B,L,"[4, 9]",1.0,9.0,0.2851428985595703,1.8224189281463623,0.5381061816310773,73.0,739.0,0.0
R,U,"[3, 9]",1.0,10.0,0.3154420852661133,1.798996925354004,0.48702621903167886,73.0,740.0,0.0
,,"(6, 6)",,,,,,,,
R,U,"[5, 6]",1.0,1.0,0.3317580223083496,2.113755941390991,0.3010102172694425,74.0,741.0,0.0
Y,R,"[5, 7]",1.0,2.0,0.3627290725708008,1.918936014175415,0.5529238800079147,74.0,742.0,0.0
Y,R,"[5, 8]",1.0,3.0,0.30606698989868164,1.8651270866394043,0.5513002151382426,74.0,743.0,0.0
G,D,"[6, 8]",1.0,4.0,0.24036598205566406,1.9226810932159424,0.6737884974017649,74.0,744.0,0.0
Y,R,"[6, 9]",1.0,5.0,0.2517399787902832,1.793524980545044,0.5506969616212849,74.0,745.0,0.0
Y,R,"[6, 10]",1.0,6.0,0.37668800354003906,1.765578031539917,0.38308692995612037,74.0,746.0,0.0
R,U,"[5, 10]",1.0,7.0,0.25502586364746094,1.751161813735962,0.5006696181877864,74.0,747.0,0.0
R,U,"[4, 10]",1.0,8.0,0.4039599895477295,1.6581931114196777,0.25906609097962,74.0,748.0,0.0
B,L,"[4, 9]",1.0,9.0,0.4510610103607178,1.7404041290283203,0.29943508209132447,74.0,749.0,0.0
R,U,"[3, 9]",1.0,10.0,0.47603893280029297,1.9533560276031494,0.4691898961649101,74.0,750.0,0.0
,,"(6, 6)",,,,,,,,
R,U,"[5, 6]",1.0,1.0,0.3449559211730957,13.288697004318237,0.5240878135614424,75.0,751.0,0.0
Y,R,"[5, 7]",1.0,2.0,0.3534679412841797,1.7992238998413086,0.45663019603197696,75.0,752.0,0.0
Y,R,"[5, 8]",1.0,3.0,0.3295259475708008,1.9638350009918213,0.6369109344428552,75.0,753.0,0.0
G,D,"[6, 8]",1.0,4.0,0.2249140739440918,1.9669241905212402,0.7368877918106524,75.0,754.0,0.0
Y,R,"[6, 9]",1.0,5.0,0.1875770092010498,1.8178660869598389,0.6381844826634844,75.0,755.0,0.0
Y,R,"[6, 10]",1.0,6.0,0.2446308135986328,1.5441920757293701,0.2992760084961116,75.0,756.0,0.0
R,U,"[5, 10]",1.0,7.0,0.5734701156616211,1.856722116470337,0.27268706816892374,75.0,757.0,0.0
R,U,"[4, 10]",1.0,8.0,0.36848878860473633,1.8428478240966797,0.48186023457405586,75.0,758.0,0.0
B,L,"[4, 9]",1.0,9.0,0.2575569152832031,1.604909896850586,0.3369595724569433,75.0,759.0,0.0
R,U,"[3, 9]",1.0,10.0,0.28942418098449707,1.8755381107330322,0.5789477958912965,75.0,760.0,0.0
,,"(6, 6)",,,,,,,,
R,U,"[5, 6]",1.0,1.0,0.5376889705657959,4.48019814491272,0.5090294669920183,76.0,761.0,0.0
Y,R,"[5, 7]",1.0,2.0,0.25135016441345215,1.8349370956420898,0.59391718574437,76.0,762.0,0.0
Y,R,"[5, 8]",1.0,3.0,0.35497403144836426,1.675645112991333,0.3363704040086375,76.0,763.0,0.0
G,D,"[6, 8]",1.0,4.0,0.34969592094421387,1.6484501361846924,0.3014494975583895,76.0,764.0,0.0
Y,R,"[6, 9]",1.0,5.0,0.2997279167175293,1.6584031581878662,0.35965492969889645,76.0,765.0,0.0
Y,R,"[6, 10]",1.0,6.0,0.44564199447631836,1.8553509712219238,0.4150390209874345,76.0,766.0,0.0
R,U,"[5, 10]",1.0,7.0,0.3240320682525635,2.011734962463379,0.6765855499725334,76.0,767.0,0.0
R,U,"[4, 10]",1.0,8.0,0.2740330696105957,1.5676820278167725,0.2943030820792173,76.0,768.0,0.0
B,L,"[4, 9]",1.0,9.0,0.48229098320007324,2.1419949531555176,0.6695843780702145,76.0,769.0,0.0
R,U,"[3, 9]",1.0,10.0,0.3262970447540283,2.0424208641052246,0.7117017151480336,76.0,770.0,0.0
,,"(6, 6)",,,,,,,,
R,U,"[5, 6]",1.0,1.0,0.3772869110107422,2.5162949562072754,0.6948739938352649,77.0,771.0,0.0
Y,R,"[5, 7]",1.0,2.0,0.2872500419616699,1.9313240051269531,0.6591326929008945,77.0,772.0,0.0
Y,R,"[5, 8]",1.0,3.0,0.27499985694885254,1.702836036682129,0.42877104896799295,77.0,773.0,0.0
G,D,"[6, 8]",1.0,4.0,0.39928507804870605,1.8147327899932861,0.4102291051820111,77.0,774.0,0.0
Y,R,"[6, 9]",1.0,5.0,0.39124584197998047,1.7237129211425781,0.3339458086548532,77.0,775.0,0.0
Y,R,"[6, 10]",1.0,6.0,0.2958641052246094,1.7192039489746094,0.41985876135721123,77.0,776.0,0.0
R,U,"[5, 10]",1.0,7.0,0.4633312225341797,1.8450779914855957,0.381323050844378,77.0,777.0,0.0
R,U,"[4, 10]",1.0,8.0,0.3502190113067627,1.821929931640625,0.46988725477481874,77.0,778.0,0.0
B,L,"[4, 9]",1.0,9.0,0.3805420398712158,1.706291913986206,0.32613049573901914,77.0,779.0,0.0
R,U,"[3, 9]",1.0,10.0,0.4404909610748291,2.1859419345855713,0.7449731085256721,77.0,780.0,0.0
,,"(6, 6)",,,,,,,,
R,U,"[5, 6]",1.0,1.0,0.3288228511810303,2.2849018573760986,0.4635273801090748,78.0,781.0,0.0
Y,R,"[5, 7]",1.0,2.0,0.26018500328063965,1.75860595703125,0.48861660933498696,78.0,782.0,0.0
Y,R,"[5, 8]",1.0,3.0,0.28516101837158203,1.6796059608459473,0.4016911784968301,78.0,783.0,0.0
G,D,"[6, 8]",1.0,4.0,0.4408559799194336,1.9831428527832031,0.5345639336656474,78.0,784.0,0.0
Y,R,"[6, 9]",1.0,5.0,0.207474946975708,1.8209919929504395,0.6053699019812819,78.0,785.0,0.0
Y,R,"[6, 10]",1.0,6.0,0.23181486129760742,1.8178188800811768,0.5899208519271523,78.0,786.0,0.0
R,U,"[5, 10]",1.0,7.0,0.26210904121398926,1.6633968353271484,0.4034671720293099,78.0,787.0,0.0
R,U,"[4, 10]",1.0,8.0,0.2873959541320801,1.9746010303497314,0.6943138935995565,78.0,788.0,0.0
B,L,"[4, 9]",1.0,9.0,0.21676898002624512,1.5848309993743896,0.3794709152975496,78.0,789.0,0.0
R,U,"[3, 9]",1.0,10.0,0.4517338275909424,2.0886189937591553,0.6345736924392316,78.0,790.0,0.0
,,"(6, 6)",,,,,,,,
R,U,"[5, 6]",1.0,1.0,0.42527008056640625,2.7851998805999756,0.7194064936774756,79.0,791.0,0.0
Y,R,"[5, 7]",1.0,2.0,0.11600685119628906,1.7681000232696533,0.6541692045543943,79.0,792.0,0.0
Y,R,"[5, 8]",1.0,3.0,0.2571728229522705,1.812195062637329,0.5498674565175792,79.0,793.0,0.0
R,U,"[4, 8]",0.0,3.0,0.3396449089050293,1.6726830005645752,0.3226801884194996,79.0,794.0,0.0
G,D,"[5, 8]",0.0,3.0,0.45206499099731445,2.092453956604004,0.648149722534232,79.0,795.0,0.0
R,U,"[4, 8]",0.0,3.0,0.31602907180786133,1.5919339656829834,0.2737113469622312,79.0,796.0,0.0
B,L,"[4, 7]",0.0,3.0,0.3595719337463379,1.6293251514434814,0.26965103873511015,79.0,797.0,0.0
Y,R,"[4, 8]",0.0,3.0,0.3122730255126953,1.7504971027374268,0.4365775114665837,79.0,798.0,0.0
R,U,"[3, 8]",0.0,3.0,0.2662651538848877,1.5394270420074463,0.2761368573950409,79.0,799.0,0.0
Y,R,"[3, 9]",1.0,4.0,0.3039250373840332,1.6840448379516602,0.39337559810143624,79.0,800.0,0.0
,,"(6, 6)",,,,,,,,
R,U,"[5, 6]",1.0,1.0,0.42275094985961914,2.3169760704040527,0.460217138123806,80.0,801.0,0.0
Y,R,"[5, 7]",1.0,2.0,0.24009299278259277,1.909168004989624,0.6692605640988549,80.0,802.0,0.0
Y,R,"[5, 8]",1.0,3.0,0.20942997932434082,1.6794490814208984,0.4653920264707171,80.0,803.0,0.0
G,D,"[6, 8]",1.0,4.0,0.3049030303955078,2.020146131515503,0.7018688683076711,80.0,804.0,0.0
Y,R,"[6, 9]",1.0,5.0,0.2231431007385254,1.5917351245880127,0.3772428163525364,80.0,805.0,0.0
Y,R,"[6, 10]",1.0,6.0,0.2888970375061035,1.9554240703582764,0.6821990031277878,80.0,806.0,0.0
R,U,"[5, 10]",1.0,7.0,0.2841918468475342,1.5519897937774658,0.2679857146729854,80.0,807.0,0.0
R,U,"[4, 10]",1.0,8.0,0.37220287322998047,2.03324294090271,0.6673489089354401,80.0,808.0,0.0
B,L,"[4, 9]",1.0,9.0,0.2367699146270752,1.699202060699463,0.4668455345352872,80.0,809.0,0.0
R,U,"[3, 9]",1.0,10.0,0.24976897239685059,1.8428959846496582,0.5930898020251805,80.0,810.0,0.0
,,"(6, 6)",,,,,,,,
R,U,"[5, 6]",1.0,1.0,0.45631885528564453,2.65749192237854,0.7334668411076968,81.0,811.0,0.0
Y,R,"[5, 7]",1.0,2.0,0.27877211570739746,2.025995969772339,0.7426499995974141,81.0,812.0,0.0
Y,R,"[5, 8]",1.0,3.0,0.26209402084350586,1.6655991077423096,0.4084914042962309,81.0,813.0,0.0
G,D,"[6, 8]",1.0,4.0,0.29044389724731445,1.7245838642120361,0.43313475878359303,81.0,814.0,0.0
Y,R,"[6, 9]",1.0,5.0,0.30846190452575684,1.5745618343353271,0.2578078697453715,81.0,815.0,0.0
Y,R,"[6, 10]",1.0,6.0,0.5244112014770508,1.8504688739776611,0.3248021350647026,81.0,816.0,0.0
R,U,"[5, 10]",1.0,7.0,0.4264030456542969,1.8370130062103271,0.4116858138117803,81.0,817.0,0.0
R,U,"[4, 10]",1.0,8.0,0.28304004669189453,1.8634271621704102,0.5914929834378961,81.0,818.0,0.0
B,L,"[4, 9]",1.0,9.0,0.3314988613128662,1.9212009906768799,0.5960918814785858,81.0,819.0,0.0
R,U,"[3, 9]",1.0,10.0,0.34008097648620605,1.89711594581604,0.5430553481546136,81.0,820.0,0.0
,,"(6, 6)",,,,,,,,
R,U,"[5, 6]",1.0,1.0,0.36327195167541504,2.6899619102478027,0.7161892539254786,82.0,821.0,0.0
Y,R,"[5, 7]",1.0,2.0,0.2647058963775635,1.5734100341796875,0.30662318810046074,82.0,822.0,0.0
Y,R,"[5, 8]",1.0,3.0,0.296018123626709,1.8374171257019043,0.5437593914013239,82.0,823.0,0.0
G,D,"[6, 8]",1.0,4.0,0.2586491107940674,1.5572030544281006,0.3010138896357655,82.0,824.0,0.0
Y,R,"[6, 9]",1.0,5.0,0.30896806716918945,1.8525431156158447,0.5367137569945841,82.0,825.0,0.0
Y,R,"[6, 10]",1.0,6.0,0.3029789924621582,1.6649320125579834,0.3685200780267936,82.0,826.0,0.0
R,U,"[5, 10]",1.0,7.0,0.41529107093811035,1.9776980876922607,0.562532330519077,82.0,827.0,0.0
R,U,"[4, 10]",1.0,8.0,0.2579479217529297,1.5619831085205078,0.2913885430438283,82.0,828.0,0.0
B,L,"[4, 9]",1.0,9.0,0.4939248561859131,1.996495008468628,0.5042607356847071,82.0,829.0,0.0
R,U,"[3, 9]",1.0,10.0,0.311784029006958,1.682694911956787,0.37046632624387044,82.0,830.0,0.0
,,"(6, 6)",,,,,,,,
R,U,"[5, 6]",1.0,1.0,0.45186686515808105,2.2752819061279297,0.36236255404735507,83.0,831.0,0.0
Y,R,"[5, 7]",1.0,2.0,0.387253999710083,1.8595860004425049,0.4717326680173982,83.0,832.0,0.0
Y,R,"[5, 8]",1.0,3.0,0.2132568359375,1.9342331886291504,0.7224023414045622,83.0,833.0,0.0
G,D,"[6, 8]",1.0,4.0,0.19699811935424805,1.5252950191497803,0.331383478451875,83.0,834.0,0.0
Y,R,"[6, 9]",1.0,5.0,0.33246397972106934,1.9558780193328857,0.6205526248675317,83.0,835.0,0.0
Y,R,"[6, 10]",1.0,6.0,0.20648789405822754,1.5030951499938965,0.29029213876766846,83.0,836.0,0.0
R,U,"[5, 10]",1.0,7.0,0.5106430053710938,1.8649840354919434,0.3551384425421541,83.0,837.0,0.0
R,U,"[4, 10]",1.0,8.0,0.29579591751098633,1.601471185684204,0.30666424549741456,83.0,838.0,0.0
B,L,"[4, 9]",1.0,9.0,0.3968198299407959,1.7861380577087402,0.39249243077406876,83.0,839.0,0.0
R,U,"[3, 9]",1.0,10.0,0.43842506408691406,1.7168619632720947,0.2928954257678285,83.0,840.0,0.0
,,"(6, 6)",,,,,,,,
R,U,"[5, 6]",1.0,1.0,0.3379859924316406,2.39896297454834,0.5247638420436336,84.0,841.0,0.0
Y,R,"[5, 7]",1.0,2.0,0.34580206871032715,1.6379010677337646,0.2963030790492588,84.0,842.0,0.0
Y,R,"[5, 8]",1.0,3.0,0.3417689800262451,1.8441290855407715,0.4901863976396319,84.0,843.0,0.0
G,D,"[6, 8]",1.0,4.0,0.4033818244934082,1.7490417957305908,0.35602841258585277,84.0,844.0,0.0
Y,R,"[6, 9]",1.0,5.0,0.38637781143188477,2.0884299278259277,0.7106581131501051,84.0,845.0,0.0
R,U,"[5, 9]",0.0,5.0,0.3880581855773926,1.8173649311065674,0.4448450945924393,84.0,846.0,0.0
Y,R,"[5, 10]",1.0,6.0,0.742332935333252,2.0586469173431396,0.3201941662146196,84.0,847.0,0.0
Y,R,"[5, 11]",0.0,6.0,0.26668882369995117,1.6726210117340088,0.4095819211468256,84.0,848.0,0.0
R,U,"[4, 11]",0.0,6.0,0.42429184913635254,1.799821138381958,0.3757737796554322,84.0,849.0,0.0
Y,R,"[5, 11]",-3.0,6.0,0.2570629119873047,1.8843879699707031,0.6270443804498311,84.0,850.0,0.0
,,"(6, 6)",,,,,,,,
R,U,"[5, 6]",1.0,1.0,0.362030029296875,2.6173160076141357,0.37766731851065827,85.0,851.0,0.0
Y,R,"[5, 7]",1.0,2.0,0.2649509906768799,1.6979291439056396,0.44201254368077986,85.0,852.0,0.0
Y,R,"[5, 8]",1.0,3.0,0.2978959083557129,1.9926061630249023,0.7009321467054714,85.0,853.0,0.0
G,D,"[6, 8]",1.0,4.0,0.26193904876708984,1.7597110271453857,0.4941217144969147,85.0,854.0,0.0
Y,R,"[6, 9]",1.0,5.0,0.27303481101989746,1.7448279857635498,0.472282324173856,85.0,855.0,0.0
Y,R,"[6, 10]",1.0,6.0,0.2499558925628662,1.8257510662078857,0.5811366037208658,85.0,856.0,0.0
R,U,"[5, 10]",1.0,7.0,0.2815680503845215,1.8405139446258545,0.554967741279091,85.0,857.0,0.0
R,U,"[4, 10]",1.0,8.0,0.2842278480529785,1.969268798828125,0.6907656476442439,85.0,858.0,0.0
B,L,"[4, 9]",1.0,9.0,0.272536039352417,1.6249279975891113,0.34924066776801327,85.0,859.0,0.0
R,U,"[3, 9]",1.0,10.0,0.39328694343566895,1.8105010986328125,0.40970148032677667,85.0,860.0,0.0
,,"(6, 6)",,,,,,,,
R,U,"[5, 6]",1.0,1.0,0.869682788848877,3.0177559852600098,0.5438765614189813,86.0,861.0,0.0
Y,R,"[5, 7]",1.0,2.0,0.29148221015930176,1.9252650737762451,0.6357123110828617,86.0,862.0,0.0
Y,R,"[5, 8]",1.0,3.0,0.3491239547729492,1.9299139976501465,0.5822826446268909,86.0,863.0,0.0
G,D,"[6, 8]",1.0,4.0,0.4538259506225586,2.1238980293273926,0.6726275513247746,86.0,864.0,0.0
Y,R,"[6, 9]",1.0,5.0,0.1992030143737793,1.9433047771453857,0.7491975936249866,86.0,865.0,0.0
Y,R,"[6, 10]",1.0,6.0,0.2556190490722656,1.8071630001068115,0.5398964447711218,86.0,866.0,0.0
R,U,"[5, 10]",1.0,7.0,0.2700660228729248,1.5508980751037598,0.2909499920786992,86.0,867.0,0.0
R,U,"[4, 10]",1.0,8.0,0.47211194038391113,2.169071912765503,0.6931389687731706,86.0,868.0,0.0
B,L,"[4, 9]",1.0,9.0,0.2664041519165039,1.9942739009857178,0.7370083859070518,86.0,869.0,0.0
R,U,"[3, 9]",1.0,10.0,0.22774696350097656,1.611236810684204,0.38196491660279897,86.0,870.0,0.0
,,"(6, 6)",,,,,,,,
R,U,"[5, 6]",1.0,1.0,0.31901001930236816,3.3815529346466064,0.6298528842557053,87.0,871.0,0.0
Y,R,"[5, 7]",1.0,2.0,0.24834799766540527,1.9478569030761719,0.6942320223458728,87.0,872.0,0.0
Y,R,"[5, 8]",1.0,3.0,0.2610130310058594,1.6521399021148682,0.3966578162385153,87.0,873.0,0.0
G,D,"[6, 8]",1.0,4.0,0.38637590408325195,2.088298797607422,0.7012015235764193,87.0,874.0,0.0
Y,R,"[6, 9]",1.0,5.0,0.26996493339538574,1.5468981266021729,0.2818369876232239,87.0,875.0,0.0
Y,R,"[6, 10]",1.0,6.0,0.49003005027770996,1.9356601238250732,0.4339520161030587,87.0,876.0,0.0
R,U,"[5, 10]",1.0,7.0,0.3476982116699219,2.0850141048431396,0.7353133307946055,87.0,877.0,0.0
R,U,"[4, 10]",1.0,8.0,0.24134111404418945,1.896723985671997,0.6486689745637271,87.0,878.0,0.0
B,L,"[4, 9]",1.0,9.0,0.31730103492736816,1.5977799892425537,0.28023633835562417,87.0,879.0,0.0
R,U,"[3, 9]",1.0,10.0,0.4612009525299072,2.0006399154663086,0.5304383975393885,87.0,880.0,0.0
,,"(6, 6)",,,,,,,,
R,U,"[5, 6]",1.0,1.0,0.3357729911804199,2.532183885574341,0.44609680159766585,88.0,881.0,0.0
Y,R,"[5, 7]",1.0,2.0,0.2890160083770752,1.8533949851989746,0.5492260982851593,88.0,882.0,0.0
Y,R,"[5, 8]",1.0,3.0,0.314119815826416,1.8159880638122559,0.49863379655619766,88.0,883.0,0.0
G,D,"[6, 8]",1.0,4.0,0.35325098037719727,1.8052079677581787,0.4538591047524129,88.0,884.0,0.0
Y,R,"[6, 9]",1.0,5.0,0.3002738952636719,1.7233660221099854,0.4271433454882148,88.0,885.0,0.0
Y,R,"[6, 10]",1.0,6.0,0.35556697845458984,1.7379560470581055,0.3817370142635833,88.0,886.0,0.0
R,U,"[5, 10]",1.0,7.0,0.29752397537231445,1.9348721504211426,0.6334594830192126,88.0,887.0,0.0
R,U,"[4, 10]",1.0,8.0,0.2472059726715088,1.5024781227111816,0.2524619684688146,88.0,888.0,0.0
B,L,"[4, 9]",1.0,9.0,0.41812705993652344,1.846116065979004,0.43169428910078245,88.0,889.0,0.0
R,U,"[3, 9]",1.0,10.0,0.2921268939971924,1.9884190559387207,0.6865328748129804,88.0,890.0,0.0
,,"(6, 6)",,,,,,,,
R,U,"[5, 6]",1.0,1.0,0.3876919746398926,2.6357781887054443,0.6555567034638399,89.0,891.0,0.0
Y,R,"[5, 7]",1.0,2.0,0.2666308879852295,1.613976001739502,0.3531968203925192,89.0,892.0,0.0
Y,R,"[5, 8]",1.0,3.0,0.2686641216278076,1.621431827545166,0.35787379065514,89.0,893.0,0.0
G,D,"[6, 8]",1.0,4.0,0.38814306259155273,1.6862869262695312,0.31077423072893356,89.0,894.0,0.0
Y,R,"[6, 9]",1.0,5.0,0.43377089500427246,2.148603916168213,0.725573272552933,89.0,895.0,0.0
Y,R,"[6, 10]",1.0,6.0,0.21377110481262207,1.8239459991455078,0.6163335817015713,89.0,896.0,0.0
R,U,"[5, 10]",1.0,7.0,0.22857999801635742,1.7329611778259277,0.4995534547648289,89.0,897.0,0.0
R,U,"[4, 10]",1.0,8.0,0.25612711906433105,1.9559381008148193,0.6883610027801972,89.0,898.0,0.0
B,L,"[4, 9]",1.0,9.0,0.250964879989624,1.961704969406128,0.7166782218911301,89.0,899.0,0.0
R,U,"[3, 9]",1.0,10.0,0.19927310943603516,1.859053134918213,0.6589855633196114,89.0,900.0,0.0
,,"(6, 6)",,,,,,,,
R,U,"[5, 6]",1.0,1.0,0.28604698181152344,3.0342700481414795,0.7434719974539103,90.0,901.0,0.0
Y,R,"[5, 7]",1.0,2.0,0.23205900192260742,1.671375036239624,0.44805166800822677,90.0,902.0,0.0
Y,R,"[5, 8]",1.0,3.0,0.3646411895751953,1.7703440189361572,0.4017726820892144,90.0,903.0,0.0
G,D,"[6, 8]",1.0,4.0,0.39920616149902344,1.9787988662719727,0.5803614364293153,90.0,904.0,0.0
Y,R,"[6, 9]",1.0,5.0,0.26854896545410156,1.9845290184020996,0.7146979287199053,90.0,905.0,0.0
Y,R,"[6, 10]",1.0,6.0,0.19836807250976562,1.910499095916748,0.7084590119128689,90.0,906.0,0.0
R,U,"[5, 10]",1.0,7.0,0.22025799751281738,1.7517609596252441,0.5436625190794353,90.0,907.0,0.0
R,U,"[4, 10]",1.0,8.0,0.23630094528198242,1.7656140327453613,0.5425941573219858,90.0,908.0,0.0
B,L,"[4, 9]",1.0,9.0,0.2335529327392578,1.5974700450897217,0.3735548806907242,90.0,909.0,0.0
R,U,"[3, 9]",1.0,10.0,0.34085798263549805,1.6334221363067627,0.2902680957283746,90.0,910.0,0.0
,,"(6, 6)",,,,,,,,
R,U,"[5, 6]",1.0,1.0,0.5895729064941406,2.798398017883301,0.40523055044672046,91.0,911.0,0.0
Y,R,"[5, 7]",1.0,2.0,0.27719807624816895,1.9315378665924072,0.6530785513087363,91.0,912.0,0.0
Y,R,"[5, 8]",1.0,3.0,0.26398301124572754,1.599147081375122,0.33585400235216245,91.0,913.0,0.0
G,D,"[6, 8]",1.0,4.0,0.6761510372161865,2.268125057220459,0.5869685658577861,91.0,914.0,0.0
Y,R,"[6, 9]",1.0,5.0,0.39423513412475586,2.0456550121307373,0.6492692164373931,91.0,915.0,0.0
Y,R,"[6, 10]",1.0,6.0,0.3531649112701416,1.940859079360962,0.5900691319229976,91.0,916.0,0.0
R,U,"[5, 10]",1.0,7.0,0.6448051929473877,2.2042980194091797,0.5609404603153204,91.0,917.0,0.0
R,U,"[4, 10]",1.0,8.0,0.23899507522583008,1.4897840023040771,0.2510732336101194,91.0,918.0,0.0
B,L,"[4, 9]",1.0,9.0,0.4279210567474365,1.7305071353912354,0.29820347486761045,91.0,919.0,0.0
R,U,"[3, 9]",1.0,10.0,0.2804439067840576,1.9144318103790283,0.6290097209489331,91.0,920.0,0.0
,,"(6, 6)",,,,,,,,
R,U,"[5, 6]",1.0,1.0,0.26612210273742676,2.160508871078491,0.30629245063362837,92.0,921.0,0.0
Y,R,"[5, 7]",1.0,2.0,0.35674095153808594,1.8426239490509033,0.482177421338444,92.0,922.0,0.0
Y,R,"[5, 8]",1.0,3.0,0.20772504806518555,1.8679909706115723,0.6499378673174817,92.0,923.0,0.0
G,D,"[6, 8]",1.0,4.0,0.23307085037231445,1.676785945892334,0.44337095986889,92.0,924.0,0.0
Y,R,"[6, 9]",1.0,5.0,0.2043149471282959,1.7001941204071045,0.5102938035002342,92.0,925.0,0.0
Y,R,"[6, 10]",1.0,6.0,0.27529311180114746,1.5551300048828125,0.2821820492106656,92.0,926.0,0.0
R,U,"[5, 10]",1.0,7.0,0.43669795989990234,2.106675863265991,0.6718629131487435,92.0,927.0,0.0
R,U,"[4, 10]",1.0,8.0,0.22466015815734863,1.946964979171753,0.7186192846425041,92.0,928.0,0.0
B,L,"[4, 9]",1.0,9.0,0.22266101837158203,1.9765470027923584,0.7450531862296782,92.0,929.0,0.0
R,U,"[3, 9]",1.0,10.0,0.22348690032958984,1.6329200267791748,0.3951682453844744,92.0,930.0,0.0
,,"(6, 6)",,,,,,,,
R,U,"[5, 6]",1.0,1.0,0.38675498962402344,2.292555093765259,0.40423646115473805,93.0,931.0,0.0
Y,R,"[5, 7]",1.0,2.0,0.20666980743408203,1.6223328113555908,0.4098041109415794,93.0,932.0,0.0
Y,R,"[5, 8]",1.0,3.0,0.22393512725830078,1.8915519714355469,0.6677453731641871,93.0,933.0,0.0
G,D,"[6, 8]",1.0,4.0,0.24190092086791992,1.5795719623565674,0.3309014869396713,93.0,934.0,0.0
Y,R,"[6, 9]",1.0,5.0,0.32556986808776855,1.709989070892334,0.37429038238531903,93.0,935.0,0.0
Y,R,"[6, 10]",1.0,6.0,0.2714228630065918,1.8079500198364258,0.54856011142163,93.0,936.0,0.0
R,U,"[5, 10]",-1.0,6.0,0.03040289878845215,5.553503036499023,0.4518854847983009,93.0,937.0,0.0
R,U,"[4, 10]",1.0,7.0,0.31693506240844727,1.6472008228302002,0.3326215817523867,93.0,938.0,0.0
B,L,"[4, 9]",1.0,8.0,0.2749359607696533,1.868527889251709,0.5842598975084112,93.0,939.0,0.0
R,U,"[3, 9]",1.0,9.0,0.25223803520202637,1.6772089004516602,0.4281759839625775,93.0,940.0,0.0
,,"(6, 6)",,,,,,,,
R,U,"[5, 6]",1.0,1.0,0.3543679714202881,2.4910359382629395,0.385865068153979,94.0,941.0,0.0
Y,R,"[5, 7]",1.0,2.0,0.28539395332336426,1.7932460308074951,0.5123215267229447,94.0,942.0,0.0
Y,R,"[5, 8]",-1.0,2.0,0.09195303916931152,5.460646867752075,0.2896115034293184,94.0,943.0,0.0
G,D,"[6, 8]",1.0,3.0,0.29030609130859375,1.6475861072540283,0.353666328297687,94.0,944.0,0.0
Y,R,"[6, 9]",1.0,4.0,0.2763640880584717,1.6622610092163086,0.38264770968896294,94.0,945.0,0.0
Y,R,"[6, 10]",1.0,5.0,0.2676961421966553,1.9149398803710938,0.6473028577675568,94.0,946.0,0.0
R,U,"[5, 10]",1.0,6.0,0.295015811920166,1.7991259098052979,0.49651340331157495,94.0,947.0,0.0
R,U,"[4, 10]",1.0,7.0,0.32393693923950195,1.6470718383789062,0.31041715971872375,94.0,948.0,0.0
B,L,"[4, 9]",1.0,8.0,0.31276702880859375,1.684340000152588,0.37797598101408436,94.0,949.0,0.0
R,U,"[3, 9]",1.0,9.0,0.23432588577270508,1.9321978092193604,0.709655450172121,94.0,950.0,0.0
,,"(6, 6)",,,,,,,,
R,U,"[5, 6]",1.0,1.0,0.3172140121459961,2.4647181034088135,0.49137169023316996,95.0,951.0,0.0
Y,R,"[5, 7]",1.0,2.0,0.41927099227905273,2.1243209838867188,0.7153900036113303,95.0,952.0,0.0
Y,R,"[5, 8]",1.0,3.0,0.5314309597015381,2.10394287109375,0.5694349243055052,95.0,953.0,0.0
G,D,"[6, 8]",1.0,4.0,0.2609279155731201,1.8387300968170166,0.5747223965202637,95.0,954.0,0.0
Y,R,"[6, 9]",1.0,5.0,0.27767205238342285,2.0252368450164795,0.7498189684226941,95.0,955.0,0.0
Y,R,"[6, 10]",1.0,6.0,0.29763007164001465,1.7854669094085693,0.485417543817808,95.0,956.0,0.0
R,U,"[5, 10]",1.0,7.0,0.4938790798187256,1.9605119228363037,0.46261310546567047,95.0,957.0,0.0
R,U,"[4, 10]",1.0,8.0,0.2562849521636963,1.9791648387908936,0.7248007233521618,95.0,958.0,0.0
B,L,"[4, 9]",1.0,9.0,0.31253504753112793,1.7107150554656982,0.40248006545926235,95.0,959.0,0.0
R,U,"[3, 9]",1.0,10.0,0.3451399803161621,2.069683074951172,0.7217975419949745,95.0,960.0,0.0
,,"(6, 6)",,,,,,,,
R,U,"[5, 6]",1.0,1.0,0.28353190422058105,2.0174009799957275,0.389360421014753,96.0,961.0,0.0
Y,R,"[5, 7]",1.0,2.0,0.2675590515136719,1.6821589469909668,0.4214888039865444,96.0,962.0,0.0
Y,R,"[5, 8]",1.0,3.0,0.3682270050048828,1.9375989437103271,0.5758659806848987,96.0,963.0,0.0
G,D,"[6, 8]",1.0,4.0,0.3458230495452881,2.055194854736328,0.7139573492079558,96.0,964.0,0.0
Y,R,"[6, 9]",1.0,5.0,0.2230989933013916,1.6482889652252197,0.4124014516125717,96.0,965.0,0.0
Y,R,"[6, 10]",1.0,6.0,0.36115479469299316,1.877403974533081,0.5063647311206732,96.0,966.0,0.0
R,U,"[5, 10]",1.0,7.0,0.28447508811950684,1.8305730819702148,0.5535199088979501,96.0,967.0,0.0
R,U,"[4, 10]",1.0,8.0,0.3910989761352539,1.946793794631958,0.5503316478771206,96.0,968.0,0.0
B,L,"[4, 9]",1.0,9.0,0.26404595375061035,1.9013550281524658,0.6349572856422281,96.0,969.0,0.0
R,U,"[3, 9]",1.0,10.0,0.26944494247436523,1.6215529441833496,0.3566942813374806,96.0,970.0,0.0
,,"(6, 6)",,,,,,,,
R,U,"[5, 6]",1.0,1.0,0.3347480297088623,2.3937740325927734,0.3670684464533472,97.0,971.0,0.0
Y,R,"[5, 7]",1.0,2.0,0.4113271236419678,1.9855718612670898,0.5690306092823025,97.0,972.0,0.0
Y,R,"[5, 8]",1.0,3.0,0.21914291381835938,1.6241381168365479,0.40994519267095086,97.0,973.0,0.0
G,D,"[6, 8]",1.0,4.0,0.256181001663208,1.910991907119751,0.6539778713261268,97.0,974.0,0.0
Y,R,"[6, 9]",1.0,5.0,0.1907050609588623,1.656378984451294,0.46045661198529353,97.0,975.0,0.0
Y,R,"[6, 10]",1.0,6.0,0.2852139472961426,1.7404160499572754,0.4675161897582708,97.0,976.0,0.0
R,U,"[5, 10]",1.0,7.0,0.24871087074279785,1.5074989795684814,0.2585103486422388,97.0,977.0,0.0
R,U,"[4, 10]",1.0,8.0,0.31966614723205566,1.6581368446350098,0.3500050851951514,97.0,978.0,0.0
B,L,"[4, 9]",1.0,9.0,0.2292618751525879,1.5271780490875244,0.293793970441802,97.0,979.0,0.0
R,U,"[3, 9]",1.0,10.0,0.3023538589477539,1.7149717807769775,0.42516664461975656,97.0,980.0,0.0
,,"(6, 6)",,,,,,,,
R,U,"[5, 6]",1.0,1.0,0.29616713523864746,2.1401209831237793,0.3153396946270092,98.0,981.0,0.0
Y,R,"[5, 7]",1.0,2.0,0.3206009864807129,1.9083030223846436,0.5900850342718735,98.0,982.0,0.0
Y,R,"[5, 8]",1.0,3.0,0.2485790252685547,1.8235650062561035,0.5802068306666184,98.0,983.0,0.0
G,D,"[6, 8]",1.0,4.0,0.2712388038635254,1.7558889389038086,0.4861696361880754,98.0,984.0,0.0
Y,R,"[6, 9]",1.0,5.0,0.28437089920043945,1.5332601070404053,0.25292349499944006,98.0,985.0,0.0
Y,R,"[6, 10]",1.0,6.0,0.3209950923919678,1.965660810470581,0.6349823129251179,98.0,986.0,0.0
R,U,"[5, 10]",1.0,7.0,0.2284700870513916,1.5021610260009766,0.27066137355393877,98.0,987.0,0.0
R,U,"[4, 10]",1.0,8.0,0.40124011039733887,2.0089988708496094,0.6126380207418993,98.0,988.0,0.0
B,L,"[4, 9]",1.0,9.0,0.3015460968017578,1.8080530166625977,0.5040390899168489,98.0,989.0,0.0
R,U,"[3, 9]",1.0,10.0,0.20145606994628906,1.8453891277313232,0.6493879881276887,98.0,990.0,0.0
,,"(6, 6)",,,,,,,,
R,U,"[5, 6]",1.0,1.0,0.29857587814331055,3.9391651153564453,0.6551096247020607,99.0,991.0,0.0
Y,R,"[5, 7]",1.0,2.0,0.2490978240966797,1.9473638534545898,0.7023176237179867,99.0,992.0,0.0
Y,R,"[5, 8]",1.0,3.0,0.32408809661865234,1.8496811389923096,0.5188490925339942,99.0,993.0,0.0
G,D,"[6, 8]",1.0,4.0,0.3031158447265625,1.8266839981079102,0.5286357289350736,99.0,994.0,0.0
Y,R,"[6, 9]",1.0,5.0,0.2707550525665283,1.9916868209838867,0.7201906049898525,99.0,995.0,0.0
Y,R,"[6, 10]",1.0,6.0,0.17643094062805176,1.776426076889038,0.5966562020745481,99.0,996.0,0.0
R,U,"[5, 10]",1.0,7.0,0.1910381317138672,1.6702351570129395,0.4670703937107686,99.0,997.0,0.0
R,U,"[4, 10]",1.0,8.0,0.3774600028991699,1.9714281558990479,0.588346110340948,99.0,998.0,0.0
B,L,"[4, 9]",1.0,9.0,0.24812793731689453,1.887397050857544,0.6422560168567525,99.0,999.0,0.0
R,U,"[3, 9]",1.0,10.0,0.22649598121643066,1.6921679973602295,0.4679015678135386,99.0,1000.0,0.0
