button_choice,action_choice,coordinate_choice,reward,cumulative_reward,rt,total_trial_time,iti,block_n,trial_n,trial_type
R,U,"[5, 6]",-2.0,0.0,1.4261119365692139,2.9350709915161133,0.5356664001118768,0.0,1.0,0.0
R,U,"[4, 6]",0.0,0.0,0.2754480838775635,1.8749058246612549,0.5938437158376991,0.0,2.0,0.0
R,U,"[3, 6]",0.0,0.0,0.35379695892333984,1.8297178745269775,0.4900483508982326,0.0,3.0,0.0
R,U,"[2, 6]",0.0,0.0,0.2946929931640625,1.9459199905395508,0.6524188641432638,0.0,4.0,0.0
R,U,"[1, 6]",0.0,0.0,0.19835615158081055,1.9318439960479736,0.7340781979239983,0.0,5.0,0.0
R,U,"[2, 6]",-3.0,0.0,0.18698501586914062,1.7706608772277832,0.5881329215507476,0.0,6.0,0.0
R,U,"[1, 6]",0.0,0.0,0.17031002044677734,1.7935879230499268,0.6315178511869768,0.0,7.0,0.0
R,U,"[2, 6]",-3.0,0.0,0.22536301612854004,1.9447200298309326,0.7093417312588994,0.0,8.0,0.0
R,U,"[1, 6]",0.0,0.0,0.23597121238708496,1.6241090297698975,0.40033087264122835,0.0,9.0,0.0
R,U,"[2, 6]",-3.0,0.0,0.32074618339538574,1.8848938941955566,0.5682363816765998,0.0,10.0,0.0
,,"(6, 6)",,,,,,,,
Y,R,"[6, 7]",0.0,0.0,0.5397870540618896,5.699059009552002,0.7000524346304311,1.0,11.0,0.0
Y,R,"[6, 8]",1.0,1.0,0.27730488777160645,1.773622989654541,0.49045331754165905,1.0,12.0,0.0
Y,R,"[6, 9]",1.0,2.0,0.329571008682251,1.6113150119781494,0.28512364944993984,1.0,13.0,0.0
Y,R,"[6, 10]",1.0,3.0,0.27684712409973145,1.5338959693908691,0.2521939535895338,1.0,14.0,0.0
Y,R,"[6, 11]",0.0,3.0,0.22476506233215332,1.8396899700164795,0.6082489076548536,1.0,15.0,0.0
Y,R,"[6, 10]",-3.0,3.0,0.1892390251159668,1.7259819507598877,0.5341301045134144,1.0,16.0,0.0
Y,R,"[6, 11]",0.0,3.0,0.1969010829925537,1.9125981330871582,0.7130984044711766,1.0,17.0,0.0
Y,R,"[6, 10]",-1.0,3.0,0.09022021293640137,5.858997106552124,0.6716693405764967,1.0,18.0,0.0
Y,R,"[6, 11]",0.0,3.0,0.31126904487609863,1.9805951118469238,0.6687661852566299,1.0,19.0,0.0
Y,R,"[6, 10]",-3.0,3.0,0.2158350944519043,1.6805469989776611,0.4659878414097189,1.0,20.0,0.0
,,"(6, 6)",,,,,,,,
G,D,"[7, 6]",0.0,0.0,0.5998609066009521,3.438149929046631,0.3873804608605308,2.0,21.0,0.0
G,D,"[8, 6]",0.0,0.0,0.30711889266967773,1.9668378829956055,0.6538204515772634,2.0,22.0,0.0
Y,R,"[8, 7]",0.0,0.0,0.22460412979125977,1.6371769905090332,0.4077369853975373,2.0,23.0,0.0
Y,R,"[8, 8]",0.0,0.0,0.20814108848571777,1.701233148574829,0.49211243698465035,2.0,24.0,0.0
Y,R,"[8, 9]",0.0,0.0,0.21808385848999023,1.529120922088623,0.3212984869469495,2.0,25.0,0.0
Y,R,"[8, 10]",0.0,0.0,0.2977609634399414,1.739940881729126,0.4443441424514797,2.0,26.0,0.0
Y,R,"[8, 11]",0.0,0.0,0.20170283317565918,1.789457082748413,0.6001422391914781,2.0,27.0,0.0
Y,R,"[8, 10]",-3.0,0.0,0.21644020080566406,1.9443819522857666,0.7275663522032141,2.0,28.0,0.0
Y,R,"[8, 11]",0.0,0.0,0.31999707221984863,1.9776709079742432,0.6719850753356621,2.0,29.0,0.0
Y,R,"[8, 10]",-3.0,0.0,0.3356449604034424,1.9223551750183105,0.5951293096600703,2.0,30.0,0.0
,,"(6, 6)",,,,,,,,
B,L,"[6, 5]",0.0,0.0,0.27922511100769043,3.981739044189453,0.4103657517461806,3.0,31.0,0.0
Y,R,"[6, 6]",0.0,0.0,0.2966630458831787,1.8825018405914307,0.5928312126821667,3.0,32.0,0.0
Y,R,"[6, 7]",0.0,0.0,0.2462000846862793,1.6161439418792725,0.3760403199566593,3.0,33.0,0.0
Y,R,"[6, 8]",1.0,1.0,0.26656103134155273,1.9307150840759277,0.6731762345409831,3.0,34.0,0.0
Y,R,"[6, 9]",1.0,2.0,0.16428804397583008,1.4466540813446045,0.28712314398763694,3.0,35.0,0.0
Y,R,"[6, 10]",1.0,3.0,0.3182029724121094,1.7505378723144531,0.4376304347377407,3.0,36.0,0.0
Y,R,"[6, 11]",0.0,3.0,0.27621006965637207,1.7016398906707764,0.4229239035568357,3.0,37.0,0.0
Y,R,"[6, 10]",-3.0,3.0,0.23331713676452637,1.8244078159332275,0.5971421443679523,3.0,38.0,0.0
Y,R,"[6, 11]",0.0,3.0,0.24084901809692383,1.509049892425537,0.2566402980516738,3.0,39.0,0.0
Y,R,"[6, 10]",-3.0,3.0,0.3028841018676758,1.7618889808654785,0.4684949057835163,3.0,40.0,0.0
,,"(6, 6)",,,,,,,,
R,U,"[5, 6]",1.0,1.0,0.4478759765625,3.757749080657959,0.47649909132234497,4.0,41.0,0.0
Y,R,"[5, 7]",1.0,2.0,0.215162992477417,1.5724759101867676,0.3658779824299985,4.0,42.0,0.0
Y,R,"[5, 8]",1.0,3.0,0.2017669677734375,1.6714179515838623,0.4706344144761761,4.0,43.0,0.0
Y,R,"[5, 9]",0.0,3.0,0.2611219882965088,1.7797949314117432,0.5171174134018968,4.0,44.0,0.0
Y,R,"[5, 10]",1.0,4.0,0.20276308059692383,1.6173648834228516,0.4181805637933233,4.0,45.0,0.0
Y,R,"[5, 11]",0.0,4.0,0.16206812858581543,1.8639121055603027,0.6985720070941123,4.0,46.0,0.0
Y,R,"[5, 10]",-3.0,4.0,0.14847493171691895,1.8258991241455078,0.6745232165787974,4.0,47.0,0.0
Y,R,"[5, 11]",0.0,4.0,0.16094303131103516,1.5328609943389893,0.37443212635602746,4.0,48.0,0.0
Y,R,"[5, 10]",-3.0,4.0,0.29953598976135254,1.7379732131958008,0.4457433508262021,4.0,49.0,0.0
Y,R,"[5, 11]",0.0,4.0,0.2003779411315918,1.478982925415039,0.27502430367221586,4.0,50.0,0.0
,,"(6, 6)",,,,,,,,
R,U,"[5, 6]",1.0,1.0,0.46797895431518555,3.0235748291015625,0.38202828800858557,5.0,51.0,0.0
Y,R,"[5, 7]",1.0,2.0,0.22026610374450684,1.689159870147705,0.47117655279756077,5.0,52.0,0.0
Y,R,"[5, 8]",1.0,3.0,0.218858003616333,1.4899709224700928,0.2779960482917702,5.0,53.0,0.0
G,D,"[6, 8]",1.0,4.0,0.3502349853515625,1.7614850997924805,0.4228076790962002,5.0,54.0,0.0
B,L,"[6, 7]",0.0,4.0,0.3149299621582031,1.8459079265594482,0.5354039787289189,5.0,55.0,0.0
Y,R,"[6, 8]",0.0,4.0,0.654994010925293,2.029269218444824,0.38149725717805905,5.0,56.0,0.0
Y,R,"[6, 9]",1.0,5.0,0.24869608879089355,1.5337879657745361,0.282214509470018,5.0,57.0,0.0
Y,R,"[6, 10]",1.0,6.0,0.28581905364990234,1.6311161518096924,0.34667231642086305,5.0,58.0,0.0
Y,R,"[6, 11]",0.0,6.0,0.28592896461486816,1.6471781730651855,0.3605595553817457,5.0,59.0,0.0
Y,R,"[6, 10]",-3.0,6.0,0.23448705673217773,1.760749101638794,0.5378721854857436,5.0,60.0,0.0
,,"(6, 6)",,,,,,,,
R,U,"[5, 6]",1.0,1.0,0.32063889503479004,3.2236640453338623,0.6282691141123122,6.0,61.0,0.0
Y,R,"[5, 7]",1.0,2.0,0.17290306091308594,1.7037999629974365,0.5322393450163339,6.0,62.0,0.0
Y,R,"[5, 8]",1.0,3.0,0.18552398681640625,1.8388640880584717,0.6542943533183718,6.0,63.0,0.0
G,D,"[6, 8]",1.0,4.0,0.19996094703674316,1.6296849250793457,0.4343103102768201,6.0,64.0,0.0
R,U,"[5, 8]",0.0,4.0,0.23586416244506836,1.9454400539398193,0.7128812455412447,6.0,65.0,0.0
R,U,"[4, 8]",0.0,4.0,0.22283387184143066,1.508188009262085,0.2714774117788073,6.0,66.0,0.0
R,U,"[3, 8]",0.0,4.0,0.22370004653930664,1.7123639583587646,0.48381338016370506,6.0,67.0,0.0
R,U,"[2, 8]",0.0,4.0,0.19537115097045898,1.63230299949646,0.4328657167370752,6.0,68.0,0.0
R,U,"[1, 8]",0.0,4.0,0.2097949981689453,1.8934330940246582,0.6761108971252953,6.0,69.0,0.0
R,U,"[2, 8]",-3.0,4.0,0.21546101570129395,1.707387924194336,0.5004100066560498,6.0,70.0,0.0
,,"(6, 6)",,,,,,,,
R,U,"[5, 6]",1.0,1.0,0.30278515815734863,3.1936988830566406,0.6606534482105522,7.0,71.0,0.0
Y,R,"[5, 7]",1.0,2.0,0.1664409637451172,1.6816890239715576,0.5258815457436425,7.0,72.0,0.0
Y,R,"[5, 8]",1.0,3.0,0.203322172164917,1.8778340816497803,0.6869203691333526,7.0,73.0,0.0
G,D,"[6, 8]",1.0,4.0,0.21473407745361328,1.48203706741333,0.26943195264882563,7.0,74.0,0.0
Y,R,"[6, 9]",1.0,5.0,0.3073570728302002,1.6605198383331299,0.34657469062826646,7.0,75.0,0.0
Y,R,"[6, 10]",1.0,6.0,0.2677168846130371,1.8210179805755615,0.5507686626590567,7.0,76.0,0.0
R,U,"[5, 10]",1.0,7.0,0.22704315185546875,1.9042861461639404,0.6716203253578259,7.0,77.0,0.0
R,U,"[4, 10]",1.0,8.0,0.18405699729919434,1.4614100456237793,0.2834654770373753,7.0,78.0,0.0
B,L,"[4, 9]",1.0,9.0,0.35637807846069336,1.6885771751403809,0.32209481189132905,7.0,79.0,0.0
R,U,"[3, 9]",1.0,10.0,0.2779569625854492,1.7994580268859863,0.5212304267578228,7.0,80.0,0.0
,,"(6, 6)",,,,,,,,
R,U,"[5, 6]",1.0,1.0,0.294921875,4.311609983444214,0.6994714977362022,8.0,81.0,0.0
Y,R,"[5, 7]",1.0,2.0,0.1722850799560547,1.5818250179290771,0.39822093845134277,8.0,82.0,0.0
Y,R,"[5, 8]",1.0,3.0,0.2568950653076172,1.951422929763794,0.6827920077529683,8.0,83.0,0.0
G,D,"[6, 8]",1.0,4.0,0.19992899894714355,1.8574631214141846,0.6570652792991221,8.0,84.0,0.0
B,L,"[6, 7]",0.0,4.0,0.21691203117370605,1.5086889266967773,0.2994119367181304,8.0,85.0,0.0
Y,R,"[6, 8]",-2.0,4.0,1.065349817276001,2.6305160522460938,0.5796472136766815,8.0,86.0,0.0
R,U,"[5, 8]",0.0,4.0,0.3979818820953369,2.077415943145752,0.6736444001568196,8.0,87.0,0.0
R,U,"[4, 8]",0.0,4.0,0.40139293670654297,1.7059199810028076,0.313206523083308,8.0,88.0,0.0
B,L,"[4, 7]",0.0,4.0,0.3025639057159424,1.90602707862854,0.6023782711476464,8.0,89.0,0.0
R,U,"[3, 7]",0.0,4.0,0.20354485511779785,1.8972680568695068,0.6995841771563842,8.0,90.0,0.0
,,"(6, 6)",,,,,,,,
R,U,"[5, 6]",1.0,1.0,0.41555213928222656,3.1207871437072754,0.2873286552245056,9.0,91.0,0.0
Y,R,"[5, 7]",1.0,2.0,0.22379112243652344,1.9384009838104248,0.7087594250498452,9.0,92.0,0.0
Y,R,"[5, 8]",1.0,3.0,0.17669010162353516,1.7325549125671387,0.5581521471535953,9.0,93.0,0.0
G,D,"[6, 8]",1.0,4.0,0.21711015701293945,1.517747163772583,0.30943791982351404,9.0,94.0,0.0
B,L,"[6, 7]",0.0,4.0,0.291593074798584,1.7406260967254639,0.44995799951976945,9.0,95.0,0.0
G,D,"[7, 7]",0.0,4.0,0.3394749164581299,1.8189101219177246,0.46873644599739184,9.0,96.0,0.0
G,D,"[8, 7]",0.0,4.0,0.19375991821289062,1.5963380336761475,0.39857143270398826,9.0,97.0,0.0
G,D,"[9, 7]",0.0,4.0,0.24380207061767578,1.6944100856781006,0.4429511776285681,9.0,98.0,0.0
G,D,"[10, 7]",0.0,4.0,0.20337605476379395,1.7180211544036865,0.527534653823311,9.0,99.0,0.0
G,D,"[11, 7]",0.0,4.0,0.1896669864654541,1.7568671703338623,0.56766235054914,9.0,100.0,0.0
,,"(6, 6)",,,,,,,,
R,U,"[5, 6]",1.0,1.0,0.28763413429260254,3.0091660022735596,0.593480275513333,10.0,101.0,0.0
Y,R,"[5, 7]",1.0,2.0,0.2010660171508789,1.7666301727294922,0.5768011715355534,10.0,102.0,0.0
Y,R,"[5, 8]",1.0,3.0,0.22039008140563965,1.621453046798706,0.4150517103475777,10.0,103.0,0.0
G,D,"[6, 8]",1.0,4.0,0.33103179931640625,1.6873409748077393,0.3524673670589134,10.0,104.0,0.0
Y,R,"[6, 9]",1.0,5.0,0.31365299224853516,1.6525299549102783,0.3383287209000247,10.0,105.0,0.0
Y,R,"[6, 10]",1.0,6.0,0.2626490592956543,1.84413480758667,0.5822220442955705,10.0,106.0,0.0
R,U,"[5, 10]",1.0,7.0,0.20069503784179688,1.5233900547027588,0.3224389318591244,10.0,107.0,0.0
R,U,"[4, 10]",1.0,8.0,0.26026415824890137,1.5512120723724365,0.2903883160673683,10.0,108.0,0.0
G,D,"[5, 10]",0.0,8.0,0.9459638595581055,2.257219076156616,0.31435212805297263,10.0,109.0,0.0
R,U,"[4, 10]",0.0,8.0,0.2432880401611328,1.5426161289215088,0.2902037185610715,10.0,110.0,0.0
,,"(6, 6)",,,,,,,,
R,U,"[5, 6]",1.0,1.0,0.6476180553436279,3.2837231159210205,0.42384067274005793,11.0,111.0,0.0
Y,R,"[5, 7]",1.0,2.0,0.20654702186584473,1.4847609996795654,0.2919868685504802,11.0,112.0,0.0
Y,R,"[5, 8]",1.0,3.0,0.24317598342895508,1.9399328231811523,0.6981285077580537,11.0,113.0,0.0
G,D,"[6, 8]",1.0,4.0,0.190201997756958,1.574873924255371,0.37329550990592897,11.0,114.0,0.0
Y,R,"[6, 9]",1.0,5.0,0.20630693435668945,1.9004361629486084,0.7065385910256764,11.0,115.0,0.0
Y,R,"[6, 10]",1.0,6.0,0.15808391571044922,1.544964075088501,0.38534450687098726,11.0,116.0,0.0
R,U,"[5, 10]",1.0,7.0,0.2485342025756836,1.836082935333252,0.5877929058646629,11.0,117.0,0.0
R,U,"[4, 10]",1.0,8.0,0.17200112342834473,1.7248790264129639,0.5460580327269471,11.0,118.0,0.0
B,L,"[4, 9]",1.0,9.0,0.20878005027770996,1.5059690475463867,0.28557146173223563,11.0,119.0,0.0
R,U,"[3, 9]",1.0,10.0,0.21577095985412598,1.84381103515625,0.6290408820305129,11.0,120.0,0.0
,,"(6, 6)",,,,,,,,
R,U,"[5, 6]",1.0,1.0,0.283613920211792,2.9050111770629883,0.6673439588602817,12.0,121.0,0.0
Y,R,"[5, 7]",1.0,2.0,0.17676496505737305,1.6075429916381836,0.4250810041949485,12.0,122.0,0.0
Y,R,"[5, 8]",1.0,3.0,0.20874905586242676,1.6865739822387695,0.4781166620984937,12.0,123.0,0.0
G,D,"[6, 8]",1.0,4.0,0.20644903182983398,1.6946461200714111,0.489412079481045,12.0,124.0,0.0
Y,R,"[6, 9]",1.0,5.0,0.2875640392303467,2.0219531059265137,0.7444989692796562,12.0,125.0,0.0
Y,R,"[6, 10]",1.0,6.0,0.17369890213012695,1.8526060581207275,0.6804560708030805,12.0,126.0,0.0
R,U,"[5, 10]",1.0,7.0,0.18807101249694824,1.6784889698028564,0.47574010914290565,12.0,127.0,0.0
R,U,"[4, 10]",1.0,8.0,0.21137213706970215,1.5236690044403076,0.3161585562274704,12.0,128.0,0.0
B,L,"[4, 9]",1.0,9.0,0.30053091049194336,1.70676589012146,0.4062365961166348,12.0,129.0,0.0
R,U,"[3, 9]",1.0,10.0,0.19303202629089355,1.7531049251556396,0.559135657010595,12.0,130.0,0.0
,,"(6, 6)",,,,,,,,
R,U,"[5, 6]",1.0,1.0,0.42873597145080566,2.7016069889068604,0.5606940758091434,13.0,131.0,0.0
Y,R,"[5, 7]",1.0,2.0,0.19998717308044434,1.6049060821533203,0.4156421254879647,13.0,132.0,0.0
Y,R,"[5, 8]",1.0,3.0,0.2104167938232422,1.496143102645874,0.2784839869101353,13.0,133.0,0.0
G,D,"[6, 8]",1.0,4.0,0.24994111061096191,1.6668519973754883,0.4285617628491414,13.0,134.0,0.0
Y,R,"[6, 9]",1.0,5.0,0.13791298866271973,1.8578670024871826,0.7360907351729001,13.0,135.0,0.0
Y,R,"[6, 10]",-1.0,5.0,0.01394796371459961,5.801424980163574,0.7206541723006039,13.0,136.0,0.0
R,U,"[5, 10]",1.0,6.0,0.31170105934143066,1.6922409534454346,0.3797956317675141,13.0,137.0,0.0
R,U,"[4, 10]",1.0,7.0,0.2307281494140625,1.8316478729248047,0.594543524366918,13.0,138.0,0.0
B,L,"[4, 9]",1.0,8.0,0.19990801811218262,1.4920530319213867,0.3035844209926347,13.0,139.0,0.0
R,U,"[3, 9]",1.0,9.0,0.20302295684814453,1.819936990737915,0.6231852134149642,13.0,140.0,0.0
,,"(6, 6)",,,,,,,,
R,U,"[5, 6]",1.0,1.0,0.2772681713104248,2.371783971786499,0.29514566818609383,14.0,141.0,0.0
Y,R,"[5, 7]",1.0,2.0,0.21260714530944824,1.60801100730896,0.4030131928793906,14.0,142.0,0.0
Y,R,"[5, 8]",1.0,3.0,0.24082303047180176,1.7004661560058594,0.45343625330790066,14.0,143.0,0.0
G,D,"[6, 8]",1.0,4.0,0.18784093856811523,1.4801750183105469,0.28374526708819375,14.0,144.0,0.0
Y,R,"[6, 9]",1.0,5.0,0.6186859607696533,2.048712968826294,0.43225250524196707,14.0,145.0,0.0
Y,R,"[6, 10]",1.0,6.0,0.21750283241271973,1.5039098262786865,0.2862618477472875,14.0,146.0,0.0
R,U,"[5, 10]",1.0,7.0,0.21361398696899414,1.7634351253509521,0.5494005561922758,14.0,147.0,0.0
R,U,"[4, 10]",1.0,8.0,0.17778301239013672,1.7806789875030518,0.5966110114149628,14.0,148.0,0.0
B,L,"[4, 9]",1.0,9.0,0.21337103843688965,1.7915160655975342,0.5714604254343629,14.0,149.0,0.0
R,U,"[3, 9]",-2.0,9.0,1.4506449699401855,3.0781359672546387,0.6660235001533085,14.0,150.0,0.0
,,"(6, 6)",,,,,,,,
R,U,"[5, 6]",1.0,1.0,0.635422945022583,3.352165937423706,0.36842866119557344,15.0,151.0,0.0
Y,R,"[5, 7]",1.0,2.0,0.22166800498962402,1.5262808799743652,0.2947406599868439,15.0,152.0,0.0
Y,R,"[5, 8]",1.0,3.0,0.2553830146789551,1.9553258419036865,0.699615618843368,15.0,153.0,0.0
G,D,"[6, 8]",1.0,4.0,0.16737794876098633,1.730334997177124,0.5631961028594685,15.0,154.0,0.0
Y,R,"[6, 9]",1.0,5.0,0.18601512908935547,1.5601191520690918,0.37354700790078615,15.0,155.0,0.0
Y,R,"[6, 10]",1.0,6.0,0.19741392135620117,1.6590280532836914,0.46568876235398426,15.0,156.0,0.0
R,U,"[5, 10]",1.0,7.0,0.2172870635986328,1.536910057067871,0.31946952484643903,15.0,157.0,0.0
R,U,"[4, 10]",1.0,8.0,0.20003104209899902,1.4497418403625488,0.2525273559555304,15.0,158.0,0.0
B,L,"[4, 9]",1.0,9.0,0.29792094230651855,2.029470920562744,0.731468033682094,15.0,159.0,0.0
R,U,"[3, 9]",1.0,10.0,0.18259000778198242,1.7559609413146973,0.5708892462513587,15.0,160.0,0.0
,,"(6, 6)",,,,,,,,
R,U,"[5, 6]",1.0,1.0,0.22934198379516602,2.9325361251831055,0.43668719894681834,16.0,161.0,0.0
Y,R,"[5, 7]",1.0,2.0,0.5873138904571533,1.8770430088043213,0.2970881619428518,16.0,162.0,0.0
Y,R,"[5, 8]",1.0,3.0,0.27768611907958984,1.5543549060821533,0.2680938519174259,16.0,163.0,0.0
G,D,"[6, 8]",1.0,4.0,0.3289051055908203,1.598418951034546,0.2665642174733616,16.0,164.0,0.0
Y,R,"[6, 9]",1.0,5.0,0.24388909339904785,1.5476691722869873,0.297345112395134,16.0,165.0,0.0
Y,R,"[6, 10]",1.0,6.0,0.21085405349731445,1.8536529541015625,0.6340855976435397,16.0,166.0,0.0
R,U,"[5, 10]",-1.0,6.0,0.050306081771850586,5.58727502822876,0.4711766965929907,16.0,167.0,0.0
R,U,"[4, 10]",1.0,7.0,0.30327391624450684,2.0159640312194824,0.720519385982274,16.0,168.0,0.0
B,L,"[4, 9]",1.0,8.0,0.23789405822753906,1.762584924697876,0.516308350131067,16.0,169.0,0.0
R,U,"[3, 9]",1.0,9.0,0.7940769195556641,2.197144031524658,0.3968510224730718,16.0,170.0,0.0
,,"(6, 6)",,,,,,,,
R,U,"[5, 6]",1.0,1.0,0.31091904640197754,2.5014970302581787,0.4481625111468091,17.0,171.0,0.0
Y,R,"[5, 7]",1.0,2.0,0.3940749168395996,1.8225879669189453,0.4207153860412586,17.0,172.0,0.0
Y,R,"[5, 8]",1.0,3.0,0.2004530429840088,1.4873859882354736,0.29148368538572483,17.0,173.0,0.0
G,D,"[6, 8]",1.0,4.0,0.2710740566253662,1.8297669887542725,0.5709369602587437,17.0,174.0,0.0
R,U,"[5, 8]",0.0,4.0,0.2738192081451416,2.012824058532715,0.7338733623169105,17.0,175.0,0.0
Y,R,"[5, 9]",0.0,4.0,0.21072697639465332,1.5872199535369873,0.37091965504976177,17.0,176.0,0.0
R,U,"[4, 9]",1.0,5.0,0.1957399845123291,1.5181589126586914,0.32246521863580574,17.0,177.0,0.0
R,U,"[3, 9]",1.0,6.0,0.19905400276184082,1.852513074874878,0.657966039281833,17.0,178.0,0.0
B,L,"[3, 8]",0.0,6.0,0.16732311248779297,1.4451959133148193,0.2867891347853224,17.0,179.0,0.0
R,U,"[2, 8]",0.0,6.0,0.19647717475891113,1.4581291675567627,0.26153560897357087,17.0,180.0,0.0
,,"(6, 6)",,,,,,,,
R,U,"[5, 6]",1.0,1.0,0.19613194465637207,2.7772581577301025,0.25538778475187884,18.0,181.0,0.0
Y,R,"[5, 7]",1.0,2.0,0.32961606979370117,2.0652830600738525,0.7366700214457393,18.0,182.0,0.0
Y,R,"[5, 8]",1.0,3.0,0.1670231819152832,1.49409818649292,0.33113320665689283,18.0,183.0,0.0
G,D,"[6, 8]",1.0,4.0,0.23699283599853516,1.6755290031433105,0.43982788054947247,18.0,184.0,0.0
Y,R,"[6, 9]",1.0,5.0,0.19761013984680176,1.4522480964660645,0.25889583763571017,18.0,185.0,0.0
Y,R,"[6, 10]",1.0,6.0,0.30224180221557617,1.7851409912109375,0.49371817730570033,18.0,186.0,0.0
R,U,"[5, 10]",1.0,7.0,0.17892193794250488,1.8952949047088623,0.7220176492315368,18.0,187.0,0.0
R,U,"[4, 10]",1.0,8.0,0.15601301193237305,1.6642329692840576,0.5199415168105381,18.0,188.0,0.0
B,L,"[4, 9]",1.0,9.0,0.18719196319580078,1.6497390270233154,0.4694142283303497,18.0,189.0,0.0
R,U,"[3, 9]",1.0,10.0,0.19121313095092773,1.6696419715881348,0.4723597576290289,18.0,190.0,0.0
,,"(6, 6)",,,,,,,,
R,U,"[5, 6]",1.0,1.0,0.24188899993896484,2.058053970336914,0.3470501902483419,19.0,191.0,0.0
Y,R,"[5, 7]",1.0,2.0,0.19583892822265625,1.8268589973449707,0.62402642984314,19.0,192.0,0.0
Y,R,"[5, 8]",1.0,3.0,0.21024203300476074,1.9132919311523438,0.7034011231543429,19.0,193.0,0.0
G,D,"[6, 8]",1.0,4.0,0.1284961700439453,1.703660011291504,0.573689277265977,19.0,194.0,0.0
Y,R,"[6, 9]",1.0,5.0,0.1630570888519287,1.4619181156158447,0.3025928712437257,19.0,195.0,0.0
Y,R,"[6, 10]",1.0,6.0,0.22322893142700195,1.6981439590454102,0.4671185629243858,19.0,196.0,0.0
R,U,"[5, 10]",1.0,7.0,0.18184399604797363,1.7242529392242432,0.5415186515834621,19.0,197.0,0.0
R,U,"[4, 10]",1.0,8.0,0.19313406944274902,1.7850618362426758,0.5927750460795849,19.0,198.0,0.0
B,L,"[4, 9]",1.0,9.0,0.1968228816986084,1.4721410274505615,0.2818817773479602,19.0,199.0,0.0
R,U,"[3, 9]",1.0,10.0,0.21952104568481445,1.8771250247955322,0.6589947464300113,19.0,200.0,0.0
,,"(6, 6)",,,,,,,,
R,U,"[5, 6]",1.0,1.0,0.23531293869018555,2.169437885284424,0.4780453523530278,20.0,201.0,0.0
Y,R,"[5, 7]",1.0,2.0,0.275087833404541,1.9690349102020264,0.6967378588602667,20.0,202.0,0.0
Y,R,"[5, 8]",1.0,3.0,0.21075105667114258,1.900141954421997,0.680121127413031,20.0,203.0,0.0
G,D,"[6, 8]",1.0,4.0,0.17227602005004883,1.716886043548584,0.5471376370467562,20.0,204.0,0.0
R,U,"[5, 8]",0.0,4.0,0.18102192878723145,1.702570915222168,0.5163124614917252,20.0,205.0,0.0
Y,R,"[5, 9]",0.0,4.0,0.2390451431274414,1.6709299087524414,0.42050404220449916,20.0,206.0,0.0
R,U,"[4, 9]",1.0,5.0,0.2673659324645996,1.9049510955810547,0.6419405532015969,20.0,207.0,0.0
R,U,"[3, 9]",1.0,6.0,0.1436140537261963,1.8249781131744385,0.6834069531864011,20.0,208.0,0.0
B,L,"[3, 8]",0.0,6.0,0.1910240650177002,1.7772998809814453,0.577476687605368,20.0,209.0,0.0
R,U,"[2, 8]",0.0,6.0,0.19836807250976562,1.7196321487426758,0.5302779278002143,20.0,210.0,0.0
,,"(6, 6)",,,,,,,,
R,U,"[5, 6]",1.0,1.0,0.6345481872558594,2.8454430103302,0.5090670789469338,21.0,211.0,0.0
Y,R,"[5, 7]",1.0,2.0,0.19760894775390625,1.4776358604431152,0.28680325323045136,21.0,212.0,0.0
Y,R,"[5, 8]",1.0,3.0,0.29731202125549316,1.7681078910827637,0.4713115861179792,21.0,213.0,0.0
G,D,"[6, 8]",1.0,4.0,0.2322390079498291,1.8841898441314697,0.6554839515650194,21.0,214.0,0.0
Y,R,"[6, 9]",1.0,5.0,0.12721991539001465,1.8006970882415771,0.6725004014433544,21.0,215.0,0.0
Y,R,"[6, 10]",1.0,6.0,0.16524696350097656,1.483583927154541,0.32300707838950743,21.0,216.0,0.0
G,D,"[7, 10]",0.0,6.0,0.3219270706176758,1.6924149990081787,0.38200565724156127,21.0,217.0,0.0
R,U,"[6, 10]",0.0,6.0,0.20290493965148926,1.8564331531524658,0.6550928347615753,21.0,218.0,0.0
B,L,"[6, 9]",0.0,6.0,0.18990206718444824,1.9233760833740234,0.7279195184509104,21.0,219.0,0.0
R,U,"[5, 9]",0.0,6.0,0.14021706581115723,1.8461151123046875,0.7073399575907597,21.0,220.0,0.0
,,"(6, 6)",,,,,,,,
R,U,"[5, 6]",1.0,1.0,0.6626639366149902,2.681762933731079,0.6556738497024989,22.0,221.0,0.0
Y,R,"[5, 7]",1.0,2.0,0.19311213493347168,1.707629919052124,0.5132066813513418,22.0,222.0,0.0
Y,R,"[5, 8]",1.0,3.0,0.1941699981689453,1.7417879104614258,0.5383236667220516,22.0,223.0,0.0
G,D,"[6, 8]",1.0,4.0,0.19600510597229004,1.8059718608856201,0.6106823575742766,22.0,224.0,0.0
Y,R,"[6, 9]",1.0,5.0,0.17177605628967285,1.768244981765747,0.5956515201540366,22.0,225.0,0.0
Y,R,"[6, 10]",1.0,6.0,0.16891813278198242,1.7972469329833984,0.6261547717296714,22.0,226.0,0.0
R,U,"[5, 10]",1.0,7.0,0.1981339454650879,1.7494299411773682,0.5588511634264552,22.0,227.0,0.0
R,U,"[4, 10]",1.0,8.0,0.18709683418273926,1.8197247982025146,0.6450447012679054,22.0,228.0,0.0
B,L,"[4, 9]",1.0,9.0,0.20396685600280762,1.5827429294586182,0.3946549090499362,22.0,229.0,0.0
R,U,"[3, 9]",1.0,10.0,0.22065496444702148,1.5150699615478516,0.30974911830026114,22.0,230.0,0.0
,,"(6, 6)",,,,,,,,
R,U,"[5, 6]",1.0,1.0,0.2308509349822998,2.1249799728393555,0.28459870135093246,23.0,231.0,0.0
Y,R,"[5, 7]",1.0,2.0,0.34106993675231934,1.6619598865509033,0.3131447734458264,23.0,232.0,0.0
Y,R,"[5, 8]",1.0,3.0,0.28040313720703125,1.977876901626587,0.6908654393894671,23.0,233.0,0.0
G,D,"[6, 8]",1.0,4.0,0.1607069969177246,1.8874928951263428,0.7278552381189752,23.0,234.0,0.0
Y,R,"[6, 9]",1.0,5.0,0.1013498306274414,1.4661920070648193,0.37763950770655186,23.0,235.0,0.0
Y,R,"[6, 10]",1.0,6.0,0.2216780185699463,1.467782974243164,0.2622119610096279,23.0,236.0,0.0
R,U,"[5, 10]",1.0,7.0,0.2406141757965088,1.637342929840088,0.3826844459266638,23.0,237.0,0.0
R,U,"[4, 10]",1.0,8.0,0.18902993202209473,1.5936779975891113,0.3928289703825054,23.0,238.0,0.0
B,L,"[4, 9]",1.0,9.0,0.2496659755706787,1.9261291027069092,0.6852454524179732,23.0,239.0,0.0
R,U,"[3, 9]",-1.0,9.0,0.05394291877746582,5.6445019245147705,0.5297084367533926,23.0,240.0,0.0
,,"(6, 6)",,,,,,,,
R,U,"[5, 6]",1.0,1.0,0.2717318534851074,2.462930917739868,0.5758476280138611,24.0,241.0,0.0
Y,R,"[5, 7]",1.0,2.0,0.17334485054016113,1.871222972869873,0.7133435886585027,24.0,242.0,0.0
Y,R,"[5, 8]",1.0,3.0,0.1930999755859375,1.4657909870147705,0.26286942477358116,24.0,243.0,0.0
G,D,"[6, 8]",1.0,4.0,0.28325891494750977,1.580061912536621,0.29292255471266443,24.0,244.0,0.0
Y,R,"[6, 9]",1.0,5.0,0.23557209968566895,1.6995692253112793,0.47546017334103724,24.0,245.0,0.0
Y,R,"[6, 10]",1.0,6.0,0.19653582572937012,1.8456950187683105,0.654237845168318,24.0,246.0,0.0
R,U,"[5, 10]",1.0,7.0,0.16718697547912598,1.4914860725402832,0.32933795178268327,24.0,247.0,0.0
R,U,"[4, 10]",1.0,8.0,0.19706201553344727,1.608799934387207,0.4046758088413978,24.0,248.0,0.0
B,L,"[4, 9]",1.0,9.0,0.22176313400268555,1.629215955734253,0.41705658170346527,24.0,249.0,0.0
G,D,"[5, 9]",0.0,9.0,0.2613511085510254,1.872629165649414,0.606070034381593,24.0,250.0,0.0
,,"(6, 6)",,,,,,,,
R,U,"[5, 6]",1.0,1.0,0.2731599807739258,2.9108669757843018,0.6168784103363318,25.0,251.0,0.0
Y,R,"[5, 7]",1.0,2.0,0.182830810546875,1.8712069988250732,0.6879174254926992,25.0,252.0,0.0
Y,R,"[5, 8]",1.0,3.0,0.15975213050842285,1.4602129459381104,0.29841141455516623,25.0,253.0,0.0
G,D,"[6, 8]",1.0,4.0,0.23149991035461426,1.5593879222869873,0.32438006685975124,25.0,254.0,0.0
Y,R,"[6, 9]",1.0,5.0,0.23645520210266113,1.7895879745483398,0.5635414404497239,25.0,255.0,0.0
Y,R,"[6, 10]",1.0,6.0,0.15161609649658203,1.8347158432006836,0.6814388900136314,25.0,256.0,0.0
R,U,"[5, 10]",-1.0,6.0,0.04377007484436035,5.578941822052002,0.4602985623527003,25.0,257.0,0.0
R,U,"[4, 10]",1.0,7.0,0.37042689323425293,1.9961159229278564,0.6395674581061976,25.0,258.0,0.0
G,D,"[5, 10]",0.0,7.0,0.3173799514770508,2.023983955383301,0.7135414640812753,25.0,259.0,0.0
R,U,"[4, 10]",0.0,7.0,0.19004297256469727,1.8162868022918701,0.6129594757282724,25.0,260.0,0.0
,,"(6, 6)",,,,,,,,
R,U,"[5, 6]",1.0,1.0,0.3427560329437256,3.6060359477996826,0.718650820549537,26.0,261.0,0.0
Y,R,"[5, 7]",1.0,2.0,0.20931506156921387,1.652496099472046,0.4380036550926948,26.0,262.0,0.0
Y,R,"[5, 8]",1.0,3.0,0.20314884185791016,1.652580976486206,0.4571784084320149,26.0,263.0,0.0
G,D,"[6, 8]",1.0,4.0,0.19230890274047852,1.6922838687896729,0.49926465166450024,26.0,264.0,0.0
Y,R,"[6, 9]",1.0,5.0,0.18523192405700684,1.9315130710601807,0.747177274134087,26.0,265.0,0.0
Y,R,"[6, 10]",1.0,6.0,0.18218398094177246,1.667846918106079,0.48178631706546265,26.0,266.0,0.0
R,U,"[5, 10]",1.0,7.0,0.24665403366088867,1.7339789867401123,0.4823093682541371,26.0,267.0,0.0
R,U,"[4, 10]",1.0,8.0,0.21090912818908691,1.818960189819336,0.6015051273839673,26.0,268.0,0.0
B,L,"[4, 9]",1.0,9.0,0.201185941696167,1.6741080284118652,0.47530789203820256,26.0,269.0,0.0
R,U,"[3, 9]",1.0,10.0,0.2598400115966797,1.8672058582305908,0.6088018483514036,26.0,270.0,0.0
,,"(6, 6)",,,,,,,,
R,U,"[5, 6]",1.0,1.0,0.5078780651092529,3.580249071121216,0.7220896994623416,27.0,271.0,0.0
Y,R,"[5, 7]",1.0,2.0,0.18147492408752441,1.749910831451416,0.572143363632313,27.0,272.0,0.0
Y,R,"[5, 8]",1.0,3.0,0.23348212242126465,1.717716932296753,0.4898473662003136,27.0,273.0,0.0
G,D,"[6, 8]",1.0,4.0,0.27880096435546875,1.5723679065704346,0.2956550597549878,27.0,274.0,0.0
Y,R,"[6, 9]",1.0,5.0,0.2594621181488037,1.5393879413604736,0.26820206562164856,27.0,275.0,0.0
Y,R,"[6, 10]",1.0,6.0,0.2210688591003418,1.8315320014953613,0.6160884721097248,27.0,276.0,0.0
R,U,"[5, 10]",1.0,7.0,0.20278501510620117,1.7983031272888184,0.5975764080308741,27.0,277.0,0.0
R,U,"[4, 10]",1.0,8.0,0.1308000087738037,1.8089959621429443,0.6731357182929686,27.0,278.0,0.0
B,L,"[4, 9]",1.0,9.0,0.18773508071899414,1.5269408226013184,0.35033637369688336,27.0,279.0,0.0
R,U,"[3, 9]",1.0,10.0,0.20247817039489746,1.7992119789123535,0.5991965475309247,27.0,280.0,0.0
,,"(6, 6)",,,,,,,,
R,U,"[5, 6]",1.0,1.0,0.29703187942504883,2.5547261238098145,0.736966138272872,28.0,281.0,0.0
Y,R,"[5, 7]",1.0,2.0,0.14940690994262695,1.624068021774292,0.4779296738853352,28.0,282.0,0.0
Y,R,"[5, 8]",1.0,3.0,0.19669103622436523,1.6353139877319336,0.4463921339365919,28.0,283.0,0.0
G,D,"[6, 8]",1.0,4.0,0.2532830238342285,1.7483530044555664,0.4946904632618714,28.0,284.0,0.0
Y,R,"[6, 9]",1.0,5.0,0.19234585762023926,1.6678168773651123,0.47908973925277143,28.0,285.0,0.0
Y,R,"[6, 10]",1.0,6.0,0.16744089126586914,1.4523980617523193,0.28160705281972853,28.0,286.0,0.0
R,U,"[5, 10]",1.0,7.0,0.21501994132995605,1.5195200443267822,0.30100953332590097,28.0,287.0,0.0
R,U,"[4, 10]",1.0,8.0,0.19033193588256836,1.515820026397705,0.3167956564864528,28.0,288.0,0.0
B,L,"[4, 9]",1.0,9.0,0.2807281017303467,1.8228991031646729,0.5392910795214598,28.0,289.0,0.0
R,U,"[3, 9]",1.0,10.0,0.17394590377807617,1.8120009899139404,0.6345087282600047,28.0,290.0,0.0
,,"(6, 6)",,,,,,,,
R,U,"[5, 6]",1.0,1.0,0.20344090461730957,2.555759906768799,0.6733925904365758,29.0,291.0,0.0
Y,R,"[5, 7]",1.0,2.0,0.1622319221496582,1.6332988739013672,0.4737479470040916,29.0,292.0,0.0
Y,R,"[5, 8]",1.0,3.0,0.22725200653076172,1.7320020198822021,0.5052805856095546,29.0,293.0,0.0
G,D,"[6, 8]",1.0,4.0,0.19556593894958496,1.6586978435516357,0.4638331908428999,29.0,294.0,0.0
Y,R,"[6, 9]",1.0,5.0,0.19588589668273926,1.6549818515777588,0.45223184632593943,29.0,295.0,0.0
Y,R,"[6, 10]",1.0,6.0,0.18688392639160156,1.7898249626159668,0.6084417857555144,29.0,296.0,0.0
R,U,"[5, 10]",-1.0,6.0,0.06147599220275879,5.5491228103637695,0.4244001451368615,29.0,297.0,0.0
R,U,"[4, 10]",1.0,7.0,0.23360395431518555,1.8887460231781006,0.6628911120196083,29.0,298.0,0.0
B,L,"[4, 9]",1.0,8.0,0.19467687606811523,1.5180749893188477,0.31473136525257106,29.0,299.0,0.0
R,U,"[3, 9]",1.0,9.0,0.23090910911560059,1.912200927734375,0.6764972630275173,29.0,300.0,0.0
,,"(6, 6)",,,,,,,,
R,U,"[5, 6]",1.0,1.0,0.2915308475494385,2.7498929500579834,0.543069577824062,30.0,301.0,0.0
Y,R,"[5, 7]",1.0,2.0,0.22179198265075684,1.7778019905090332,0.5709764978278979,30.0,302.0,0.0
Y,R,"[5, 8]",1.0,3.0,0.18531298637390137,1.7050809860229492,0.5260446502482234,30.0,303.0,0.0
G,D,"[6, 8]",1.0,4.0,0.21645402908325195,1.5186409950256348,0.3115659908362786,30.0,304.0,0.0
Y,R,"[6, 9]",1.0,5.0,0.28974294662475586,1.8951420783996582,0.623285969915329,30.0,305.0,0.0
Y,R,"[6, 10]",1.0,6.0,0.16663789749145508,1.5967679023742676,0.43658455431510385,30.0,306.0,0.0
R,U,"[5, 10]",1.0,7.0,0.23175716400146484,1.5348000526428223,0.3049441097090935,30.0,307.0,0.0
R,U,"[4, 10]",1.0,8.0,0.27995896339416504,1.605794906616211,0.32732781675548406,30.0,308.0,0.0
B,L,"[4, 9]",1.0,9.0,0.2354869842529297,1.9276108741760254,0.7045109971850092,30.0,309.0,0.0
R,U,"[3, 9]",1.0,10.0,0.20301318168640137,1.6991188526153564,0.5038290368680929,30.0,310.0,0.0
,,"(6, 6)",,,,,,,,
R,U,"[5, 6]",1.0,1.0,0.2516977787017822,2.7132599353790283,0.45042275234687473,31.0,311.0,0.0
Y,R,"[5, 7]",1.0,2.0,0.21331095695495605,1.8547778129577637,0.6383163984684175,31.0,312.0,0.0
Y,R,"[5, 8]",1.0,3.0,0.18129801750183105,1.918799877166748,0.7403254193205209,31.0,313.0,0.0
R,U,"[4, 8]",0.0,3.0,0.2316579818725586,1.782787799835205,0.5566723661713269,31.0,314.0,0.0
R,U,"[3, 8]",0.0,3.0,0.20825505256652832,1.5062799453735352,0.29651898843437896,31.0,315.0,0.0
Y,R,"[3, 9]",1.0,4.0,0.5686399936676025,1.8956170082092285,0.32548305714659254,31.0,316.0,0.0
R,U,"[2, 9]",0.0,4.0,0.2934131622314453,2.0181591510772705,0.7268873303118506,31.0,317.0,0.0
R,U,"[1, 9]",0.0,4.0,0.14651012420654297,1.6407489776611328,0.5008560517764056,31.0,318.0,0.0
G,D,"[2, 9]",0.0,4.0,0.20009207725524902,1.6641640663146973,0.4649489493344868,31.0,319.0,0.0
R,U,"[1, 9]",0.0,4.0,0.3222329616546631,2.0277979373931885,0.6926401454596591,31.0,320.0,0.0
,,"(6, 6)",,,,,,,,
R,U,"[5, 6]",1.0,1.0,0.27538299560546875,3.0437870025634766,0.6697408286717179,32.0,321.0,0.0
Y,R,"[5, 7]",1.0,2.0,0.20615720748901367,1.7620611190795898,0.5484644829093466,32.0,322.0,0.0
Y,R,"[5, 8]",1.0,3.0,0.19950199127197266,1.6774179935455322,0.47601985404037933,32.0,323.0,0.0
G,D,"[6, 8]",1.0,4.0,0.25882792472839355,1.7775309085845947,0.5201514004544664,32.0,324.0,0.0
Y,R,"[6, 9]",1.0,5.0,0.21747088432312012,1.5981688499450684,0.38497409874042604,32.0,325.0,0.0
Y,R,"[6, 10]",1.0,6.0,0.20357418060302734,1.6119790077209473,0.4137058482687437,32.0,326.0,0.0
R,U,"[5, 10]",1.0,7.0,0.2188270092010498,1.8116528987884521,0.5918579832885233,32.0,327.0,0.0
R,U,"[4, 10]",1.0,8.0,0.1727900505065918,1.540992021560669,0.3829737185439802,32.0,328.0,0.0
B,L,"[4, 9]",1.0,9.0,0.2588310241699219,1.9693901538848877,0.7020468049372148,32.0,329.0,0.0
R,U,"[3, 9]",1.0,10.0,0.18905186653137207,1.629870891571045,0.43209035108153077,32.0,330.0,0.0
,,"(6, 6)",,,,,,,,
R,U,"[5, 6]",1.0,1.0,0.23092293739318848,2.6794309616088867,0.5280915731988958,33.0,331.0,0.0
Y,R,"[5, 7]",1.0,2.0,0.17708492279052734,1.4986600875854492,0.326988491536473,33.0,332.0,0.0
Y,R,"[5, 8]",1.0,3.0,0.2843461036682129,1.748063087463379,0.47487848119524,33.0,333.0,0.0
G,D,"[6, 8]",1.0,4.0,0.25708508491516113,1.5785279273986816,0.3201568556377663,33.0,334.0,0.0
Y,R,"[6, 9]",1.0,5.0,0.21976017951965332,1.815359115600586,0.6019236116996287,33.0,335.0,0.0
Y,R,"[6, 10]",1.0,6.0,0.16400909423828125,1.4744861125946045,0.3098842005510384,33.0,336.0,0.0
R,U,"[5, 10]",1.0,7.0,0.32733798027038574,1.9204790592193604,0.5967276180032053,33.0,337.0,0.0
R,U,"[4, 10]",1.0,8.0,0.15007591247558594,1.6432619094848633,0.49018237544278764,33.0,338.0,0.0
B,L,"[4, 9]",1.0,9.0,0.2196180820465088,1.8923468589782715,0.6822561197955503,33.0,339.0,0.0
R,U,"[3, 9]",1.0,10.0,0.19162297248840332,1.4984350204467773,0.2976796027950918,33.0,340.0,0.0
,,"(6, 6)",,,,,,,,
R,U,"[5, 6]",1.0,1.0,0.22445106506347656,2.7496891021728516,0.613768527441298,34.0,341.0,0.0
Y,R,"[5, 7]",1.0,2.0,0.21065211296081543,1.6044340133666992,0.3850478460119086,34.0,342.0,0.0
Y,R,"[5, 8]",1.0,3.0,0.26068902015686035,1.8218162059783936,0.5567009134854912,34.0,343.0,0.0
G,D,"[6, 8]",1.0,4.0,0.18619298934936523,1.4344499111175537,0.2580638312428104,34.0,344.0,0.0
Y,R,"[6, 9]",1.0,5.0,0.26252079010009766,1.542145013809204,0.2835149298257475,34.0,345.0,0.0
Y,R,"[6, 10]",1.0,6.0,0.21072602272033691,1.8353800773620605,0.6185485744244299,34.0,346.0,0.0
R,U,"[5, 10]",1.0,7.0,0.16017794609069824,1.565122127532959,0.40048778649053696,34.0,347.0,0.0
R,U,"[4, 10]",1.0,8.0,0.1846010684967041,1.8339569568634033,0.6508468301307142,34.0,348.0,0.0
B,L,"[4, 9]",1.0,9.0,0.11221098899841309,1.5753788948059082,0.45959791553379387,34.0,349.0,0.0
R,U,"[3, 9]",1.0,10.0,0.1554880142211914,1.810027837753296,0.6527409490245558,34.0,350.0,0.0
,,"(6, 6)",,,,,,,,
R,U,"[5, 6]",1.0,1.0,0.3392460346221924,2.1990280151367188,0.33554337129397965,35.0,351.0,0.0
Y,R,"[5, 7]",1.0,2.0,0.203812837600708,1.8158721923828125,0.6180143294065739,35.0,352.0,0.0
Y,R,"[5, 8]",1.0,3.0,0.1842660903930664,1.6119909286499023,0.42986019991947944,35.0,353.0,0.0
G,D,"[6, 8]",1.0,4.0,0.2194979190826416,1.7022109031677246,0.4819114819042637,35.0,354.0,0.0
Y,R,"[6, 9]",1.0,5.0,0.17847299575805664,1.4772510528564453,0.292719412336637,35.0,355.0,0.0
Y,R,"[6, 10]",1.0,6.0,0.19075894355773926,1.6817409992218018,0.4908054894156519,35.0,356.0,0.0
R,U,"[5, 10]",1.0,7.0,0.26160693168640137,1.6787109375,0.4196297399000778,35.0,357.0,0.0
R,U,"[4, 10]",1.0,8.0,0.18029284477233887,1.718338966369629,0.5378669793398965,35.0,358.0,0.0
B,L,"[4, 9]",1.0,9.0,0.17915105819702148,1.6996700763702393,0.5207831989498274,35.0,359.0,0.0
R,U,"[3, 9]",1.0,10.0,0.1985170841217041,1.8344781398773193,0.6384897492389223,35.0,360.0,0.0
,,"(6, 6)",,,,,,,,
R,U,"[5, 6]",1.0,1.0,0.2325429916381836,2.498553991317749,0.3539338090581626,36.0,361.0,0.0
Y,R,"[5, 7]",1.0,2.0,0.1891012191772461,1.7429509162902832,0.5467100259357995,36.0,362.0,0.0
Y,R,"[5, 8]",1.0,3.0,0.14114594459533691,1.772454023361206,0.6189496444378212,36.0,363.0,0.0
G,D,"[6, 8]",1.0,4.0,0.14036798477172852,1.7481310367584229,0.6003275911136741,36.0,364.0,0.0
Y,R,"[6, 9]",-1.0,4.0,0.037750959396362305,5.796351909637451,0.6964992541889437,36.0,365.0,0.0
Y,R,"[6, 10]",1.0,5.0,0.306473970413208,1.6250958442687988,0.3053335543839205,36.0,366.0,0.0
R,U,"[5, 10]",1.0,6.0,0.22475290298461914,1.9423089027404785,0.7138114718740999,36.0,367.0,0.0
R,U,"[4, 10]",1.0,7.0,0.19970107078552246,1.8794238567352295,0.676649699239192,36.0,368.0,0.0
B,L,"[4, 9]",1.0,8.0,0.21095991134643555,1.6900649070739746,0.4835458613805604,36.0,369.0,0.0
R,U,"[3, 9]",1.0,9.0,0.1999821662902832,1.5616579055786133,0.3618087003986542,36.0,370.0,0.0
,,"(6, 6)",,,,,,,,
R,U,"[5, 6]",1.0,1.0,0.36330294609069824,2.9865291118621826,0.6314190780464578,37.0,371.0,0.0
Y,R,"[5, 7]",1.0,2.0,0.18894004821777344,1.8794429302215576,0.6775125936155637,37.0,372.0,0.0
Y,R,"[5, 8]",1.0,3.0,0.17215299606323242,1.753870964050293,0.5814109209392855,37.0,373.0,0.0
G,D,"[6, 8]",1.0,4.0,0.22957992553710938,1.7577879428863525,0.5224977667135116,37.0,374.0,0.0
Y,R,"[6, 9]",1.0,5.0,0.2225182056427002,1.9649360179901123,0.7372612243867274,37.0,375.0,0.0
Y,R,"[6, 10]",1.0,6.0,0.17489194869995117,1.9293489456176758,0.7498720142877011,37.0,376.0,0.0
R,U,"[5, 10]",1.0,7.0,0.12955713272094727,1.5054779052734375,0.37234293123508927,37.0,377.0,0.0
R,U,"[4, 10]",1.0,8.0,0.2315959930419922,1.7655668258666992,0.537692831883196,37.0,378.0,0.0
B,L,"[4, 9]",1.0,9.0,0.22175192832946777,1.8096599578857422,0.5972414076691606,37.0,379.0,0.0
R,U,"[3, 9]",1.0,10.0,0.1931929588317871,1.516998052597046,0.3144622003931425,37.0,380.0,0.0
,,"(6, 6)",,,,,,,,
R,U,"[5, 6]",1.0,1.0,0.38677120208740234,3.0387489795684814,0.5528682405668476,38.0,381.0,0.0
Y,R,"[5, 7]",1.0,2.0,0.19408702850341797,1.8461480140686035,0.6490647513288246,38.0,382.0,0.0
Y,R,"[5, 8]",1.0,3.0,0.23321104049682617,1.938310146331787,0.7038278467905704,38.0,383.0,0.0
G,D,"[6, 8]",1.0,4.0,0.2407221794128418,1.8170249462127686,0.5709136359534936,38.0,384.0,0.0
Y,R,"[6, 9]",1.0,5.0,0.18505501747131348,1.6702778339385986,0.4911433193033481,38.0,385.0,0.0
Y,R,"[6, 10]",1.0,6.0,0.18732094764709473,1.9026520252227783,0.7269114970666455,38.0,386.0,0.0
R,U,"[5, 10]",1.0,7.0,0.17537808418273926,1.5206351280212402,0.34784686131221754,38.0,387.0,0.0
R,U,"[4, 10]",1.0,8.0,0.23502016067504883,1.4940509796142578,0.25865236924250157,38.0,388.0,0.0
B,L,"[4, 9]",1.0,9.0,0.31967592239379883,2.0102829933166504,0.7018169164714283,38.0,389.0,0.0
R,U,"[3, 9]",1.0,10.0,0.18602705001831055,1.484802007675171,0.3035722741726759,38.0,390.0,0.0
,,"(6, 6)",,,,,,,,
R,U,"[5, 6]",1.0,1.0,0.22254610061645508,2.488461971282959,0.3918106527517325,39.0,391.0,0.0
R,U,"[4, 6]",0.0,1.0,0.19031095504760742,1.6811010837554932,0.4895640301741405,39.0,392.0,0.0
G,D,"[5, 6]",0.0,1.0,0.9760010242462158,2.354846954345703,0.37771936581624843,39.0,393.0,0.0
G,D,"[6, 6]",0.0,1.0,0.6530811786651611,2.0322940349578857,0.3933635236077688,39.0,394.0,0.0
Y,R,"[6, 7]",0.0,1.0,0.2106189727783203,1.5526080131530762,0.34591428686992914,39.0,395.0,0.0
Y,R,"[6, 8]",1.0,2.0,0.1979529857635498,1.4697120189666748,0.26567703715582897,39.0,396.0,0.0
R,U,"[5, 8]",1.0,3.0,0.2472820281982422,1.5481491088867188,0.29708554715816277,39.0,397.0,0.0
R,U,"[4, 8]",0.0,3.0,0.22819900512695312,1.5605978965759277,0.32433381586822624,39.0,398.0,0.0
B,L,"[4, 7]",0.0,3.0,0.22028493881225586,1.8927390575408936,0.6833413468280429,39.0,399.0,0.0
R,U,"[3, 7]",0.0,3.0,0.20926308631896973,1.7822940349578857,0.5655482897768181,39.0,400.0,0.0
,,"(6, 6)",,,,,,,,
R,U,"[5, 6]",1.0,1.0,0.25550413131713867,3.0471479892730713,0.39621196222713806,40.0,401.0,0.0
Y,R,"[5, 7]",1.0,2.0,0.21086502075195312,1.492499828338623,0.2721667641986836,40.0,402.0,0.0
Y,R,"[5, 8]",1.0,3.0,0.26378607749938965,1.621716022491455,0.36040575802692393,40.0,403.0,0.0
G,D,"[6, 8]",1.0,4.0,0.21696805953979492,1.6513750553131104,0.44481962053229424,40.0,404.0,0.0
Y,R,"[6, 9]",1.0,5.0,0.3787879943847656,2.0881588459014893,0.7161309975968657,40.0,405.0,0.0
Y,R,"[6, 10]",1.0,6.0,0.17785191535949707,1.448016881942749,0.26453287875973935,40.0,406.0,0.0
R,U,"[5, 10]",1.0,7.0,0.24977803230285645,1.618934154510498,0.3667106456661239,40.0,407.0,0.0
R,U,"[4, 10]",1.0,8.0,0.19113707542419434,1.7054550647735596,0.505267387834035,40.0,408.0,0.0
B,L,"[4, 9]",1.0,9.0,0.18622398376464844,1.8191189765930176,0.6407344733272,40.0,409.0,0.0
R,U,"[3, 9]",1.0,10.0,0.18691182136535645,1.5963008403778076,0.4205501291076908,40.0,410.0,0.0
,,"(6, 6)",,,,,,,,
R,U,"[5, 6]",1.0,1.0,0.17485308647155762,4.144834041595459,0.6983804678966702,41.0,411.0,0.0
Y,R,"[5, 7]",1.0,2.0,0.18041300773620605,1.7572221755981445,0.5723869005874473,41.0,412.0,0.0
Y,R,"[5, 8]",1.0,3.0,0.22544002532958984,1.8964169025421143,0.6691276328673401,41.0,413.0,0.0
G,D,"[6, 8]",1.0,4.0,0.1873788833618164,1.8153729438781738,0.6340235169584763,41.0,414.0,0.0
Y,R,"[6, 9]",1.0,5.0,0.15571093559265137,1.7750141620635986,0.625660587139528,41.0,415.0,0.0
Y,R,"[6, 10]",1.0,6.0,0.18233609199523926,1.4248640537261963,0.2508450082362666,41.0,416.0,0.0
R,U,"[5, 10]",1.0,7.0,0.2366809844970703,1.8077301979064941,0.5748037581049212,41.0,417.0,0.0
R,U,"[4, 10]",1.0,8.0,0.23265409469604492,1.7570350170135498,0.5318887473171696,41.0,418.0,0.0
B,L,"[4, 9]",1.0,9.0,0.22994303703308105,1.7780392169952393,0.543110745983529,41.0,419.0,0.0
R,U,"[3, 9]",1.0,10.0,0.16327905654907227,1.5446600914001465,0.3878709475199364,41.0,420.0,0.0
,,"(6, 6)",,,,,,,,
R,U,"[5, 6]",1.0,1.0,0.1906437873840332,2.2943289279937744,0.2821756352726101,42.0,421.0,0.0
Y,R,"[5, 7]",1.0,2.0,0.21053004264831543,1.7666079998016357,0.548589363120974,42.0,422.0,0.0
Y,R,"[5, 8]",1.0,3.0,0.21288299560546875,1.9224140644073486,0.7041242455049854,42.0,423.0,0.0
G,D,"[6, 8]",1.0,4.0,0.1690659523010254,1.7783539295196533,0.6158388157690177,42.0,424.0,0.0
Y,R,"[6, 9]",1.0,5.0,0.1765890121459961,1.5681219100952148,0.38413733979486464,42.0,425.0,0.0
Y,R,"[6, 10]",1.0,6.0,0.19387388229370117,1.5597410202026367,0.3604892307853229,42.0,426.0,0.0
R,U,"[5, 10]",1.0,7.0,0.23491597175598145,1.576632022857666,0.3537863647186154,42.0,427.0,0.0
R,U,"[4, 10]",1.0,8.0,0.19951105117797852,1.9335711002349854,0.7369248118579954,42.0,428.0,0.0
B,L,"[4, 9]",1.0,9.0,0.1734769344329834,1.723402976989746,0.543789841731376,42.0,429.0,0.0
R,U,"[3, 9]",1.0,10.0,0.18248200416564941,1.4631128311157227,0.29042837319238063,42.0,430.0,0.0
,,"(6, 6)",,,,,,,,
R,U,"[5, 6]",1.0,1.0,0.2984809875488281,2.362844944000244,0.4530176614508007,43.0,431.0,0.0
R,U,"[4, 6]",0.0,1.0,0.17012286186218262,1.8294498920440674,0.6655424514830222,43.0,432.0,0.0
Y,R,"[4, 7]",0.0,1.0,0.5667979717254639,2.167937994003296,0.6001575719000609,43.0,433.0,0.0
G,D,"[5, 7]",1.0,2.0,0.2930910587310791,1.676826000213623,0.37712674514684935,43.0,434.0,0.0
Y,R,"[5, 8]",1.0,3.0,0.22550511360168457,1.709238052368164,0.4862202155960401,43.0,435.0,0.0
Y,R,"[5, 9]",0.0,3.0,0.18792390823364258,1.5274238586425781,0.33027097845995534,43.0,436.0,0.0
R,U,"[4, 9]",1.0,4.0,0.4154329299926758,1.85807204246521,0.4382802851602343,43.0,437.0,0.0
R,U,"[3, 9]",1.0,5.0,0.19695115089416504,1.5498979091644287,0.35488364551775187,43.0,438.0,0.0
Y,R,"[3, 10]",0.0,5.0,0.23938918113708496,1.5977649688720703,0.35259348163798093,43.0,439.0,0.0
R,U,"[2, 10]",0.0,5.0,0.2793900966644287,1.6810009479522705,0.4001500240318249,43.0,440.0,0.0
,,"(6, 6)",,,,,,,,
R,U,"[5, 6]",1.0,1.0,0.7616732120513916,3.651607036590576,0.46826372655421633,44.0,441.0,0.0
Y,R,"[5, 7]",1.0,2.0,0.1112818717956543,1.6994028091430664,0.5841125783899759,44.0,442.0,0.0
Y,R,"[5, 8]",1.0,3.0,0.1489570140838623,1.8649098873138428,0.7155623802585038,44.0,443.0,0.0
G,D,"[6, 8]",1.0,4.0,0.18931984901428223,1.5193259716033936,0.3351855748168208,44.0,444.0,0.0
Y,R,"[6, 9]",1.0,5.0,0.19760894775390625,1.9085371494293213,0.7099370417538541,44.0,445.0,0.0
Y,R,"[6, 10]",1.0,6.0,0.16359901428222656,1.880195140838623,0.7234394684492769,44.0,446.0,0.0
R,U,"[5, 10]",1.0,7.0,0.16725492477416992,1.4560198783874512,0.2963635685407691,44.0,447.0,0.0
R,U,"[4, 10]",1.0,8.0,0.21662402153015137,1.8743510246276855,0.654021183030648,44.0,448.0,0.0
B,L,"[4, 9]",1.0,9.0,0.2010490894317627,1.8038201332092285,0.6075431679613637,44.0,449.0,0.0
R,U,"[3, 9]",1.0,10.0,0.17121410369873047,1.8682000637054443,0.6925698865434919,44.0,450.0,0.0
,,"(6, 6)",,,,,,,,
R,U,"[5, 6]",1.0,1.0,0.18582582473754883,2.1826789379119873,0.35840383972226386,45.0,451.0,0.0
Y,R,"[5, 7]",1.0,2.0,0.18989992141723633,1.5056629180908203,0.31414905132163695,45.0,452.0,0.0
Y,R,"[5, 8]",1.0,3.0,0.22025203704833984,1.5032589435577393,0.28403854069159984,45.0,453.0,0.0
G,D,"[6, 8]",1.0,4.0,0.23216986656188965,1.4943490028381348,0.26164071593961885,45.0,454.0,0.0
Y,R,"[6, 9]",1.0,5.0,0.2078871726989746,1.763214111328125,0.5578584932742879,45.0,455.0,0.0
Y,R,"[6, 10]",1.0,6.0,0.14324402809143066,1.5859930515289307,0.443982913839067,45.0,456.0,0.0
R,U,"[5, 10]",1.0,7.0,0.13996195793151855,1.4286060333251953,0.30597741822936925,45.0,457.0,0.0
R,U,"[4, 10]",1.0,8.0,0.2156519889831543,1.71909499168396,0.508012882324298,45.0,458.0,0.0
B,L,"[4, 9]",1.0,9.0,0.22183799743652344,1.5181820392608643,0.3098048396388848,45.0,459.0,0.0
R,U,"[3, 9]",1.0,10.0,0.1961379051208496,1.8927671909332275,0.7024196662589118,45.0,460.0,0.0
,,"(6, 6)",,,,,,,,
R,U,"[5, 6]",1.0,1.0,0.3215751647949219,3.006946086883545,0.7088301227404312,46.0,461.0,0.0
Y,R,"[5, 7]",1.0,2.0,0.17802715301513672,1.536055088043213,0.3619353125275022,46.0,462.0,0.0
Y,R,"[5, 8]",1.0,3.0,0.19347715377807617,1.4533491134643555,0.2652528602943152,46.0,463.0,0.0
G,D,"[6, 8]",1.0,4.0,0.2170100212097168,1.8541109561920166,0.6356554852867955,46.0,464.0,0.0
Y,R,"[6, 9]",1.0,5.0,0.1327221393585205,1.72468900680542,0.5937192893485667,46.0,465.0,0.0
Y,R,"[6, 10]",-1.0,5.0,0.04425191879272461,5.367691993713379,0.26146119878849877,46.0,466.0,0.0
G,D,"[7, 10]",0.0,5.0,0.3556828498840332,1.6356840133666992,0.28043972251460075,46.0,467.0,0.0
Y,R,"[7, 11]",0.0,5.0,0.3147151470184326,1.6934630870819092,0.37364518988121515,46.0,468.0,0.0
B,L,"[7, 10]",0.0,5.0,0.7563259601593018,2.028275966644287,0.26856782210275254,46.0,469.0,0.0
B,L,"[7, 9]",0.0,5.0,0.19394898414611816,1.8469288349151611,0.6485193548077339,46.0,470.0,0.0
,,"(6, 6)",,,,,,,,
R,U,"[5, 6]",1.0,1.0,0.3235929012298584,3.11470103263855,0.546557394608887,47.0,471.0,0.0
Y,R,"[5, 7]",1.0,2.0,0.2113349437713623,1.806528091430664,0.5862260017383276,47.0,472.0,0.0
Y,R,"[5, 8]",1.0,3.0,0.19230103492736816,1.4923248291015625,0.295401269645584,47.0,473.0,0.0
G,D,"[6, 8]",1.0,4.0,0.2974128723144531,1.8192598819732666,0.5145106480938525,47.0,474.0,0.0
Y,R,"[6, 9]",1.0,5.0,0.19968414306640625,1.8390920162200928,0.6367089203007352,47.0,475.0,0.0
Y,R,"[6, 10]",1.0,6.0,0.20128512382507324,1.741943120956421,0.5452655170926187,47.0,476.0,0.0
R,U,"[5, 10]",1.0,7.0,0.2862248420715332,2.0187718868255615,0.7304924860280704,47.0,477.0,0.0
R,U,"[4, 10]",1.0,8.0,0.20058298110961914,1.5951991081237793,0.3926033541368638,47.0,478.0,0.0
B,L,"[4, 9]",1.0,9.0,0.2652308940887451,1.679183006286621,0.4216633059027488,47.0,479.0,0.0
R,U,"[3, 9]",1.0,10.0,0.21792912483215332,1.7039780616760254,0.49226096402169506,47.0,480.0,0.0
,,"(6, 6)",,,,,,,,
R,U,"[5, 6]",1.0,1.0,0.2286510467529297,2.3900411128997803,0.6320933874810617,48.0,481.0,0.0
Y,R,"[5, 7]",1.0,2.0,0.18583393096923828,1.8968119621276855,0.7120968022351911,48.0,482.0,0.0
Y,R,"[5, 8]",1.0,3.0,0.20286297798156738,1.7690331935882568,0.5644825509962793,48.0,483.0,0.0
G,D,"[6, 8]",1.0,4.0,0.21426081657409668,1.8125450611114502,0.5936059401896645,48.0,484.0,0.0
Y,R,"[6, 9]",1.0,5.0,0.18624186515808105,1.6332669258117676,0.46030171755625954,48.0,485.0,0.0
Y,R,"[6, 10]",1.0,6.0,0.20287108421325684,1.6297378540039062,0.44000609811256014,48.0,486.0,0.0
R,U,"[5, 10]",1.0,7.0,0.20389890670776367,1.724181890487671,0.5306807446340902,48.0,487.0,0.0
R,U,"[4, 10]",1.0,8.0,0.17809700965881348,1.4851219654083252,0.2992279916395261,48.0,488.0,0.0
B,L,"[4, 9]",1.0,9.0,0.22978901863098145,1.7132830619812012,0.47896755022187304,48.0,489.0,0.0
R,U,"[3, 9]",1.0,10.0,0.2040269374847412,1.9518258571624756,0.747195401619507,48.0,490.0,0.0
,,"(6, 6)",,,,,,,,
R,U,"[5, 6]",1.0,1.0,0.19552206993103027,2.3783740997314453,0.6259902383263867,49.0,491.0,0.0
R,U,"[4, 6]",0.0,1.0,0.29651713371276855,1.640481948852539,0.3496279595539412,49.0,492.0,0.0
Y,R,"[4, 7]",-2.0,1.0,1.326442003250122,2.812501907348633,0.5117161253214477,49.0,493.0,0.0
G,D,"[5, 7]",1.0,2.0,0.2599070072174072,1.5642430782318115,0.3093974917302183,49.0,494.0,0.0
Y,R,"[5, 8]",1.0,3.0,0.22100114822387695,1.8924448490142822,0.6848765551026459,49.0,495.0,0.0
Y,R,"[5, 9]",0.0,3.0,0.21062994003295898,1.8772408962249756,0.6621024275421317,49.0,496.0,0.0
R,U,"[4, 9]",1.0,4.0,0.14130687713623047,1.7087390422821045,0.5542574544088883,49.0,497.0,0.0
R,U,"[3, 9]",1.0,5.0,0.1977858543395996,1.5192229747772217,0.32358244085759796,49.0,498.0,0.0
B,L,"[3, 8]",0.0,5.0,0.24489521980285645,1.7749950885772705,0.5316090781223302,49.0,499.0,0.0
R,U,"[2, 8]",0.0,5.0,0.23527884483337402,1.549565076828003,0.3147141901798709,49.0,500.0,0.0
,,"(6, 6)",,,,,,,,
R,U,"[5, 6]",1.0,1.0,0.2666149139404297,2.9818129539489746,0.32969752038498173,50.0,501.0,0.0
Y,R,"[5, 7]",1.0,2.0,0.21289992332458496,1.8545680046081543,0.6338365299413897,50.0,502.0,0.0
Y,R,"[5, 8]",1.0,3.0,0.1759328842163086,1.71950101852417,0.5367425637565089,50.0,503.0,0.0
G,D,"[6, 8]",1.0,4.0,0.19528508186340332,1.805678129196167,0.6088765715297707,50.0,504.0,0.0
Y,R,"[6, 9]",1.0,5.0,0.20221209526062012,1.8656201362609863,0.6743070187141371,50.0,505.0,0.0
Y,R,"[6, 10]",1.0,6.0,0.1815650463104248,1.9130120277404785,0.7377994426725216,50.0,506.0,0.0
R,U,"[5, 10]",1.0,7.0,0.16509389877319336,1.6366071701049805,0.47406228271345735,50.0,507.0,0.0
R,U,"[4, 10]",1.0,8.0,0.1755352020263672,1.8090200424194336,0.6328553661717362,50.0,508.0,0.0
B,L,"[4, 9]",-1.0,8.0,0.0938570499420166,5.650452136993408,0.4665362411480563,50.0,509.0,0.0
R,U,"[3, 9]",1.0,9.0,0.23780298233032227,1.786303997039795,0.5526465305903829,50.0,510.0,0.0
,,"(6, 6)",,,,,,,,
R,U,"[5, 6]",1.0,1.0,0.23459506034851074,2.1691789627075195,0.3720051933866604,51.0,511.0,0.0
Y,R,"[5, 7]",1.0,2.0,0.22980308532714844,1.813870906829834,0.5855291316068707,51.0,512.0,0.0
Y,R,"[5, 8]",1.0,3.0,0.20813894271850586,1.4744129180908203,0.260222745837273,51.0,513.0,0.0
G,D,"[6, 8]",1.0,4.0,0.2624340057373047,1.984130859375,0.7275536651759265,51.0,514.0,0.0
Y,R,"[6, 9]",1.0,5.0,0.17712998390197754,1.7449328899383545,0.572204342961677,51.0,515.0,0.0
Y,R,"[6, 10]",1.0,6.0,0.19406914710998535,1.788585901260376,0.5940024817453684,51.0,516.0,0.0
R,U,"[5, 10]",1.0,7.0,0.18782615661621094,1.6282660961151123,0.43906682068212155,51.0,517.0,0.0
R,U,"[4, 10]",1.0,8.0,0.19295716285705566,1.9187431335449219,0.7240885764637401,51.0,518.0,0.0
B,L,"[4, 9]",1.0,9.0,0.15669679641723633,1.6758131980895996,0.5166777236226143,51.0,519.0,0.0
R,U,"[3, 9]",1.0,10.0,0.19437408447265625,1.5777790546417236,0.37785560136287066,51.0,520.0,0.0
,,"(6, 6)",,,,,,,,
R,U,"[5, 6]",1.0,1.0,0.39637207984924316,2.832587957382202,0.3768782518943314,52.0,521.0,0.0
Y,R,"[5, 7]",1.0,2.0,0.22236204147338867,1.5990190505981445,0.3758410268224629,52.0,522.0,0.0
Y,R,"[5, 8]",1.0,3.0,0.2444159984588623,1.4951701164245605,0.2544867071838201,52.0,523.0,0.0
G,D,"[6, 8]",1.0,4.0,0.23232007026672363,1.572510004043579,0.34342471126575935,52.0,524.0,0.0
Y,R,"[6, 9]",1.0,5.0,0.19558000564575195,1.8708689212799072,0.6806463235246244,52.0,525.0,0.0
Y,R,"[6, 10]",1.0,6.0,0.19283819198608398,1.5131921768188477,0.31077455952521243,52.0,526.0,0.0
R,U,"[5, 10]",1.0,7.0,0.2302548885345459,1.6765029430389404,0.45379710670671564,52.0,527.0,0.0
R,U,"[4, 10]",1.0,8.0,0.19589591026306152,1.7877318859100342,0.5913550270459779,52.0,528.0,0.0
B,L,"[4, 9]",1.0,9.0,0.19981098175048828,1.6253061294555664,0.4333015487550321,52.0,529.0,0.0
R,U,"[3, 9]",1.0,10.0,0.2102510929107666,1.9084999561309814,0.6914847729497893,52.0,530.0,0.0
,,"(6, 6)",,,,,,,,
R,U,"[5, 6]",1.0,1.0,0.23694896697998047,2.3331010341644287,0.5580388058268948,53.0,531.0,0.0
Y,R,"[5, 7]",1.0,2.0,0.21291303634643555,1.8361539840698242,0.6273692843651364,53.0,532.0,0.0
Y,R,"[5, 8]",-1.0,2.0,0.06018400192260742,5.847069025039673,0.7240912569420059,53.0,533.0,0.0
G,D,"[6, 8]",1.0,3.0,0.3124539852142334,1.6621849536895752,0.3531614025363865,53.0,534.0,0.0
Y,R,"[6, 9]",1.0,4.0,0.21978306770324707,1.7595720291137695,0.545804336965751,53.0,535.0,0.0
Y,R,"[6, 10]",1.0,5.0,0.1911630630493164,1.9209239482879639,0.7164779923355504,53.0,536.0,0.0
R,U,"[5, 10]",1.0,6.0,0.19862699508666992,1.7199060916900635,0.5197793331233317,53.0,537.0,0.0
R,U,"[4, 10]",1.0,7.0,0.22107887268066406,1.546631097793579,0.33325313431727716,53.0,538.0,0.0
B,L,"[4, 9]",1.0,8.0,0.23981308937072754,1.896615982055664,0.6462031308097234,53.0,539.0,0.0
R,U,"[3, 9]",1.0,9.0,0.2007770538330078,1.905344009399414,0.701307856896269,53.0,540.0,0.0
,,"(6, 6)",,,,,,,,
R,U,"[5, 6]",1.0,1.0,0.15360808372497559,1.9144361019134521,0.33265296249804166,54.0,541.0,0.0
R,U,"[4, 6]",0.0,1.0,0.2221231460571289,1.9585819244384766,0.7407323728978814,54.0,542.0,0.0
Y,R,"[4, 7]",0.0,1.0,0.2961127758026123,1.8797080516815186,0.5872809708084253,54.0,543.0,0.0
G,D,"[5, 7]",1.0,2.0,0.18171191215515137,1.6171770095825195,0.4378102476971573,54.0,544.0,0.0
Y,R,"[5, 8]",1.0,3.0,0.19185781478881836,1.5524170398712158,0.35695602288367956,54.0,545.0,0.0
Y,R,"[5, 9]",0.0,3.0,0.2060239315032959,1.4692680835723877,0.25961717010883356,54.0,546.0,0.0
R,U,"[4, 9]",1.0,4.0,0.22335290908813477,1.9334399700164795,0.7262505245731392,54.0,547.0,0.0
R,U,"[3, 9]",1.0,5.0,0.20502400398254395,1.6182589530944824,0.4275842514942363,54.0,548.0,0.0
B,L,"[3, 8]",0.0,5.0,0.21929597854614258,1.5166079998016357,0.31099384934100477,54.0,549.0,0.0
R,U,"[2, 8]",0.0,5.0,0.273590087890625,1.692192792892456,0.419592979343559,54.0,550.0,0.0
,,"(6, 6)",,,,,,,,
R,U,"[5, 6]",1.0,1.0,0.455157995223999,3.072939872741699,0.3925083043298863,55.0,551.0,0.0
Y,R,"[5, 7]",1.0,2.0,0.24695396423339844,1.7855088710784912,0.5444946123415981,55.0,552.0,0.0
Y,R,"[5, 8]",1.0,3.0,0.3766310214996338,1.961651086807251,0.5892912375967181,55.0,553.0,0.0
G,D,"[6, 8]",1.0,4.0,0.19691705703735352,1.8436150550842285,0.6492763554866955,55.0,554.0,0.0
Y,R,"[6, 9]",1.0,5.0,0.1639091968536377,1.731450080871582,0.564163548000969,55.0,555.0,0.0
Y,R,"[6, 10]",1.0,6.0,0.21462011337280273,1.7145159244537354,0.49541788307230683,55.0,556.0,0.0
R,U,"[5, 10]",1.0,7.0,0.23589396476745605,1.6382150650024414,0.40028169522716844,55.0,557.0,0.0
R,U,"[4, 10]",1.0,8.0,0.18877577781677246,1.9235548973083496,0.7233753237437679,55.0,558.0,0.0
B,L,"[4, 9]",1.0,9.0,0.21229887008666992,1.5505468845367432,0.34089610076687027,55.0,559.0,0.0
R,U,"[3, 9]",1.0,10.0,0.217864990234375,1.6614618301391602,0.4521654028834275,55.0,560.0,0.0
,,"(6, 6)",,,,,,,,
R,U,"[5, 6]",1.0,1.0,0.20766615867614746,2.526660919189453,0.49529178969665216,56.0,561.0,0.0
Y,R,"[5, 7]",1.0,2.0,0.19297289848327637,1.8843250274658203,0.679485229344283,56.0,562.0,0.0
Y,R,"[5, 8]",1.0,3.0,0.17053508758544922,1.6786329746246338,0.49172996303957117,56.0,563.0,0.0
G,D,"[6, 8]",1.0,4.0,0.24580001831054688,1.7244648933410645,0.4826405578505506,56.0,564.0,0.0
Y,R,"[6, 9]",1.0,5.0,0.18039202690124512,1.6824979782104492,0.49846609372333645,56.0,565.0,0.0
Y,R,"[6, 10]",1.0,6.0,0.13122105598449707,1.7908458709716797,0.6555667404607455,56.0,566.0,0.0
R,U,"[5, 10]",1.0,7.0,0.1653578281402588,1.6196072101593018,0.458605974712697,56.0,567.0,0.0
R,U,"[4, 10]",1.0,8.0,0.15405488014221191,1.5646800994873047,0.4233285140984812,56.0,568.0,0.0
B,L,"[4, 9]",1.0,9.0,0.2013838291168213,1.8196649551391602,0.6259991234095652,56.0,569.0,0.0
R,U,"[3, 9]",1.0,10.0,0.18928003311157227,1.459934949874878,0.26963779379185276,56.0,570.0,0.0
,,"(6, 6)",,,,,,,,
R,U,"[5, 6]",1.0,1.0,0.1809248924255371,2.6196279525756836,0.5055848518213003,57.0,571.0,0.0
Y,R,"[5, 7]",1.0,2.0,0.14236998558044434,1.4169728755950928,0.27267140452433336,57.0,572.0,0.0
Y,R,"[5, 8]",1.0,3.0,0.19663500785827637,1.8221909999847412,0.6277971593575422,57.0,573.0,0.0
G,D,"[6, 8]",1.0,4.0,0.1830589771270752,1.7985470294952393,0.6262869579579167,57.0,574.0,0.0
Y,R,"[6, 9]",1.0,5.0,0.15695405006408691,1.7318699359893799,0.5913689229620753,57.0,575.0,0.0
Y,R,"[6, 10]",1.0,6.0,0.14561796188354492,1.7604739665985107,0.6184797683883487,57.0,576.0,0.0
R,U,"[5, 10]",1.0,7.0,0.22494101524353027,1.8550429344177246,0.6233063619001376,57.0,577.0,0.0
R,U,"[4, 10]",1.0,8.0,0.17894697189331055,1.486440896987915,0.3099759071461149,57.0,578.0,0.0
B,L,"[4, 9]",1.0,9.0,0.23963499069213867,1.9454219341278076,0.705003664267349,57.0,579.0,0.0
R,U,"[3, 9]",1.0,10.0,0.14171099662780762,1.7578761577606201,0.6129371181325433,57.0,580.0,0.0
,,"(6, 6)",,,,,,,,
R,U,"[5, 6]",1.0,1.0,0.20482492446899414,2.0970520973205566,0.29351665625430384,58.0,581.0,0.0
Y,R,"[5, 7]",1.0,2.0,0.18258213996887207,1.5870280265808105,0.4137403221556708,58.0,582.0,0.0
Y,R,"[5, 8]",1.0,3.0,0.22866201400756836,1.6500918865203857,0.41367218815842227,58.0,583.0,0.0
G,D,"[6, 8]",1.0,4.0,0.21251392364501953,1.640718936920166,0.42104959854281715,58.0,584.0,0.0
Y,R,"[6, 9]",1.0,5.0,0.22223997116088867,1.7941739559173584,0.5816291104253534,58.0,585.0,0.0
Y,R,"[6, 10]",1.0,6.0,0.16726303100585938,1.6008989810943604,0.43253597581601766,58.0,586.0,0.0
R,U,"[5, 10]",1.0,7.0,0.21513104438781738,1.7580218315124512,0.5404415527689246,58.0,587.0,0.0
R,U,"[4, 10]",1.0,8.0,0.1723020076751709,1.8243048191070557,0.6479194297877106,58.0,588.0,0.0
B,L,"[4, 9]",1.0,9.0,0.1948850154876709,1.9084670543670654,0.7061687180036694,58.0,589.0,0.0
R,U,"[3, 9]",1.0,10.0,0.21583008766174316,1.5460751056671143,0.3358972331958251,58.0,590.0,0.0
,,"(6, 6)",,,,,,,,
R,U,"[5, 6]",1.0,1.0,0.24455595016479492,2.4560182094573975,0.5083321603426061,59.0,591.0,0.0
Y,R,"[5, 7]",1.0,2.0,0.18178606033325195,1.7368500232696533,0.5617335449411138,59.0,592.0,0.0
Y,R,"[5, 8]",1.0,3.0,0.20720195770263672,1.8179161548614502,0.6127630993089191,59.0,593.0,0.0
G,D,"[6, 8]",1.0,4.0,0.19826817512512207,1.6170730590820312,0.4133690242588874,59.0,594.0,0.0
Y,R,"[6, 9]",1.0,5.0,0.17947793006896973,1.846623182296753,0.6596387723230934,59.0,595.0,0.0
Y,R,"[6, 10]",1.0,6.0,0.16307902336120605,1.5303099155426025,0.3734352326644165,59.0,596.0,0.0
R,U,"[5, 10]",1.0,7.0,0.22177600860595703,1.502851963043213,0.27626125568647547,59.0,597.0,0.0
R,U,"[4, 10]",1.0,8.0,0.21667790412902832,1.8781661987304688,0.6707110318247872,59.0,598.0,0.0
B,L,"[4, 9]",1.0,9.0,0.18960905075073242,1.8059720993041992,0.6103478257971803,59.0,599.0,0.0
R,U,"[3, 9]",1.0,10.0,0.16745996475219727,1.443735122680664,0.28726151287516205,59.0,600.0,0.0
,,"(6, 6)",,,,,,,,
R,U,"[5, 6]",1.0,1.0,0.2081151008605957,4.0859739780426025,0.6227910306984394,60.0,601.0,0.0
Y,R,"[5, 7]",1.0,2.0,0.33798813819885254,1.7920892238616943,0.46482676964716607,60.0,602.0,0.0
G,D,"[6, 7]",0.0,2.0,0.22530198097229004,1.5140960216522217,0.27903217368153727,60.0,603.0,0.0
G,D,"[7, 7]",0.0,2.0,0.27327895164489746,1.776158094406128,0.48823619934321666,60.0,604.0,0.0
Y,R,"[7, 8]",0.0,2.0,0.20359301567077637,1.5556399822235107,0.3606139191146979,60.0,605.0,0.0
Y,R,"[7, 9]",0.0,2.0,0.19466590881347656,1.492466926574707,0.30312671137343083,60.0,606.0,0.0
R,U,"[6, 9]",1.0,3.0,0.22365593910217285,1.6342849731445312,0.403842283143993,60.0,607.0,0.0
R,U,"[5, 9]",0.0,3.0,0.22930002212524414,1.8885769844055176,0.6588550050122417,60.0,608.0,0.0
Y,R,"[5, 10]",1.0,4.0,0.1820230484008789,1.6705029010772705,0.49610168097638196,60.0,609.0,0.0
Y,R,"[5, 11]",0.0,4.0,0.3736748695373535,2.040515899658203,0.6529698935854847,60.0,610.0,0.0
,,"(6, 6)",,,,,,,,
R,U,"[5, 6]",1.0,1.0,0.21752095222473145,2.847428798675537,0.46720743452653324,61.0,611.0,0.0
Y,R,"[5, 7]",1.0,2.0,0.2864089012145996,1.7494518756866455,0.4665428578778419,61.0,612.0,0.0
Y,R,"[5, 8]",1.0,3.0,0.19020605087280273,1.8057200908660889,0.6053776044109815,61.0,613.0,0.0
G,D,"[6, 8]",1.0,4.0,0.19818592071533203,1.523766040802002,0.3293385804070188,61.0,614.0,0.0
Y,R,"[6, 9]",1.0,5.0,0.20073199272155762,1.551508903503418,0.34730297684529937,61.0,615.0,0.0
Y,R,"[6, 10]",1.0,6.0,0.20087504386901855,1.5522890090942383,0.3496550219173248,61.0,616.0,0.0
R,U,"[5, 10]",1.0,7.0,0.2048630714416504,1.4900920391082764,0.28977677951109476,61.0,617.0,0.0
R,U,"[4, 10]",1.0,8.0,0.1715550422668457,1.7597041130065918,0.5990773335548989,61.0,618.0,0.0
B,L,"[4, 9]",1.0,9.0,0.20624399185180664,1.6777610778808594,0.47677499498915554,61.0,619.0,0.0
R,U,"[3, 9]",1.0,10.0,0.14801692962646484,1.8378100395202637,0.6977098880637018,61.0,620.0,0.0
,,"(6, 6)",,,,,,,,
R,U,"[5, 6]",1.0,1.0,0.22464895248413086,2.5439181327819824,0.7248098256873621,62.0,621.0,0.0
Y,R,"[5, 7]",1.0,2.0,0.14672088623046875,1.6247022151947021,0.48301332802116603,62.0,622.0,0.0
Y,R,"[5, 8]",1.0,3.0,0.19644904136657715,1.4923450946807861,0.29213725474439256,62.0,623.0,0.0
G,D,"[6, 8]",1.0,4.0,0.2421739101409912,1.8448550701141357,0.6032718929275958,62.0,624.0,0.0
Y,R,"[6, 9]",1.0,5.0,0.1820540428161621,1.7286322116851807,0.5484254065204692,62.0,625.0,0.0
Y,R,"[6, 10]",1.0,6.0,0.14068078994750977,1.760880947113037,0.6096924554031384,62.0,626.0,0.0
R,U,"[5, 10]",1.0,7.0,0.19675111770629883,1.5548129081726074,0.36415143118621446,62.0,627.0,0.0
R,U,"[4, 10]",1.0,8.0,0.20998120307922363,1.79693603515625,0.5775903514341765,62.0,628.0,0.0
B,L,"[4, 9]",1.0,9.0,0.20264410972595215,1.8065240383148193,0.6172004572147818,62.0,629.0,0.0
R,U,"[3, 9]",1.0,10.0,0.20504021644592285,1.9092319011688232,0.6930557072477945,62.0,630.0,0.0
,,"(6, 6)",,,,,,,,
R,U,"[5, 6]",1.0,1.0,0.2216320037841797,2.055454969406128,0.33198586188187457,63.0,631.0,0.0
Y,R,"[5, 7]",1.0,2.0,0.2726478576660156,1.7906980514526367,0.5057465470577509,63.0,632.0,0.0
Y,R,"[5, 8]",1.0,3.0,0.19893598556518555,1.6952970027923584,0.5010747770008002,63.0,633.0,0.0
G,D,"[6, 8]",1.0,4.0,0.1804039478302002,1.891402006149292,0.7088629369366577,63.0,634.0,0.0
Y,R,"[6, 9]",1.0,5.0,0.1627800464630127,1.4137699604034424,0.2563493474280152,63.0,635.0,0.0
Y,R,"[6, 10]",1.0,6.0,0.2649400234222412,1.9536869525909424,0.693025514440795,63.0,636.0,0.0
R,U,"[5, 10]",1.0,7.0,0.18390488624572754,1.8171241283416748,0.6431866576564322,63.0,637.0,0.0
R,U,"[4, 10]",1.0,8.0,0.1773829460144043,1.7079980373382568,0.5345426554090404,63.0,638.0,0.0
B,L,"[4, 9]",1.0,9.0,0.191605806350708,1.4506218433380127,0.25198295572707924,63.0,639.0,0.0
R,U,"[3, 9]",1.0,10.0,0.2325608730316162,1.6822547912597656,0.4507261040899085,63.0,640.0,0.0
,,"(6, 6)",,,,,,,,
R,U,"[5, 6]",1.0,1.0,0.29715418815612793,3.0794739723205566,0.31346772892617275,64.0,641.0,0.0
Y,R,"[5, 7]",1.0,2.0,0.2258129119873047,1.6702849864959717,0.4336665064685042,64.0,642.0,0.0
Y,R,"[5, 8]",1.0,3.0,0.22619891166687012,1.6492919921875,0.41620993324674976,64.0,643.0,0.0
G,D,"[6, 8]",1.0,4.0,0.20641803741455078,1.826854944229126,0.6260861349243041,64.0,644.0,0.0
Y,R,"[6, 9]",1.0,5.0,0.1784529685974121,1.8946959972381592,0.7206115990860611,64.0,645.0,0.0
Y,R,"[6, 10]",1.0,6.0,0.3375411033630371,1.8850748538970947,0.5557493603524868,64.0,646.0,0.0
R,U,"[5, 10]",1.0,7.0,0.17211198806762695,1.4196479320526123,0.2590433562346984,64.0,647.0,0.0
R,U,"[4, 10]",1.0,8.0,0.20837092399597168,1.953197956085205,0.7453223482575226,64.0,648.0,0.0
B,L,"[4, 9]",1.0,9.0,0.18410110473632812,1.8839671611785889,0.7121480275864742,64.0,649.0,0.0
R,U,"[3, 9]",1.0,10.0,0.15043997764587402,1.4479129314422607,0.29373520263173547,64.0,650.0,0.0
,,"(6, 6)",,,,,,,,
R,U,"[5, 6]",1.0,1.0,0.2767939567565918,2.6314098834991455,0.4082526791453875,65.0,651.0,0.0
Y,R,"[5, 7]",1.0,2.0,0.23667693138122559,1.5145020484924316,0.28941465797596116,65.0,652.0,0.0
Y,R,"[5, 8]",1.0,3.0,0.28306007385253906,1.8691909313201904,0.5916103862516902,65.0,653.0,0.0
G,D,"[6, 8]",1.0,4.0,0.21436619758605957,1.6277658939361572,0.4194786548396259,65.0,654.0,0.0
Y,R,"[6, 9]",1.0,5.0,0.23902010917663574,1.501147985458374,0.25396338224021187,65.0,655.0,0.0
Y,R,"[6, 10]",1.0,6.0,0.22405695915222168,1.8064961433410645,0.576725785450176,65.0,656.0,0.0
R,U,"[5, 10]",1.0,7.0,0.1889970302581787,1.5700509548187256,0.38029591627839343,65.0,657.0,0.0
R,U,"[4, 10]",1.0,8.0,0.17080307006835938,1.7222750186920166,0.5522699568898009,65.0,658.0,0.0
B,L,"[4, 9]",1.0,9.0,0.2569999694824219,1.715407133102417,0.4511076923552501,65.0,659.0,0.0
R,U,"[3, 9]",1.0,10.0,0.20026493072509766,1.6987049579620361,0.4996738059864096,65.0,660.0,0.0
,,"(6, 6)",,,,,,,,
R,U,"[5, 6]",1.0,1.0,0.2057349681854248,2.4557838439941406,0.3221014169378845,66.0,661.0,0.0
Y,R,"[5, 7]",1.0,2.0,0.20224308967590332,1.5459609031677246,0.35135321802818253,66.0,662.0,0.0
Y,R,"[5, 8]",1.0,3.0,0.214385986328125,1.9128639698028564,0.6971974192281333,66.0,663.0,0.0
G,D,"[6, 8]",1.0,4.0,0.21319580078125,1.8531489372253418,0.6335375463963392,66.0,664.0,0.0
Y,R,"[6, 9]",1.0,5.0,0.1505742073059082,1.7834150791168213,0.6336078014535401,66.0,665.0,0.0
Y,R,"[6, 10]",1.0,6.0,0.15842199325561523,1.6182830333709717,0.4518553195550184,66.0,666.0,0.0
R,U,"[5, 10]",1.0,7.0,0.1875319480895996,1.78163480758667,0.6000269725704471,66.0,667.0,0.0
B,L,"[5, 9]",0.0,7.0,0.1291348934173584,1.874418020248413,0.7407883548373728,66.0,668.0,0.0
B,L,"[5, 8]",0.0,7.0,0.20247912406921387,1.8803529739379883,0.6879008877843282,66.0,669.0,0.0
R,U,"[4, 8]",0.0,7.0,0.21459603309631348,1.7076530456542969,0.49553346671544435,66.0,670.0,0.0
,,"(6, 6)",,,,,,,,
R,U,"[5, 6]",1.0,1.0,0.2635948657989502,3.0033369064331055,0.3323502406923394,67.0,671.0,0.0
Y,R,"[5, 7]",1.0,2.0,0.23395705223083496,1.8977608680725098,0.6632528008816212,67.0,672.0,0.0
Y,R,"[5, 8]",1.0,3.0,0.2057790756225586,1.8268640041351318,0.6065202295297094,67.0,673.0,0.0
G,D,"[6, 8]",1.0,4.0,0.18380117416381836,1.744014024734497,0.5670651300309422,67.0,674.0,0.0
Y,R,"[6, 9]",1.0,5.0,0.17292189598083496,1.699065923690796,0.5161671764606165,67.0,675.0,0.0
Y,R,"[6, 10]",1.0,6.0,0.18178391456604004,1.8358919620513916,0.6518512377774355,67.0,676.0,0.0
R,U,"[5, 10]",1.0,7.0,0.20538711547851562,1.843893051147461,0.6292936289169658,67.0,677.0,0.0
R,U,"[4, 10]",1.0,8.0,0.1773991584777832,1.559528112411499,0.37197291380526915,67.0,678.0,0.0
B,L,"[4, 9]",1.0,9.0,0.22838902473449707,1.9130308628082275,0.6845739099783069,67.0,679.0,0.0
R,U,"[3, 9]",1.0,10.0,0.20174193382263184,1.8911597728729248,0.6924179720380363,67.0,680.0,0.0
,,"(6, 6)",,,,,,,,
R,U,"[5, 6]",1.0,1.0,0.23502707481384277,2.0935211181640625,0.46925206485788823,68.0,681.0,0.0
Y,R,"[5, 7]",1.0,2.0,0.1883549690246582,1.7381138801574707,0.5406506662326042,68.0,682.0,0.0
Y,R,"[5, 8]",1.0,3.0,0.21999287605285645,1.6170248985290527,0.40793487614283874,68.0,683.0,0.0
G,D,"[6, 8]",1.0,4.0,0.20428705215454102,1.856328010559082,0.6637400788413408,68.0,684.0,0.0
Y,R,"[6, 9]",1.0,5.0,0.17772293090820312,1.9191908836364746,0.7326348757838788,68.0,685.0,0.0
Y,R,"[6, 10]",1.0,6.0,0.16194581985473633,1.8263299465179443,0.6591910712226612,68.0,686.0,0.0
R,U,"[5, 10]",1.0,7.0,0.21129798889160156,1.9291958808898926,0.7214639732236522,68.0,687.0,0.0
R,U,"[4, 10]",1.0,8.0,0.14693784713745117,1.7702479362487793,0.6250069830454117,68.0,688.0,0.0
B,L,"[4, 9]",1.0,9.0,0.2003159523010254,1.4680888652801514,0.27670300342765536,68.0,689.0,0.0
R,U,"[3, 9]",1.0,10.0,0.24269485473632812,1.5499558448791504,0.3099285867999234,68.0,690.0,0.0
,,"(6, 6)",,,,,,,,
R,U,"[5, 6]",1.0,1.0,0.131256103515625,2.2167460918426514,0.2764846891956623,69.0,691.0,0.0
R,U,"[4, 6]",0.0,1.0,0.19783592224121094,1.6185219287872314,0.4282193251165453,69.0,692.0,0.0
Y,R,"[4, 7]",0.0,1.0,0.2393779754638672,1.7784929275512695,0.5397771104783178,69.0,693.0,0.0
G,D,"[5, 7]",1.0,2.0,0.21192693710327148,1.677128791809082,0.4669863133435359,69.0,694.0,0.0
Y,R,"[5, 8]",1.0,3.0,0.17258191108703613,1.835690975189209,0.669178135550449,69.0,695.0,0.0
Y,R,"[5, 9]",0.0,3.0,0.15312790870666504,1.5368478298187256,0.3893771476741074,69.0,696.0,0.0
R,U,"[4, 9]",1.0,4.0,0.19381308555603027,1.5595519542694092,0.36558290011292427,69.0,697.0,0.0
R,U,"[3, 9]",1.0,5.0,0.2032148838043213,1.507969856262207,0.3068480901673803,69.0,698.0,0.0
B,L,"[3, 8]",0.0,5.0,0.3071160316467285,1.954413890838623,0.6440929471765298,69.0,699.0,0.0
B,L,"[3, 7]",0.0,5.0,0.19511079788208008,1.514725923538208,0.32580944616036084,69.0,700.0,0.0
,,"(6, 6)",,,,,,,,
R,U,"[5, 6]",1.0,1.0,0.26784610748291016,2.7446448802948,0.7032863134267981,70.0,701.0,0.0
Y,R,"[5, 7]",1.0,2.0,0.21673989295959473,1.556150197982788,0.3429794193792695,70.0,702.0,0.0
Y,R,"[5, 8]",1.0,3.0,0.29040098190307617,2.0398638248443604,0.7490076220563948,70.0,703.0,0.0
G,D,"[6, 8]",1.0,4.0,0.20241689682006836,1.6990320682525635,0.49814967244333913,70.0,704.0,0.0
Y,R,"[6, 9]",1.0,5.0,0.1954059600830078,1.6191329956054688,0.41742128857273403,70.0,705.0,0.0
Y,R,"[6, 10]",1.0,6.0,0.21277284622192383,1.4977948665618896,0.2818409122533336,70.0,706.0,0.0
R,U,"[5, 10]",1.0,7.0,0.25269198417663574,1.9679160118103027,0.7159055146523454,70.0,707.0,0.0
R,U,"[4, 10]",1.0,8.0,0.17504596710205078,1.770071029663086,0.5861131716362735,70.0,708.0,0.0
B,L,"[4, 9]",1.0,9.0,0.22331905364990234,1.7950499057769775,0.5644502405944971,70.0,709.0,0.0
R,U,"[3, 9]",1.0,10.0,0.19338417053222656,1.5566339492797852,0.35450952472120595,70.0,710.0,0.0
,,"(6, 6)",,,,,,,,
R,U,"[5, 6]",1.0,1.0,0.15186309814453125,2.187893867492676,0.408960468839831,71.0,711.0,0.0
Y,R,"[5, 7]",1.0,2.0,0.19944310188293457,1.4473488330841064,0.2562225530366562,71.0,712.0,0.0
Y,R,"[5, 8]",1.0,3.0,0.2608010768890381,1.861907958984375,0.6010622825503464,71.0,713.0,0.0
G,D,"[6, 8]",1.0,4.0,0.1423180103302002,1.8553318977355957,0.706759096853874,71.0,714.0,0.0
Y,R,"[6, 9]",1.0,5.0,0.17159700393676758,1.8374478816986084,0.677011190278948,71.0,715.0,0.0
Y,R,"[6, 10]",1.0,6.0,0.1409900188446045,1.776317834854126,0.6366160276147377,71.0,716.0,0.0
R,U,"[5, 10]",-1.0,6.0,0.011235952377319336,5.378893852233887,0.3154638774624391,71.0,717.0,0.0
R,U,"[4, 10]",1.0,7.0,0.25821900367736816,1.5989599227905273,0.3310837340964837,71.0,718.0,0.0
B,L,"[4, 9]",1.0,8.0,0.240462064743042,1.6880848407745361,0.43566057046789614,71.0,719.0,0.0
R,U,"[3, 9]",1.0,9.0,0.16408586502075195,1.516908884048462,0.3525232639695007,71.0,720.0,0.0
,,"(6, 6)",,,,,,,,
R,U,"[5, 6]",1.0,1.0,0.18899822235107422,2.8906140327453613,0.49289575154233717,72.0,721.0,0.0
R,U,"[4, 6]",0.0,1.0,0.15281105041503906,1.6423900127410889,0.5018421203405368,72.0,722.0,0.0
Y,R,"[4, 7]",0.0,1.0,0.5358929634094238,1.940363883972168,0.4087818700894115,72.0,723.0,0.0
G,D,"[5, 7]",1.0,2.0,0.18742585182189941,1.8514468669891357,0.676689683143989,72.0,724.0,0.0
Y,R,"[5, 8]",1.0,3.0,0.16856002807617188,1.8294799327850342,0.6727172883190875,72.0,725.0,0.0
Y,R,"[5, 9]",0.0,3.0,0.15212607383728027,1.8540430068969727,0.7098859697658176,72.0,726.0,0.0
R,U,"[4, 9]",-1.0,3.0,0.07193207740783691,5.7975380420684814,0.6739347686513356,72.0,727.0,0.0
R,U,"[3, 9]",1.0,4.0,0.2443070411682129,1.9500079154968262,0.70716772022955,72.0,728.0,0.0
B,L,"[3, 8]",0.0,4.0,0.2130110263824463,1.9012560844421387,0.6916041288772603,72.0,729.0,0.0
R,U,"[2, 8]",0.0,4.0,0.1950690746307373,1.486375093460083,0.295045385863406,72.0,730.0,0.0
,,"(6, 6)",,,,,,,,
R,U,"[5, 6]",1.0,1.0,0.21634697914123535,2.813979148864746,0.5251884943114755,73.0,731.0,0.0
Y,R,"[5, 7]",1.0,2.0,0.21439194679260254,1.7939341068267822,0.5857251403199923,73.0,732.0,0.0
Y,R,"[5, 8]",1.0,3.0,0.18851804733276367,1.7025949954986572,0.5048418807302484,73.0,733.0,0.0
G,D,"[6, 8]",1.0,4.0,0.18105578422546387,1.920400857925415,0.7417205486800923,73.0,734.0,0.0
Y,R,"[6, 9]",1.0,5.0,0.16492295265197754,1.422015905380249,0.26418988003187266,73.0,735.0,0.0
Y,R,"[6, 10]",1.0,6.0,0.2929558753967285,1.8334791660308838,0.5305438837040445,73.0,736.0,0.0
R,U,"[5, 10]",1.0,7.0,0.22361493110656738,1.581287145614624,0.34537278205849303,73.0,737.0,0.0
R,U,"[4, 10]",1.0,8.0,0.20856404304504395,1.8354010581970215,0.6302892198092958,73.0,738.0,0.0
B,L,"[4, 9]",1.0,9.0,0.20428919792175293,1.9347000122070312,0.7314437253377135,73.0,739.0,0.0
R,U,"[3, 9]",1.0,10.0,0.21261000633239746,1.6338229179382324,0.4155511947109185,73.0,740.0,0.0
,,"(6, 6)",,,,,,,,
R,U,"[5, 6]",1.0,1.0,0.18420100212097168,3.5616841316223145,0.31050597939430835,74.0,741.0,0.0
Y,R,"[5, 7]",1.0,2.0,0.2212538719177246,1.672368049621582,0.4659120988172352,74.0,742.0,0.0
Y,R,"[5, 8]",1.0,3.0,0.21787285804748535,1.7649412155151367,0.5473379456834842,74.0,743.0,0.0
G,D,"[6, 8]",1.0,4.0,0.21119403839111328,1.5850660800933838,0.36593663943960997,74.0,744.0,0.0
Y,R,"[6, 9]",1.0,5.0,0.20287203788757324,1.6846950054168701,0.4837838316944269,74.0,745.0,0.0
Y,R,"[6, 10]",1.0,6.0,0.18785595893859863,1.5896470546722412,0.39000272152944604,74.0,746.0,0.0
R,U,"[5, 10]",1.0,7.0,0.1922159194946289,1.6302568912506104,0.4369147308825046,74.0,747.0,0.0
R,U,"[4, 10]",1.0,8.0,0.17673206329345703,1.9274868965148926,0.747308369946488,74.0,748.0,0.0
B,L,"[4, 9]",1.0,9.0,0.1724681854248047,1.5251998901367188,0.3393175904220279,74.0,749.0,0.0
R,U,"[3, 9]",1.0,10.0,0.18685698509216309,1.4691989421844482,0.2918968648019688,74.0,750.0,0.0
,,"(6, 6)",,,,,,,,
R,U,"[5, 6]",1.0,1.0,0.13836908340454102,2.6491570472717285,0.6906456574390745,75.0,751.0,0.0
Y,R,"[5, 7]",1.0,2.0,0.16406989097595215,1.677856206893921,0.5184799371396689,75.0,752.0,0.0
Y,R,"[5, 8]",1.0,3.0,0.19732093811035156,1.461601972579956,0.26372788731136904,75.0,753.0,0.0
G,D,"[6, 8]",1.0,4.0,0.24713778495788574,1.9492988586425781,0.6958063474663252,75.0,754.0,0.0
Y,R,"[6, 9]",1.0,5.0,0.20530200004577637,1.9043397903442383,0.6833858722789228,75.0,755.0,0.0
Y,R,"[6, 10]",-1.0,5.0,0.024461030960083008,5.8059680461883545,0.7222585484326438,75.0,756.0,0.0
R,U,"[5, 10]",1.0,6.0,0.23205208778381348,1.5243260860443115,0.29703272858933777,75.0,757.0,0.0
R,U,"[4, 10]",1.0,7.0,0.37375903129577637,1.9561781883239746,0.5695379897694817,75.0,758.0,0.0
B,L,"[4, 9]",1.0,8.0,0.2266838550567627,1.9334399700164795,0.7026684603294607,75.0,759.0,0.0
R,U,"[3, 9]",1.0,9.0,0.2814900875091553,1.6709611415863037,0.3905204666447007,75.0,760.0,0.0
,,"(6, 6)",,,,,,,,
R,U,"[5, 6]",1.0,1.0,0.46251797676086426,3.9097461700439453,0.5831978952447152,76.0,761.0,0.0
Y,R,"[5, 7]",1.0,2.0,0.19895696640014648,1.561964988708496,0.36206063043283593,76.0,762.0,0.0
Y,R,"[5, 8]",1.0,3.0,0.25958991050720215,1.8870577812194824,0.6319751133069449,76.0,763.0,0.0
G,D,"[6, 8]",1.0,4.0,0.19706320762634277,1.6367359161376953,0.43563033215499236,76.0,764.0,0.0
Y,R,"[6, 9]",1.0,5.0,0.19361090660095215,1.6511008739471436,0.4531599225499076,76.0,765.0,0.0
Y,R,"[6, 10]",1.0,6.0,0.22461700439453125,1.8603379726409912,0.6298732800664679,76.0,766.0,0.0
R,U,"[5, 10]",1.0,7.0,0.20089507102966309,1.5125370025634766,0.30944793088520356,76.0,767.0,0.0
R,U,"[4, 10]",1.0,8.0,0.26108503341674805,1.616326093673706,0.35898358798469104,76.0,768.0,0.0
B,L,"[4, 9]",1.0,9.0,0.23322796821594238,1.511991024017334,0.2875903810265457,76.0,769.0,0.0
R,U,"[3, 9]",1.0,10.0,0.21853113174438477,1.9614050388336182,0.7484267041785686,76.0,770.0,0.0
,,"(6, 6)",,,,,,,,
R,U,"[5, 6]",1.0,1.0,0.22313499450683594,1.9753599166870117,0.4573594787280163,77.0,771.0,0.0
Y,R,"[5, 7]",1.0,2.0,0.17015719413757324,1.5930190086364746,0.433669659127278,77.0,772.0,0.0
Y,R,"[5, 8]",1.0,3.0,0.1960771083831787,1.6257638931274414,0.42599764380046273,77.0,773.0,0.0
G,D,"[6, 8]",1.0,4.0,0.14395689964294434,1.622607946395874,0.4817895689765733,77.0,774.0,0.0
Y,R,"[6, 9]",1.0,5.0,0.1831531524658203,1.4672729969024658,0.2824104416692771,77.0,775.0,0.0
Y,R,"[6, 10]",1.0,6.0,0.19147896766662598,1.4835600852966309,0.2826137748252343,77.0,776.0,0.0
R,U,"[5, 10]",1.0,7.0,0.22615909576416016,1.930638074874878,0.6960875120056662,77.0,777.0,0.0
R,U,"[4, 10]",1.0,8.0,0.20431804656982422,1.7132220268249512,0.5095052071236497,77.0,778.0,0.0
B,L,"[4, 9]",1.0,9.0,0.1777198314666748,1.4654650688171387,0.2917321043003157,77.0,779.0,0.0
R,U,"[3, 9]",1.0,10.0,0.18111014366149902,1.6358110904693604,0.4605703117220133,77.0,780.0,0.0
,,"(6, 6)",,,,,,,,
R,U,"[5, 6]",1.0,1.0,0.18243694305419922,2.0535361766815186,0.3808180487556186,78.0,781.0,0.0
Y,R,"[5, 7]",1.0,2.0,0.20305895805358887,1.5037281513214111,0.3012570030952601,78.0,782.0,0.0
Y,R,"[5, 8]",1.0,3.0,0.2429828643798828,1.547631025314331,0.29871834824564825,78.0,783.0,0.0
G,D,"[6, 8]",1.0,4.0,0.2190539836883545,1.6499848365783691,0.4318000322060401,78.0,784.0,0.0
Y,R,"[6, 9]",1.0,5.0,0.19508910179138184,1.536700963973999,0.33527973096371544,78.0,785.0,0.0
Y,R,"[6, 10]",1.0,6.0,0.18703103065490723,1.4879958629608154,0.30646148486674935,78.0,786.0,0.0
R,U,"[5, 10]",1.0,7.0,0.24738192558288574,1.731010913848877,0.4872907901491013,78.0,787.0,0.0
R,U,"[4, 10]",1.0,8.0,0.1638939380645752,1.5750761032104492,0.4123943560102806,78.0,788.0,0.0
B,L,"[4, 9]",1.0,9.0,0.19967317581176758,1.5805280208587646,0.3761991359070891,78.0,789.0,0.0
R,U,"[3, 9]",1.0,10.0,0.16701006889343262,1.8558499813079834,0.6985815297270661,78.0,790.0,0.0
,,"(6, 6)",,,,,,,,
R,U,"[5, 6]",1.0,1.0,0.1690959930419922,1.8631420135498047,0.3949091721262378,79.0,791.0,0.0
Y,R,"[5, 7]",1.0,2.0,0.18131089210510254,1.770387887954712,0.5984358505831824,79.0,792.0,0.0
Y,R,"[5, 8]",1.0,3.0,0.1734600067138672,1.5517199039459229,0.3669913631860411,79.0,793.0,0.0
G,D,"[6, 8]",1.0,4.0,0.1759190559387207,1.5915868282318115,0.4084478965843055,79.0,794.0,0.0
Y,R,"[6, 9]",1.0,5.0,0.19678902626037598,1.701568841934204,0.5097820856112898,79.0,795.0,0.0
Y,R,"[6, 10]",1.0,6.0,0.2050950527191162,1.7247560024261475,0.5347307888359594,79.0,796.0,0.0
R,U,"[5, 10]",1.0,7.0,0.18824291229248047,1.8090579509735107,0.6100100401794408,79.0,797.0,0.0
R,U,"[4, 10]",1.0,8.0,0.17421507835388184,1.63808012008667,0.46475979214772606,79.0,798.0,0.0
B,L,"[4, 9]",1.0,9.0,0.17519497871398926,1.7026941776275635,0.5173949790132569,79.0,799.0,0.0
R,U,"[3, 9]",1.0,10.0,0.18622398376464844,1.787118911743164,0.6043768602246866,79.0,800.0,0.0
,,"(6, 6)",,,,,,,,
R,U,"[5, 6]",1.0,1.0,0.25021815299987793,2.227947950363159,0.5821559058331467,80.0,801.0,0.0
Y,R,"[5, 7]",1.0,2.0,0.15046906471252441,1.797865867614746,0.6465815914002729,80.0,802.0,0.0
Y,R,"[5, 8]",-1.0,2.0,0.08059406280517578,5.823608875274658,0.6698421101383165,80.0,803.0,0.0
G,D,"[6, 8]",1.0,3.0,0.2757689952850342,1.8855488300323486,0.6053772542316304,80.0,804.0,0.0
Y,R,"[6, 9]",1.0,4.0,0.22046113014221191,1.7319369316101074,0.5206239913125073,80.0,805.0,0.0
Y,R,"[6, 10]",1.0,5.0,0.18442797660827637,1.6705060005187988,0.49125895853667917,80.0,806.0,0.0
R,U,"[5, 10]",1.0,6.0,0.18942594528198242,1.5809540748596191,0.4052772825888031,80.0,807.0,0.0
R,U,"[4, 10]",1.0,7.0,0.16818499565124512,1.5069270133972168,0.3455215006197486,80.0,808.0,0.0
B,L,"[4, 9]",1.0,8.0,0.2633829116821289,1.6358039379119873,0.3646899476025763,80.0,809.0,0.0
R,U,"[3, 9]",1.0,9.0,0.23615789413452148,1.8631510734558105,0.6274126383195331,80.0,810.0,0.0
,,"(6, 6)",,,,,,,,
R,U,"[5, 6]",1.0,1.0,0.6083869934082031,3.372872829437256,0.6667233744482652,81.0,811.0,0.0
Y,R,"[5, 7]",1.0,2.0,0.18466496467590332,1.5078480243682861,0.32479233882230785,81.0,812.0,0.0
Y,R,"[5, 8]",1.0,3.0,0.2246410846710205,1.6979401111602783,0.47254236309011205,81.0,813.0,0.0
G,D,"[6, 8]",1.0,4.0,0.20666098594665527,1.8389570713043213,0.6279441530134959,81.0,814.0,0.0
Y,R,"[6, 9]",1.0,5.0,0.19869589805603027,1.840723991394043,0.6519628119516203,81.0,815.0,0.0
Y,R,"[6, 10]",1.0,6.0,0.1563091278076172,1.6061680316925049,0.4414656437165209,81.0,816.0,0.0
R,U,"[5, 10]",1.0,7.0,0.24526286125183105,1.5808730125427246,0.33913083604464284,81.0,817.0,0.0
R,U,"[4, 10]",1.0,8.0,0.19312715530395508,1.5275189876556396,0.3331753006525429,81.0,818.0,0.0
B,L,"[4, 9]",1.0,9.0,0.20267605781555176,1.5697410106658936,0.36945477094531715,81.0,819.0,0.0
R,U,"[3, 9]",1.0,10.0,0.1899259090423584,1.6303339004516602,0.4330738903494588,81.0,820.0,0.0
,,"(6, 6)",,,,,,,,
R,U,"[5, 6]",1.0,1.0,0.6009361743927002,2.5025720596313477,0.5188441631010365,82.0,821.0,0.0
Y,R,"[5, 7]",1.0,2.0,0.1835629940032959,1.6336398124694824,0.45238812584070626,82.0,822.0,0.0
Y,R,"[5, 8]",1.0,3.0,0.19757390022277832,1.5902290344238281,0.3925326407341982,82.0,823.0,0.0
G,D,"[6, 8]",1.0,4.0,0.2068490982055664,1.763368844985962,0.555739917444598,82.0,824.0,0.0
Y,R,"[6, 9]",-1.0,4.0,0.09227991104125977,5.68010687828064,0.518873943779186,82.0,825.0,0.0
Y,R,"[6, 10]",1.0,5.0,0.2728250026702881,1.887070894241333,0.6057278764110097,82.0,826.0,0.0
R,U,"[5, 10]",1.0,6.0,0.19547080993652344,1.6882879734039307,0.4939833711285584,82.0,827.0,0.0
R,U,"[4, 10]",1.0,7.0,0.1811201572418213,1.5629889965057373,0.3904344240636434,82.0,828.0,0.0
B,L,"[4, 9]",1.0,8.0,0.2064189910888672,1.690788984298706,0.48104483745558785,82.0,829.0,0.0
R,U,"[3, 9]",-1.0,8.0,0.08647298812866211,5.726495981216431,0.573785071297772,82.0,830.0,0.0
,,"(6, 6)",,,,,,,,
R,U,"[5, 6]",1.0,1.0,0.6103010177612305,3.2561540603637695,0.6631420888288622,83.0,831.0,0.0
Y,R,"[5, 7]",1.0,2.0,0.20005202293395996,1.8865861892700195,0.6830790418109519,83.0,832.0,0.0
Y,R,"[5, 8]",1.0,3.0,0.1717209815979004,1.7651610374450684,0.5979194270553869,83.0,833.0,0.0
G,D,"[6, 8]",1.0,4.0,0.2259809970855713,1.8107872009277344,0.5754205655016319,83.0,834.0,0.0
Y,R,"[6, 9]",1.0,5.0,0.192000150680542,1.5843439102172852,0.39317116315897765,83.0,835.0,0.0
Y,R,"[6, 10]",1.0,6.0,0.23068714141845703,1.6232719421386719,0.3995856416839045,83.0,836.0,0.0
R,U,"[5, 10]",1.0,7.0,0.24039793014526367,1.5520257949829102,0.30169365546396515,83.0,837.0,0.0
R,U,"[4, 10]",1.0,8.0,0.2153940200805664,1.8114478588104248,0.5965011586350021,83.0,838.0,0.0
B,L,"[4, 9]",1.0,9.0,0.19862699508666992,1.5983500480651855,0.39478847725607474,83.0,839.0,0.0
R,U,"[3, 9]",1.0,10.0,0.22327899932861328,1.5185039043426514,0.296872805463638,83.0,840.0,0.0
,,"(6, 6)",,,,,,,,
R,U,"[5, 6]",1.0,1.0,0.23497295379638672,2.4503300189971924,0.41389701496917936,84.0,841.0,0.0
Y,R,"[5, 7]",1.0,2.0,0.22100019454956055,1.6415271759033203,0.4220182056939972,84.0,842.0,0.0
Y,R,"[5, 8]",1.0,3.0,0.21013283729553223,1.7584130764007568,0.5468486614859785,84.0,843.0,0.0
G,D,"[6, 8]",1.0,4.0,0.18387198448181152,1.852428913116455,0.6659354922911884,84.0,844.0,0.0
Y,R,"[6, 9]",1.0,5.0,0.10142302513122559,1.48384690284729,0.38343911323161234,84.0,845.0,0.0
Y,R,"[6, 10]",1.0,6.0,0.2135450839996338,1.8357698917388916,0.6189987256676146,84.0,846.0,0.0
R,U,"[5, 10]",1.0,7.0,0.24721598625183105,1.5044810771942139,0.2571661115657461,84.0,847.0,0.0
R,U,"[4, 10]",1.0,8.0,0.2021770477294922,1.5768132209777832,0.38407483765111916,84.0,848.0,0.0
B,L,"[4, 9]",1.0,9.0,0.2088479995727539,1.9294390678405762,0.7130537165528469,84.0,849.0,0.0
R,U,"[3, 9]",1.0,10.0,0.16292309761047363,1.5123851299285889,0.34255152125175614,84.0,850.0,0.0
,,"(6, 6)",,,,,,,,
R,U,"[5, 6]",1.0,1.0,0.21582794189453125,2.4068331718444824,0.33269851168166936,85.0,851.0,0.0
Y,R,"[5, 7]",1.0,2.0,0.225816011428833,1.8246641159057617,0.5903777744710021,85.0,852.0,0.0
Y,R,"[5, 8]",1.0,3.0,0.18314695358276367,1.783653974533081,0.6074033919440198,85.0,853.0,0.0
G,D,"[6, 8]",1.0,4.0,0.17778897285461426,1.6736719608306885,0.4982656028397284,85.0,854.0,0.0
Y,R,"[6, 9]",1.0,5.0,0.21341514587402344,1.5946061611175537,0.37600485209938556,85.0,855.0,0.0
Y,R,"[6, 10]",1.0,6.0,0.20107698440551758,1.8114650249481201,0.6205667459564457,85.0,856.0,0.0
R,U,"[5, 10]",1.0,7.0,0.19345402717590332,1.4763901233673096,0.2806836118713865,85.0,857.0,0.0
R,U,"[4, 10]",1.0,8.0,0.19912290573120117,1.8441221714019775,0.6411122026115932,85.0,858.0,0.0
B,L,"[4, 9]",1.0,9.0,0.1520369052886963,1.471069097518921,0.32915101172427935,85.0,859.0,0.0
R,U,"[3, 9]",1.0,10.0,0.19943690299987793,1.5373399257659912,0.3331675662561355,85.0,860.0,0.0
,,"(6, 6)",,,,,,,,
R,U,"[5, 6]",1.0,1.0,0.2580990791320801,3.1260039806365967,0.7421606689057842,86.0,861.0,0.0
Y,R,"[5, 7]",1.0,2.0,0.21388983726501465,1.8548970222473145,0.6471558504377348,86.0,862.0,0.0
Y,R,"[5, 8]",1.0,3.0,0.17568492889404297,1.59763503074646,0.4115764779093846,86.0,863.0,0.0
G,D,"[6, 8]",1.0,4.0,0.20429205894470215,1.6081020832061768,0.41978118860572333,86.0,864.0,0.0
Y,R,"[6, 9]",1.0,5.0,0.1926720142364502,1.543907880783081,0.34711743853614435,86.0,865.0,0.0
Y,R,"[6, 10]",1.0,6.0,0.21377992630004883,1.853585958480835,0.6338060233932787,86.0,866.0,0.0
R,U,"[5, 10]",1.0,7.0,0.18763494491577148,1.6859240531921387,0.503216245763312,86.0,867.0,0.0
R,U,"[4, 10]",1.0,8.0,0.1423048973083496,1.7535080909729004,0.6065368797151638,86.0,868.0,0.0
B,L,"[4, 9]",1.0,9.0,0.1122589111328125,1.675173044204712,0.5651618891404389,86.0,869.0,0.0
R,U,"[3, 9]",-1.0,9.0,0.06685805320739746,5.4465179443359375,0.3120085465999831,86.0,870.0,0.0
,,"(6, 6)",,,,,,,,
R,U,"[5, 6]",1.0,1.0,0.3174588680267334,2.4709219932556152,0.33291268140900654,87.0,871.0,0.0
Y,R,"[5, 7]",1.0,2.0,0.222426176071167,1.5000150203704834,0.26637186203578167,87.0,872.0,0.0
Y,R,"[5, 8]",1.0,3.0,0.19415998458862305,1.4761321544647217,0.2758515790785559,87.0,873.0,0.0
G,D,"[6, 8]",1.0,4.0,0.19350194931030273,1.7887260913848877,0.5975737053078307,87.0,874.0,0.0
Y,R,"[6, 9]",1.0,5.0,0.16468501091003418,1.4624309539794922,0.2936343655282707,87.0,875.0,0.0
Y,R,"[6, 10]",1.0,6.0,0.16848015785217285,1.8145179748535156,0.6577830880729605,87.0,876.0,0.0
R,U,"[5, 10]",1.0,7.0,0.15984392166137695,1.8910109996795654,0.7321055285436706,87.0,877.0,0.0
R,U,"[4, 10]",-1.0,7.0,0.05113720893859863,5.576113939285278,0.4584967070292974,87.0,878.0,0.0
B,L,"[4, 9]",1.0,8.0,0.29857492446899414,1.754390001296997,0.4628378932020025,87.0,879.0,0.0
R,U,"[3, 9]",1.0,9.0,0.21844696998596191,1.5247340202331543,0.3043890830387459,87.0,880.0,0.0
,,"(6, 6)",,,,,,,,
R,U,"[5, 6]",1.0,1.0,0.2739250659942627,2.597691059112549,0.7350166650045289,88.0,881.0,0.0
Y,R,"[5, 7]",1.0,2.0,0.17673897743225098,1.7149999141693115,0.5336172942122008,88.0,882.0,0.0
Y,R,"[5, 8]",1.0,3.0,0.22524595260620117,1.588865041732788,0.3559475881259105,88.0,883.0,0.0
G,D,"[6, 8]",1.0,4.0,0.17971396446228027,1.675171136856079,0.4977447900917038,88.0,884.0,0.0
Y,R,"[6, 9]",1.0,5.0,0.200455904006958,1.4715549945831299,0.26950707809943064,88.0,885.0,0.0
Y,R,"[6, 10]",1.0,6.0,0.21866488456726074,1.7344980239868164,0.520461843468252,88.0,886.0,0.0
R,U,"[5, 10]",1.0,7.0,0.17824006080627441,1.7478859424591064,0.568282654690012,88.0,887.0,0.0
R,U,"[4, 10]",1.0,8.0,0.15130281448364258,1.5933330059051514,0.44495691037209495,88.0,888.0,0.0
B,L,"[4, 9]",1.0,9.0,0.2207028865814209,1.9299890995025635,0.7247949151616953,88.0,889.0,0.0
R,U,"[3, 9]",-1.0,9.0,0.007039070129394531,5.721121072769165,0.6626917665623798,88.0,890.0,0.0
,,"(6, 6)",,,,,,,,
R,U,"[5, 6]",1.0,1.0,0.25447797775268555,2.6456029415130615,0.6420405611702131,89.0,891.0,0.0
Y,R,"[5, 7]",1.0,2.0,0.2109529972076416,1.5481200218200684,0.34009728022378616,89.0,892.0,0.0
Y,R,"[5, 8]",1.0,3.0,0.22588491439819336,1.8191370964050293,0.59219442273078,89.0,893.0,0.0
G,D,"[6, 8]",1.0,4.0,0.20423197746276855,1.4687719345092773,0.2780086234134092,89.0,894.0,0.0
Y,R,"[6, 9]",1.0,5.0,0.1925661563873291,1.5385119915008545,0.3498917096207919,89.0,895.0,0.0
Y,R,"[6, 10]",1.0,6.0,0.19491004943847656,1.6083178520202637,0.4079810958619521,89.0,896.0,0.0
R,U,"[5, 10]",1.0,7.0,0.27449607849121094,1.6211960315704346,0.34603327977060333,89.0,897.0,0.0
R,U,"[4, 10]",1.0,8.0,0.19416594505310059,1.8592948913574219,0.6550409112207671,89.0,898.0,0.0
B,L,"[4, 9]",1.0,9.0,0.18921589851379395,1.626999855041504,0.4488114515006944,89.0,899.0,0.0
R,U,"[3, 9]",1.0,10.0,0.17685413360595703,1.6905078887939453,0.5060244448120135,89.0,900.0,0.0
,,"(6, 6)",,,,,,,,
R,U,"[5, 6]",1.0,1.0,0.2599208354949951,2.3871350288391113,0.7265283052060995,90.0,901.0,0.0
Y,R,"[5, 7]",1.0,2.0,0.17813801765441895,1.6602318286895752,0.48673757497256587,90.0,902.0,0.0
Y,R,"[5, 8]",1.0,3.0,0.19843316078186035,1.9315400123596191,0.7346808728833065,90.0,903.0,0.0
G,D,"[6, 8]",1.0,4.0,0.2721378803253174,1.7069470882415771,0.4252226870421962,90.0,904.0,0.0
Y,R,"[6, 9]",1.0,5.0,0.1980900764465332,1.6051390171051025,0.4137706194183226,90.0,905.0,0.0
Y,R,"[6, 10]",1.0,6.0,0.18665790557861328,1.4882500171661377,0.30221883267089444,90.0,906.0,0.0
R,U,"[5, 10]",1.0,7.0,0.2301490306854248,1.906708002090454,0.6751656338198281,90.0,907.0,0.0
R,U,"[4, 10]",1.0,8.0,0.18811511993408203,1.8843870162963867,0.7094949276772117,90.0,908.0,0.0
B,L,"[4, 9]",1.0,9.0,0.19773006439208984,1.4665708541870117,0.2763880638070516,90.0,909.0,0.0
R,U,"[3, 9]",1.0,10.0,0.21503710746765137,1.924433946609497,0.7171386505635222,90.0,910.0,0.0
,,"(6, 6)",,,,,,,,
R,U,"[5, 6]",1.0,1.0,0.18230605125427246,3.0568997859954834,0.590768483515316,91.0,911.0,0.0
Y,R,"[5, 7]",1.0,2.0,0.2076880931854248,1.7273099422454834,0.5181587713045661,91.0,912.0,0.0
Y,R,"[5, 8]",1.0,3.0,0.21467089653015137,1.563722848892212,0.3487397541458284,91.0,913.0,0.0
G,D,"[6, 8]",1.0,4.0,0.20969581604003906,1.7363409996032715,0.5182427629597146,91.0,914.0,0.0
Y,R,"[6, 9]",1.0,5.0,0.18828201293945312,1.9179661273956299,0.7194613333803277,91.0,915.0,0.0
Y,R,"[6, 10]",1.0,6.0,0.1736769676208496,1.8208069801330566,0.6402811564787428,91.0,916.0,0.0
R,U,"[5, 10]",1.0,7.0,0.2019660472869873,1.9419670104980469,0.7491925305428987,91.0,917.0,0.0
R,U,"[4, 10]",1.0,8.0,0.19598007202148438,1.7526578903198242,0.5516506139915378,91.0,918.0,0.0
B,L,"[4, 9]",1.0,9.0,0.19893503189086914,1.8733279705047607,0.6748697197640837,91.0,919.0,0.0
R,U,"[3, 9]",1.0,10.0,0.14222216606140137,1.5015778541564941,0.35996219613118013,91.0,920.0,0.0
,,"(6, 6)",,,,,,,,
R,U,"[5, 6]",1.0,1.0,0.21912908554077148,2.8612329959869385,0.28814017677898424,92.0,921.0,0.0
Y,R,"[5, 7]",1.0,2.0,0.24530386924743652,1.7430810928344727,0.49755227237891425,92.0,922.0,0.0
Y,R,"[5, 8]",1.0,3.0,0.17458200454711914,1.8901000022888184,0.7041661579639134,92.0,923.0,0.0
G,D,"[6, 8]",1.0,4.0,0.19111084938049316,1.6570708751678467,0.46146901213887936,92.0,924.0,0.0
Y,R,"[6, 9]",1.0,5.0,0.20816898345947266,1.4746699333190918,0.26960935751565945,92.0,925.0,0.0
Y,R,"[6, 10]",1.0,6.0,0.19180703163146973,1.5487899780273438,0.35177462817932237,92.0,926.0,0.0
R,U,"[5, 10]",1.0,7.0,0.2758300304412842,1.833899974822998,0.552099062430991,92.0,927.0,0.0
R,U,"[4, 10]",1.0,8.0,0.16550111770629883,1.6351921558380127,0.4706213275931211,92.0,928.0,0.0
B,L,"[4, 9]",1.0,9.0,0.19721412658691406,1.8783910274505615,0.6822568317339998,92.0,929.0,0.0
R,U,"[3, 9]",1.0,10.0,0.1547870635986328,1.7202880382537842,0.5691472686676768,92.0,930.0,0.0
,,"(6, 6)",,,,,,,,
R,U,"[5, 6]",1.0,1.0,0.22955107688903809,2.0831260681152344,0.5024909653717295,93.0,931.0,0.0
Y,R,"[5, 7]",1.0,2.0,0.16176199913024902,1.5006661415100098,0.3365697432458922,93.0,932.0,0.0
Y,R,"[5, 8]",1.0,3.0,0.22375178337097168,1.5683519840240479,0.3550206480136819,93.0,933.0,0.0
G,D,"[6, 8]",1.0,4.0,0.23714303970336914,1.9512770175933838,0.7224235680049864,93.0,934.0,0.0
Y,R,"[6, 9]",1.0,5.0,0.16203904151916504,1.7829899787902832,0.6222386277670753,93.0,935.0,0.0
Y,R,"[6, 10]",1.0,6.0,0.18068194389343262,1.8255910873413086,0.6478494164840172,93.0,936.0,0.0
R,U,"[5, 10]",1.0,7.0,0.2414109706878662,1.9640538692474365,0.7118052516007136,93.0,937.0,0.0
R,U,"[4, 10]",1.0,8.0,0.1846909523010254,1.8296229839324951,0.6414964828819646,93.0,938.0,0.0
B,L,"[4, 9]",1.0,9.0,0.20296287536621094,1.935007095336914,0.7429856985675858,93.0,939.0,0.0
R,U,"[3, 9]",1.0,10.0,0.14769506454467773,1.586479902267456,0.4465762771538886,93.0,940.0,0.0
,,"(6, 6)",,,,,,,,
R,U,"[5, 6]",1.0,1.0,0.2770860195159912,2.0430190563201904,0.3062952203149544,94.0,941.0,0.0
Y,R,"[5, 7]",1.0,2.0,0.2172689437866211,1.6793410778045654,0.4687512464758912,94.0,942.0,0.0
Y,R,"[5, 8]",1.0,3.0,0.2109999656677246,1.8952100276947021,0.6803966764564575,94.0,943.0,0.0
G,D,"[6, 8]",1.0,4.0,0.24202179908752441,1.6812479496002197,0.42863798133511555,94.0,944.0,0.0
Y,R,"[6, 9]",1.0,5.0,0.19986200332641602,1.9162142276763916,0.7280266238475888,94.0,945.0,0.0
Y,R,"[6, 10]",-1.0,5.0,0.08571100234985352,5.59757399559021,0.45896973791976936,94.0,946.0,0.0
R,U,"[5, 10]",1.0,6.0,0.26163482666015625,1.7088401317596436,0.4511293852194082,94.0,947.0,0.0
R,U,"[4, 10]",1.0,7.0,0.23893499374389648,1.5757842063903809,0.3437295427811855,94.0,948.0,0.0
B,L,"[4, 9]",1.0,8.0,0.23322415351867676,1.940722942352295,0.7173130023023847,94.0,949.0,0.0
R,U,"[3, 9]",1.0,9.0,0.17978882789611816,1.6895809173583984,0.5072090548596022,94.0,950.0,0.0
,,"(6, 6)",,,,,,,,
R,U,"[5, 6]",1.0,1.0,0.3481290340423584,2.5221638679504395,0.6791310632878016,95.0,951.0,0.0
Y,R,"[5, 7]",1.0,2.0,0.19152283668518066,1.8325350284576416,0.6282868835009192,95.0,952.0,0.0
Y,R,"[5, 8]",1.0,3.0,0.19338083267211914,1.7419500350952148,0.5536714209763243,95.0,953.0,0.0
G,D,"[6, 8]",1.0,4.0,0.2518038749694824,1.855884075164795,0.6096667868564436,95.0,954.0,0.0
Y,R,"[6, 9]",1.0,5.0,0.1738429069519043,1.7498109340667725,0.5760646501067412,95.0,955.0,0.0
Y,R,"[6, 10]",1.0,6.0,0.20083308219909668,1.536574125289917,0.3462303371475583,95.0,956.0,0.0
R,U,"[5, 10]",1.0,7.0,0.2537209987640381,1.782236099243164,0.5282836380047385,95.0,957.0,0.0
R,U,"[4, 10]",1.0,8.0,0.245042085647583,1.7526590824127197,0.5141911957317221,95.0,958.0,0.0
B,L,"[4, 9]",1.0,9.0,0.20038986206054688,1.944145917892456,0.7414968059821561,95.0,959.0,0.0
R,U,"[3, 9]",1.0,10.0,0.1650841236114502,1.844419002532959,0.6859719456177387,95.0,960.0,0.0
,,"(6, 6)",,,,,,,,
R,U,"[5, 6]",1.0,1.0,0.2624480724334717,1.96356201171875,0.29997217166702156,96.0,961.0,0.0
Y,R,"[5, 7]",1.0,2.0,0.2133932113647461,1.8046998977661133,0.5877970529797681,96.0,962.0,0.0
Y,R,"[5, 8]",1.0,3.0,0.19741392135620117,1.5640888214111328,0.3685245692014814,96.0,963.0,0.0
G,D,"[6, 8]",1.0,4.0,0.21208596229553223,1.7227199077606201,0.507821899477854,96.0,964.0,0.0
Y,R,"[6, 9]",1.0,5.0,0.16397619247436523,1.8167948722839355,0.6576952086253358,96.0,965.0,0.0
Y,R,"[6, 10]",1.0,6.0,0.17834782600402832,1.607529878616333,0.4321311110596379,96.0,966.0,0.0
R,U,"[5, 10]",1.0,7.0,0.2106330394744873,1.652925968170166,0.43503812718958984,96.0,967.0,0.0
R,U,"[4, 10]",1.0,8.0,0.20269513130187988,1.921044111251831,0.7225187091498277,96.0,968.0,0.0
B,L,"[4, 9]",1.0,9.0,0.1919410228729248,1.6985571384429932,0.5046459544431832,96.0,969.0,0.0
R,U,"[3, 9]",-1.0,9.0,0.06039094924926758,5.719421148300171,0.5905669217139922,96.0,970.0,0.0
,,"(6, 6)",,,,,,,,
R,U,"[5, 6]",1.0,1.0,0.20778679847717285,2.971457004547119,0.4121814965482585,97.0,971.0,0.0
Y,R,"[5, 7]",1.0,2.0,0.21291613578796387,1.534588098526001,0.3135804325825571,97.0,972.0,0.0
Y,R,"[5, 8]",1.0,3.0,0.19957590103149414,1.6661860942840576,0.4628257576005665,97.0,973.0,0.0
G,D,"[6, 8]",1.0,4.0,0.198868989944458,1.6816470623016357,0.47814986062211623,97.0,974.0,0.0
Y,R,"[6, 9]",1.0,5.0,0.16317296028137207,1.7389521598815918,0.5833031340419474,97.0,975.0,0.0
Y,R,"[6, 10]",1.0,6.0,0.17124199867248535,1.4994831085205078,0.33300140880464035,97.0,976.0,0.0
R,U,"[5, 10]",1.0,7.0,0.23329806327819824,1.6040151119232178,0.37035072274568137,97.0,977.0,0.0
R,U,"[4, 10]",1.0,8.0,0.20636415481567383,1.6508829593658447,0.4544464434784953,97.0,978.0,0.0
B,L,"[4, 9]",1.0,9.0,0.18912887573242188,1.8025600910186768,0.6068427127275179,97.0,979.0,0.0
R,U,"[3, 9]",1.0,10.0,0.17322087287902832,1.4756579399108887,0.2995070151551039,97.0,980.0,0.0
,,"(6, 6)",,,,,,,,
R,U,"[5, 6]",1.0,1.0,0.19605183601379395,2.6378519535064697,0.5869022556676807,98.0,981.0,0.0
Y,R,"[5, 7]",1.0,2.0,0.18550896644592285,1.477294921875,0.2979099899486436,98.0,982.0,0.0
Y,R,"[5, 8]",1.0,3.0,0.20727205276489258,1.6326110363006592,0.41366687393348317,98.0,983.0,0.0
G,D,"[6, 8]",1.0,4.0,0.1726839542388916,1.6569771766662598,0.470657594997946,98.0,984.0,0.0
Y,R,"[6, 9]",1.0,5.0,0.18288898468017578,1.6919970512390137,0.5125768899948222,98.0,985.0,0.0
Y,R,"[6, 10]",1.0,6.0,0.1677558422088623,1.8828730583190918,0.7119199060077743,98.0,986.0,0.0
R,U,"[5, 10]",1.0,7.0,0.20634698867797852,1.697450876235962,0.492908575309625,98.0,987.0,0.0
R,U,"[4, 10]",1.0,8.0,0.18243694305419922,1.502267837524414,0.3286551608263388,98.0,988.0,0.0
B,L,"[4, 9]",1.0,9.0,0.21771907806396484,1.536534070968628,0.331828577049437,98.0,989.0,0.0
R,U,"[3, 9]",1.0,10.0,0.18101286888122559,1.604168176651001,0.41921981860389135,98.0,990.0,0.0
,,"(6, 6)",,,,,,,,
R,U,"[5, 6]",1.0,1.0,0.17449188232421875,2.1229910850524902,0.5087883899961465,99.0,991.0,0.0
Y,R,"[5, 7]",1.0,2.0,0.1884610652923584,1.6381211280822754,0.46357959422840284,99.0,992.0,0.0
Y,R,"[5, 8]",1.0,3.0,0.1803569793701172,1.4765591621398926,0.29030054284456086,99.0,993.0,0.0
G,D,"[6, 8]",1.0,4.0,0.2230379581451416,1.5796380043029785,0.3697333669016455,99.0,994.0,0.0
Y,R,"[6, 9]",1.0,5.0,0.16442012786865234,1.905635118484497,0.7416601847379046,99.0,995.0,0.0
Y,R,"[6, 10]",-1.0,5.0,0.004927158355712891,5.542233943939209,0.4841680956219003,99.0,996.0,0.0
R,U,"[5, 10]",1.0,6.0,0.3402230739593506,1.8755710124969482,0.5263512505218559,99.0,997.0,0.0
R,U,"[4, 10]",1.0,7.0,0.173583984375,1.4835619926452637,0.32675958083686074,99.0,998.0,0.0
B,L,"[4, 9]",1.0,8.0,0.22517013549804688,1.843122959136963,0.6198543153562498,99.0,999.0,0.0
R,U,"[3, 9]",-1.0,8.0,0.0388031005859375,5.366904973983765,0.27009161301495904,99.0,1000.0,0.0
