button_choice,action_choice,coordinate_choice,reward,cumulative_reward,rt,total_trial_time,iti,block_n,trial_n,trial_type
Y,R,"[6, 7]",0.0,0.0,0.8719909191131592,2.6984899044036865,0.7324338819545078,0.0,1.0,0.0
R,U,"[5, 7]",1.0,1.0,0.4568450450897217,1.9226129055023193,0.3555501680545518,0.0,2.0,0.0
B,L,"[5, 6]",1.0,2.0,0.39624714851379395,2.2413442134857178,0.7465075525781948,0.0,3.0,0.0
G,D,"[6, 6]",0.0,2.0,0.2964439392089844,1.6910030841827393,0.2880109732027476,0.0,4.0,0.0
B,L,"[6, 5]",0.0,2.0,0.24894118309020996,1.8061699867248535,0.46070547936124207,0.0,5.0,0.0
Y,R,"[6, 6]",0.0,2.0,0.22904491424560547,2.0615971088409424,0.7386956803639785,0.0,6.0,0.0
R,U,"[5, 6]",0.0,2.0,0.25357913970947266,1.717177152633667,0.37298172685177755,0.0,7.0,0.0
B,L,"[5, 5]",0.0,2.0,0.20687222480773926,1.921678066253662,0.6112365076897848,0.0,8.0,0.0
G,D,"[6, 5]",0.0,2.0,0.24148201942443848,1.801138162612915,0.4624895466795824,0.0,9.0,0.0
R,U,"[5, 5]",0.0,2.0,0.29931092262268066,1.9365789890289307,0.5490860886251021,0.0,10.0,0.0
,,"(6, 6)",,,,,,,,
R,U,"[5, 6]",1.0,1.0,0.6121349334716797,3.7776801586151123,0.3936626486702589,1.0,11.0,0.0
R,U,"[4, 6]",0.0,1.0,0.3880939483642578,1.999445915222168,0.4928972849491237,1.0,12.0,0.0
Y,R,"[4, 7]",0.0,1.0,0.5218830108642578,2.105531930923462,0.481951141580674,1.0,13.0,0.0
G,D,"[5, 7]",1.0,2.0,0.24328899383544922,1.8724210262298584,0.5210433143193336,1.0,14.0,0.0
G,D,"[6, 7]",0.0,2.0,0.1743638515472412,1.9724419116973877,0.6932479525624,1.0,15.0,0.0
B,L,"[6, 6]",0.0,2.0,0.20417213439941406,1.5635638236999512,0.27387644804601446,1.0,16.0,0.0
R,U,"[5, 6]",0.0,2.0,0.36063694953918457,1.8637809753417969,0.40429229883688506,1.0,17.0,0.0
Y,R,"[5, 7]",0.0,2.0,0.21604609489440918,1.8647840023040771,0.5522005427757994,1.0,18.0,0.0
G,D,"[6, 7]",0.0,2.0,0.17736506462097168,1.554513931274414,0.2736872080791475,1.0,19.0,0.0
B,L,"[6, 6]",0.0,2.0,0.28339600563049316,1.8858120441436768,0.5093865873069554,1.0,20.0,0.0
,,"(6, 6)",,,,,,,,
Y,R,"[6, 7]",0.0,0.0,0.4428229331970215,3.6981570720672607,0.6408190343391004,2.0,21.0,0.0
Y,R,"[6, 8]",1.0,1.0,0.37931299209594727,1.7469141483306885,0.2716436885314412,2.0,22.0,0.0
Y,R,"[6, 9]",1.0,2.0,0.4355740547180176,1.8073551654815674,0.2789495866078363,2.0,23.0,0.0
Y,R,"[6, 10]",1.0,3.0,0.4023091793060303,2.191075086593628,0.7028934151916876,2.0,24.0,0.0
Y,R,"[6, 11]",0.0,3.0,0.21583104133605957,1.690432071685791,0.3769282559724961,2.0,25.0,0.0
R,U,"[5, 11]",0.0,3.0,0.23208999633789062,1.7934339046478271,0.4704381541882781,2.0,26.0,0.0
B,L,"[5, 10]",1.0,4.0,0.16488194465637207,1.7958440780639648,0.5330596605172686,2.0,27.0,0.0
B,L,"[5, 9]",0.0,4.0,0.47339892387390137,2.0017249584198,0.4181307356476811,2.0,28.0,0.0
G,D,"[6, 9]",0.0,4.0,0.31249189376831055,2.043142080307007,0.6278627923358966,2.0,29.0,0.0
B,L,"[6, 8]",0.0,4.0,0.31246495246887207,2.1065759658813477,0.7009069808617672,2.0,30.0,0.0
,,"(6, 6)",,,,,,,,
R,U,"[5, 6]",1.0,1.0,0.5024771690368652,3.4542999267578125,0.35571443747610204,3.0,31.0,0.0
R,U,"[4, 6]",0.0,1.0,0.36251282691955566,1.9187629222869873,0.4578113458226835,3.0,32.0,0.0
Y,R,"[4, 7]",0.0,1.0,0.19127297401428223,1.852311134338379,0.5601512008614213,3.0,33.0,0.0
G,D,"[5, 7]",1.0,2.0,0.1061239242553711,1.6369881629943848,0.43049516668325005,3.0,34.0,0.0
B,L,"[5, 6]",0.0,2.0,0.2742280960083008,2.005463123321533,0.6190898580873136,3.0,35.0,0.0
G,D,"[6, 6]",0.0,2.0,0.20825695991516113,1.8393011093139648,0.525207526046322,3.0,36.0,0.0
R,U,"[5, 6]",0.0,2.0,0.3458418846130371,1.9158661365509033,0.4747011933631376,3.0,37.0,0.0
Y,R,"[5, 7]",0.0,2.0,0.2822239398956299,1.8425450325012207,0.46715610064892105,3.0,38.0,0.0
B,L,"[5, 6]",0.0,2.0,0.19943904876708984,2.039168119430542,0.7394496545898356,3.0,39.0,0.0
G,D,"[6, 6]",0.0,2.0,0.2540161609649658,1.6571519374847412,0.2970433913241628,3.0,40.0,0.0
,,"(6, 6)",,,,,,,,
R,U,"[5, 6]",-2.0,0.0,1.0642309188842773,5.202638864517212,0.5997158564885354,4.0,41.0,0.0
Y,R,"[5, 7]",1.0,1.0,0.606086015701294,2.1360888481140137,0.40207217038117543,4.0,42.0,0.0
Y,R,"[5, 8]",1.0,2.0,0.28632402420043945,1.6871459484100342,0.3065960683971838,4.0,43.0,0.0
Y,R,"[5, 9]",0.0,2.0,0.4018540382385254,2.1269371509552,0.6332104566292323,4.0,44.0,0.0
G,D,"[6, 9]",1.0,3.0,0.22674918174743652,1.6070210933685303,0.2738934053920231,4.0,45.0,0.0
B,L,"[6, 8]",1.0,4.0,0.43686985969543457,2.1287169456481934,0.6023182855302068,4.0,46.0,0.0
G,D,"[7, 8]",0.0,4.0,0.36661505699157715,1.8651149272918701,0.40099872881515364,4.0,47.0,0.0
B,L,"[7, 7]",0.0,4.0,0.25310492515563965,1.935615062713623,0.5865452509840545,4.0,48.0,0.0
R,U,"[6, 7]",0.0,4.0,0.605180025100708,2.274932861328125,0.5614996217540869,4.0,49.0,0.0
Y,R,"[6, 8]",0.0,4.0,0.21619200706481934,1.6732289791107178,0.3682993358910363,4.0,50.0,0.0
,,"(6, 6)",,,,,,,,
Y,R,"[6, 7]",0.0,0.0,0.6889808177947998,6.869507074356079,0.4711875603677711,5.0,51.0,0.0
R,U,"[5, 7]",1.0,1.0,0.20754194259643555,1.6979219913482666,0.38583328159024005,5.0,52.0,0.0
Y,R,"[5, 8]",1.0,2.0,0.2482588291168213,1.8759288787841797,0.5284905981685073,5.0,53.0,0.0
Y,R,"[5, 9]",0.0,2.0,0.2838709354400635,1.8855230808258057,0.5140488975480023,5.0,54.0,0.0
G,D,"[6, 9]",1.0,3.0,0.22293496131896973,2.0412309169769287,0.7049390782070096,5.0,55.0,0.0
B,L,"[6, 8]",1.0,4.0,0.2885560989379883,1.9665710926055908,0.5885091106859923,5.0,56.0,0.0
G,D,"[7, 8]",0.0,4.0,0.3318808078765869,1.7479610443115234,0.3200126044103903,5.0,57.0,0.0
Y,R,"[7, 9]",0.0,4.0,0.2961859703063965,1.7902209758758545,0.3935638913028142,5.0,58.0,0.0
R,U,"[6, 9]",0.0,4.0,0.212083101272583,1.5741851329803467,0.2678243894696984,5.0,59.0,0.0
B,L,"[6, 8]",0.0,4.0,0.28926587104797363,2.0514490604400635,0.6523410476714371,5.0,60.0,0.0
,,"(6, 6)",,,,,,,,
R,U,"[5, 6]",-2.0,0.0,1.3520209789276123,5.450530052185059,0.5364748053981118,6.0,61.0,0.0
R,U,"[4, 6]",0.0,0.0,0.4336230754852295,2.2505362033843994,0.7202193482488675,6.0,62.0,0.0
Y,R,"[4, 7]",0.0,0.0,0.17671489715576172,1.6416258811950684,0.36225346385804996,6.0,63.0,0.0
G,D,"[5, 7]",1.0,1.0,0.21577692031860352,1.6194350719451904,0.3151136298212058,6.0,64.0,0.0
B,L,"[5, 6]",0.0,1.0,0.2262871265411377,1.71822190284729,0.38338443397743116,6.0,65.0,0.0
G,D,"[6, 6]",0.0,1.0,0.26508402824401855,1.7833409309387207,0.41667606089995834,6.0,66.0,0.0
B,L,"[6, 5]",0.0,1.0,0.2104189395904541,1.823011875152588,0.5062839861160087,6.0,67.0,0.0
Y,R,"[6, 6]",0.0,1.0,0.7248539924621582,2.492460012435913,0.6653902102026924,6.0,68.0,0.0
R,U,"[5, 6]",0.0,1.0,0.16774892807006836,1.5589261054992676,0.2913433856407577,6.0,69.0,0.0
R,U,"[4, 6]",0.0,1.0,0.500809907913208,1.9471409320831299,0.3549886743958499,6.0,70.0,0.0
,,"(6, 6)",,,,,,,,
R,U,"[5, 6]",1.0,1.0,0.7223670482635498,8.52529501914978,0.3807303304534277,7.0,71.0,0.0
Y,R,"[5, 7]",1.0,2.0,0.2788279056549072,2.1153829097747803,0.7293826345390382,7.0,72.0,0.0
Y,R,"[5, 8]",1.0,3.0,0.2114238739013672,1.7336127758026123,0.41282444483911346,7.0,73.0,0.0
G,D,"[6, 8]",1.0,4.0,0.322206974029541,1.7042529582977295,0.2673575776422679,7.0,74.0,0.0
B,L,"[6, 7]",0.0,4.0,0.41895103454589844,2.1126770973205566,0.5964099622872898,7.0,75.0,0.0
G,D,"[7, 7]",0.0,4.0,0.19048404693603516,1.727524995803833,0.42410260794942767,7.0,76.0,0.0
Y,R,"[7, 8]",0.0,4.0,0.19585585594177246,1.755687952041626,0.4631882889483838,7.0,77.0,0.0
R,U,"[6, 8]",0.0,4.0,0.143280029296875,1.7902510166168213,0.5363509808996265,7.0,78.0,0.0
R,U,"[5, 8]",0.0,4.0,0.21192288398742676,1.9439630508422852,0.6307076241104754,7.0,79.0,0.0
Y,R,"[5, 9]",-2.0,4.0,1.211143970489502,2.6545510292053223,0.4021502651138532,7.0,80.0,0.0
,,"(6, 6)",,,,,,,,
R,U,"[5, 6]",1.0,1.0,0.6567099094390869,5.7067930698394775,0.2592588356031869,8.0,81.0,0.0
Y,R,"[5, 7]",1.0,2.0,0.45840001106262207,2.0971720218658447,0.5395144110249592,8.0,82.0,0.0
Y,R,"[5, 8]",1.0,3.0,0.24567008018493652,2.000898838043213,0.6569471485091272,8.0,83.0,0.0
Y,R,"[5, 9]",0.0,3.0,0.3387138843536377,2.147505044937134,0.7044503684366489,8.0,84.0,0.0
G,D,"[6, 9]",1.0,4.0,0.24782204627990723,1.6152238845825195,0.2701672589534531,8.0,85.0,0.0
B,L,"[6, 8]",1.0,5.0,0.3715360164642334,1.8830840587615967,0.4031506996388119,8.0,86.0,0.0
G,D,"[7, 8]",0.0,5.0,0.27190589904785156,2.1035659313201904,0.739902638172456,8.0,87.0,0.0
R,U,"[6, 8]",0.0,5.0,0.1699509620666504,1.884047031402588,0.6239298365284422,8.0,88.0,0.0
Y,R,"[6, 9]",0.0,5.0,0.5365328788757324,2.3503849506378174,0.7243120081069353,8.0,89.0,0.0
G,D,"[7, 9]",0.0,5.0,0.21775412559509277,1.7753899097442627,0.46665903557460947,8.0,90.0,0.0
,,"(6, 6)",,,,,,,,
R,U,"[5, 6]",1.0,1.0,0.6114280223846436,5.103792190551758,0.2876423133892596,9.0,91.0,0.0
Y,R,"[5, 7]",1.0,2.0,0.40801310539245605,1.8457279205322266,0.3331624631680236,9.0,92.0,0.0
Y,R,"[5, 8]",1.0,3.0,0.45853495597839355,2.216588020324707,0.666124421256898,9.0,93.0,0.0
G,D,"[6, 8]",1.0,4.0,0.32004690170288086,2.0395710468292236,0.6225250575968837,9.0,94.0,0.0
B,L,"[6, 7]",0.0,4.0,0.32567286491394043,1.7712910175323486,0.3441009752041885,9.0,95.0,0.0
G,D,"[7, 7]",0.0,4.0,0.25362682342529297,1.604579210281372,0.26550885967585974,9.0,96.0,0.0
B,L,"[7, 6]",0.0,4.0,0.19542288780212402,1.5611779689788818,0.2600242220208238,9.0,97.0,0.0
G,D,"[8, 6]",0.0,4.0,0.5398001670837402,1.9983010292053223,0.35822938084375683,9.0,98.0,0.0
B,L,"[8, 5]",0.0,4.0,0.16256213188171387,1.9356610774993896,0.6769587206616092,9.0,99.0,0.0
G,D,"[9, 5]",0.0,4.0,0.18937993049621582,1.8183441162109375,0.5288264062198929,9.0,100.0,0.0
,,"(6, 6)",,,,,,,,
R,U,"[5, 6]",1.0,1.0,0.4773979187011719,3.4666900634765625,0.49544025877866,10.0,101.0,0.0
Y,R,"[5, 7]",1.0,2.0,0.307981014251709,1.7290778160095215,0.32470419725939104,10.0,102.0,0.0
Y,R,"[5, 8]",1.0,3.0,0.4391770362854004,2.0261499881744385,0.484316237536665,10.0,103.0,0.0
G,D,"[6, 8]",1.0,4.0,0.3335888385772705,2.0571839809417725,0.6247450458822219,10.0,104.0,0.0
G,D,"[7, 8]",0.0,4.0,0.24864983558654785,2.002737045288086,0.6607093979977573,10.0,105.0,0.0
B,L,"[7, 7]",0.0,4.0,0.19669890403747559,1.8818349838256836,0.592803513139468,10.0,106.0,0.0
G,D,"[8, 7]",0.0,4.0,0.20243310928344727,1.7269959449768066,0.43666447495839533,10.0,107.0,0.0
Y,R,"[8, 8]",0.0,4.0,0.27239394187927246,1.8787288665771484,0.51531292980454,10.0,108.0,0.0
R,U,"[7, 8]",0.0,4.0,0.21090292930603027,1.995393991470337,0.6773625533136189,10.0,109.0,0.0
B,L,"[7, 7]",0.0,4.0,0.37581419944763184,2.0693249702453613,0.5968849499020658,10.0,110.0,0.0
,,"(6, 6)",,,,,,,,
R,U,"[5, 6]",1.0,1.0,0.44108009338378906,3.4765520095825195,0.47354561099361175,11.0,111.0,0.0
Y,R,"[5, 7]",1.0,2.0,0.268812894821167,1.8042190074920654,0.44452220352558286,11.0,112.0,0.0
Y,R,"[5, 8]",1.0,3.0,0.23810601234436035,1.7942018508911133,0.4554089034203391,11.0,113.0,0.0
G,D,"[6, 8]",1.0,4.0,0.28577589988708496,1.7933979034423828,0.41557334280657543,11.0,114.0,0.0
B,L,"[6, 7]",0.0,4.0,0.3629758358001709,1.9469399452209473,0.4791052503838246,11.0,115.0,0.0
G,D,"[7, 7]",0.0,4.0,0.24892210960388184,1.9076859951019287,0.569938750609928,11.0,116.0,0.0
Y,R,"[7, 8]",0.0,4.0,0.29202890396118164,2.027406930923462,0.6307157562491612,11.0,117.0,0.0
R,U,"[6, 8]",0.0,4.0,0.23487114906311035,1.671854019165039,0.33616231959898263,11.0,118.0,0.0
B,L,"[6, 7]",0.0,4.0,0.2392730712890625,1.789642095565796,0.4424435666653199,11.0,119.0,0.0
G,D,"[7, 7]",0.0,4.0,0.17914605140686035,1.6059620380401611,0.33199812845796167,11.0,120.0,0.0
,,"(6, 6)",,,,,,,,
R,U,"[5, 6]",1.0,1.0,0.39520978927612305,3.1588900089263916,0.47392103495729027,12.0,121.0,0.0
Y,R,"[5, 7]",1.0,2.0,0.22644996643066406,2.034557819366455,0.7086038682393848,12.0,122.0,0.0
Y,R,"[5, 8]",1.0,3.0,0.21317696571350098,1.563429832458496,0.25564386180425597,12.0,123.0,0.0
G,D,"[6, 8]",1.0,4.0,0.36783695220947266,2.0917558670043945,0.6305364137052887,12.0,124.0,0.0
Y,R,"[6, 9]",1.0,5.0,0.2377610206604004,1.6417670249938965,0.305980814028877,12.0,125.0,0.0
Y,R,"[6, 10]",1.0,6.0,0.3393900394439697,2.002305030822754,0.5580596762993915,12.0,126.0,0.0
G,D,"[7, 10]",0.0,6.0,0.257565975189209,2.037539005279541,0.6788044306366319,12.0,127.0,0.0
B,L,"[7, 9]",0.0,6.0,0.19140005111694336,1.819314956665039,0.5316096661754023,12.0,128.0,0.0
R,U,"[6, 9]",0.0,6.0,0.2019200325012207,1.963266134262085,0.6615723608094062,12.0,129.0,0.0
Y,R,"[6, 10]",0.0,6.0,0.23824191093444824,1.5973999500274658,0.25939297486574703,12.0,130.0,0.0
,,"(6, 6)",,,,,,,,
R,U,"[5, 6]",1.0,1.0,0.5159740447998047,7.194469928741455,0.6204233121741567,13.0,131.0,0.0
Y,R,"[5, 7]",1.0,2.0,0.7147610187530518,2.2894790172576904,0.47675746399011304,13.0,132.0,0.0
Y,R,"[5, 8]",1.0,3.0,0.3381218910217285,2.0713510513305664,0.6312304029291269,13.0,133.0,0.0
G,D,"[6, 8]",1.0,4.0,0.2726120948791504,1.8543081283569336,0.46916982926327494,13.0,134.0,0.0
Y,R,"[6, 9]",1.0,5.0,0.3169589042663574,1.8931469917297363,0.4789158885359315,13.0,135.0,0.0
Y,R,"[6, 10]",1.0,6.0,0.2736239433288574,1.922119140625,0.5510049052309797,13.0,136.0,0.0
B,L,"[6, 9]",0.0,6.0,0.23543596267700195,1.8145480155944824,0.48240807159578486,13.0,137.0,0.0
R,U,"[5, 9]",0.0,6.0,0.11376309394836426,1.8215558528900146,0.6037035202676198,13.0,138.0,0.0
R,U,"[4, 9]",1.0,7.0,0.1936659812927246,1.9058799743652344,0.609824005447499,13.0,139.0,0.0
B,L,"[4, 8]",0.0,7.0,0.13419008255004883,1.8003032207489014,0.5769104283774558,13.0,140.0,0.0
,,"(6, 6)",,,,,,,,
R,U,"[5, 6]",1.0,1.0,0.4998011589050293,4.357251882553101,0.517543208362141,14.0,141.0,0.0
Y,R,"[5, 7]",1.0,2.0,0.26143693923950195,1.826253890991211,0.4605273916010336,14.0,142.0,0.0
Y,R,"[5, 8]",1.0,3.0,0.3281209468841553,1.7085249423980713,0.2859878863606693,14.0,143.0,0.0
G,D,"[6, 8]",1.0,4.0,0.4112870693206787,2.1528079509735107,0.6385855911718055,14.0,144.0,0.0
Y,R,"[6, 9]",1.0,5.0,0.3484799861907959,1.967979907989502,0.5232504032075476,14.0,145.0,0.0
Y,R,"[6, 10]",1.0,6.0,0.3029460906982422,1.7542388439178467,0.36113888351929846,14.0,146.0,0.0
R,U,"[5, 10]",1.0,7.0,0.2718019485473633,2.0036230087280273,0.6144940231399696,14.0,147.0,0.0
R,U,"[4, 10]",1.0,8.0,0.2171950340270996,1.6797480583190918,0.36128210026891755,14.0,148.0,0.0
B,L,"[4, 9]",1.0,9.0,0.23890280723571777,1.8179690837860107,0.47917783797235086,14.0,149.0,0.0
R,U,"[3, 9]",1.0,10.0,0.27298402786254883,2.003749132156372,0.6327834216819573,14.0,150.0,0.0
,,"(6, 6)",,,,,,,,
R,U,"[5, 6]",1.0,1.0,0.6595761775970459,3.7402639389038086,0.2902477376385495,15.0,151.0,0.0
Y,R,"[5, 7]",1.0,2.0,0.2965409755706787,1.930577039718628,0.5370955392227208,15.0,152.0,0.0
Y,R,"[5, 8]",1.0,3.0,0.27443599700927734,1.9066319465637207,0.5271064869324349,15.0,153.0,0.0
G,D,"[6, 8]",1.0,4.0,0.27933788299560547,2.082462787628174,0.7100053856341058,15.0,154.0,0.0
Y,R,"[6, 9]",1.0,5.0,0.21678590774536133,1.6381690502166748,0.3313338043178981,15.0,155.0,0.0
Y,R,"[6, 10]",1.0,6.0,0.3598310947418213,1.844290018081665,0.37568260388410973,15.0,156.0,0.0
R,U,"[5, 10]",1.0,7.0,0.3586118221282959,1.901926040649414,0.44433797805595265,15.0,157.0,0.0
R,U,"[4, 10]",1.0,8.0,0.23955011367797852,1.9968929290771484,0.6576016165709897,15.0,158.0,0.0
B,L,"[4, 9]",1.0,9.0,0.221574068069458,1.6962699890136719,0.3709116724529704,15.0,159.0,0.0
R,U,"[3, 9]",1.0,10.0,0.34166407585144043,2.1700680255889893,0.7239379440699886,15.0,160.0,0.0
,,"(6, 6)",,,,,,,,
R,U,"[5, 6]",1.0,1.0,0.6203930377960205,3.44504714012146,0.46952432738940464,16.0,161.0,0.0
Y,R,"[5, 7]",1.0,2.0,0.2713639736175537,1.9651379585266113,0.6011566847529801,16.0,162.0,0.0
Y,R,"[5, 8]",1.0,3.0,0.32177305221557617,1.9681618213653564,0.5360896844248608,16.0,163.0,0.0
G,D,"[6, 8]",1.0,4.0,0.2781181335449219,1.8407340049743652,0.4601587260051882,16.0,164.0,0.0
Y,R,"[6, 9]",1.0,5.0,0.2888200283050537,2.029447078704834,0.6395947135156925,16.0,165.0,0.0
Y,R,"[6, 10]",1.0,6.0,0.25443100929260254,1.6554579734802246,0.31207843471265684,16.0,166.0,0.0
R,U,"[5, 10]",1.0,7.0,0.3975520133972168,2.1262340545654297,0.6381405671901705,16.0,167.0,0.0
R,U,"[4, 10]",1.0,8.0,0.3395569324493408,1.870115041732788,0.42514744209603267,16.0,168.0,0.0
B,L,"[4, 9]",1.0,9.0,0.3509809970855713,1.9681050777435303,0.5264451677376294,16.0,169.0,0.0
R,U,"[3, 9]",1.0,10.0,0.26709699630737305,2.0285000801086426,0.6714996693000264,16.0,170.0,0.0
,,"(6, 6)",,,,,,,,
R,U,"[5, 6]",1.0,1.0,0.5495038032531738,3.4841501712799072,0.4394145953436822,17.0,171.0,0.0
Y,R,"[5, 7]",1.0,2.0,0.2839171886444092,1.8737220764160156,0.4963961458601537,17.0,172.0,0.0
Y,R,"[5, 8]",1.0,3.0,0.32557010650634766,1.872992992401123,0.4360692050504592,17.0,173.0,0.0
G,D,"[6, 8]",1.0,4.0,0.26082301139831543,2.0677568912506104,0.7035955493232269,17.0,174.0,0.0
Y,R,"[6, 9]",1.0,5.0,0.19475603103637695,1.7417821884155273,0.44573929753688446,17.0,175.0,0.0
Y,R,"[6, 10]",1.0,6.0,0.30701184272766113,1.7672090530395508,0.3630932151796654,17.0,176.0,0.0
R,U,"[5, 10]",1.0,7.0,0.27450990676879883,1.6689400672912598,0.28216351269735457,17.0,177.0,0.0
R,U,"[4, 10]",1.0,8.0,0.36600208282470703,2.1701111793518066,0.7018590320263438,17.0,178.0,0.0
B,L,"[4, 9]",1.0,9.0,0.22863411903381348,1.937830924987793,0.6065596574251506,17.0,179.0,0.0
R,U,"[3, 9]",1.0,10.0,0.26796603202819824,1.8937668800354004,0.5337154803820421,17.0,180.0,0.0
,,"(6, 6)",,,,,,,,
R,U,"[5, 6]",1.0,1.0,0.5265281200408936,5.873389959335327,0.7237457998281622,18.0,181.0,0.0
Y,R,"[5, 7]",1.0,2.0,0.2488088607788086,1.8738479614257812,0.5312940270732154,18.0,182.0,0.0
Y,R,"[5, 8]",1.0,3.0,0.26656198501586914,1.9339179992675781,0.565202500434441,18.0,183.0,0.0
G,D,"[6, 8]",1.0,4.0,0.39850282669067383,1.779984951019287,0.27875909388714415,18.0,184.0,0.0
Y,R,"[6, 9]",1.0,5.0,0.2895939350128174,2.1235299110412598,0.7352409727662412,18.0,185.0,0.0
Y,R,"[6, 10]",1.0,6.0,0.2303450107574463,1.7949328422546387,0.4637770019377918,18.0,186.0,0.0
R,U,"[5, 10]",1.0,7.0,0.2855348587036133,1.8221228122711182,0.43611455518439307,18.0,187.0,0.0
R,U,"[4, 10]",1.0,8.0,0.3009178638458252,1.660649061203003,0.2635667773391833,18.0,188.0,0.0
B,L,"[4, 9]",1.0,9.0,0.282365083694458,1.8311989307403564,0.44459586370313015,18.0,189.0,0.0
R,U,"[3, 9]",1.0,10.0,0.23061299324035645,1.8954598903656006,0.5732525410569579,18.0,190.0,0.0
,,"(6, 6)",,,,,,,,
R,U,"[5, 6]",1.0,1.0,0.6017160415649414,3.912654161453247,0.46946831814958906,19.0,191.0,0.0
Y,R,"[5, 7]",1.0,2.0,0.3089010715484619,2.0537309646606445,0.639672370509933,19.0,192.0,0.0
Y,R,"[5, 8]",1.0,3.0,0.22417807579040527,1.583683967590332,0.2571581244517541,19.0,193.0,0.0
G,D,"[6, 8]",1.0,4.0,0.48188090324401855,2.1365280151367188,0.5600492561816474,19.0,194.0,0.0
Y,R,"[6, 9]",1.0,5.0,0.21872806549072266,1.7105159759521484,0.40410038142436033,19.0,195.0,0.0
Y,R,"[6, 10]",1.0,6.0,0.3226940631866455,2.159562110900879,0.7300665201523933,19.0,196.0,0.0
R,U,"[5, 10]",1.0,7.0,0.21648001670837402,1.923008918762207,0.6032225724474303,19.0,197.0,0.0
R,U,"[4, 10]",1.0,8.0,0.30452704429626465,1.7527220249176025,0.3396413746573141,19.0,198.0,0.0
B,L,"[4, 9]",1.0,9.0,0.3240208625793457,2.108760118484497,0.6814116679435014,19.0,199.0,0.0
R,U,"[3, 9]",1.0,10.0,0.22180509567260742,1.815337896347046,0.4803549183405858,19.0,200.0,0.0
,,"(6, 6)",,,,,,,,
R,U,"[5, 6]",1.0,1.0,0.6357789039611816,3.6023108959198,0.3827525249131477,20.0,201.0,0.0
Y,R,"[5, 7]",1.0,2.0,0.36475491523742676,1.9500148296356201,0.4829388187006572,20.0,202.0,0.0
Y,R,"[5, 8]",1.0,3.0,0.25870418548583984,2.0242769718170166,0.6569579293283233,20.0,203.0,0.0
G,D,"[6, 8]",1.0,4.0,0.19922685623168945,1.6571741104125977,0.3645715169265116,20.0,204.0,0.0
Y,R,"[6, 9]",1.0,5.0,0.24865293502807617,1.8913609981536865,0.538989805787115,20.0,205.0,0.0
Y,R,"[6, 10]",1.0,6.0,0.22632908821105957,1.9206089973449707,0.5929719635069626,20.0,206.0,0.0
R,U,"[5, 10]",1.0,7.0,0.22272014617919922,1.825423002243042,0.5018758077982839,20.0,207.0,0.0
R,U,"[4, 10]",1.0,8.0,0.259598970413208,1.898576021194458,0.5338066726677677,20.0,208.0,0.0
B,L,"[4, 9]",1.0,9.0,0.25253796577453613,1.8616759777069092,0.5123096025623324,20.0,209.0,0.0
R,U,"[3, 9]",1.0,10.0,0.25261902809143066,1.9421210289001465,0.604082476165055,20.0,210.0,0.0
,,"(6, 6)",,,,,,,,
R,U,"[5, 6]",1.0,1.0,0.5616028308868408,3.175057888031006,0.6793218064617853,21.0,211.0,0.0
Y,R,"[5, 7]",1.0,2.0,0.3347969055175781,1.7348101139068604,0.2979341024631072,21.0,212.0,0.0
Y,R,"[5, 8]",1.0,3.0,0.40538787841796875,2.1549150943756104,0.635870782085492,21.0,213.0,0.0
G,D,"[6, 8]",1.0,4.0,0.23329806327819824,1.5865650177001953,0.2561271281757989,21.0,214.0,0.0
Y,R,"[6, 9]",1.0,5.0,0.33899807929992676,1.9860601425170898,0.5417894750086891,21.0,215.0,0.0
Y,R,"[6, 10]",1.0,6.0,0.25084495544433594,1.784512996673584,0.4433014156932764,21.0,216.0,0.0
R,U,"[5, 10]",1.0,7.0,0.2594151496887207,1.9612560272216797,0.6044688667353983,21.0,217.0,0.0
R,U,"[4, 10]",1.0,8.0,0.24034881591796875,1.8670990467071533,0.5216673122577682,21.0,218.0,0.0
B,L,"[4, 9]",1.0,9.0,0.2702450752258301,2.0961360931396484,0.7342549943392098,21.0,219.0,0.0
R,U,"[3, 9]",1.0,10.0,0.2553269863128662,2.0470919609069824,0.69819693362035,21.0,220.0,0.0
,,"(6, 6)",,,,,,,,
R,U,"[5, 6]",1.0,1.0,0.5843770503997803,3.931351900100708,0.4298888792912521,22.0,221.0,0.0
Y,R,"[5, 7]",1.0,2.0,0.3372938632965088,1.9277949333190918,0.4909938275032143,22.0,222.0,0.0
Y,R,"[5, 8]",1.0,3.0,0.30966711044311523,1.8431849479675293,0.43442048061563265,22.0,223.0,0.0
B,L,"[5, 7]",0.0,3.0,0.6516819000244141,2.334296941757202,0.5852356798919767,22.0,224.0,0.0
G,D,"[6, 7]",0.0,3.0,0.26757192611694336,2.0629680156707764,0.6980220357851538,22.0,225.0,0.0
R,U,"[5, 7]",0.0,3.0,0.3458840847015381,1.8007018566131592,0.34919440555895553,22.0,226.0,0.0
R,U,"[4, 7]",0.0,3.0,0.27275586128234863,2.0310168266296387,0.6466026558865792,22.0,227.0,0.0
B,L,"[4, 6]",0.0,3.0,0.3985459804534912,1.9418060779571533,0.4387434252089823,22.0,228.0,0.0
R,U,"[3, 6]",0.0,3.0,0.2574620246887207,1.9416708946228027,0.5802583271431772,22.0,229.0,0.0
R,U,"[2, 6]",0.0,3.0,0.19866490364074707,1.787390947341919,0.48442152783341086,22.0,230.0,0.0
,,"(6, 6)",,,,,,,,
R,U,"[5, 6]",1.0,1.0,0.41686010360717773,3.414882183074951,0.4827213015738997,23.0,231.0,0.0
Y,R,"[5, 7]",1.0,2.0,0.285660982131958,2.0988380908966064,0.7147379242579608,23.0,232.0,0.0
Y,R,"[5, 8]",1.0,3.0,0.2565782070159912,2.0052061080932617,0.6368279211210474,23.0,233.0,0.0
G,D,"[6, 8]",1.0,4.0,0.22853994369506836,2.0209639072418213,0.6909552149550866,23.0,234.0,0.0
Y,R,"[6, 9]",1.0,5.0,0.22301483154296875,1.9449458122253418,0.6195191822317905,23.0,235.0,0.0
Y,R,"[6, 10]",1.0,6.0,0.282149076461792,1.8538649082183838,0.4735395660709952,23.0,236.0,0.0
R,U,"[5, 10]",1.0,7.0,0.2682061195373535,1.66805100440979,0.30844297691082745,23.0,237.0,0.0
R,U,"[4, 10]",1.0,8.0,0.3593928813934326,1.780043125152588,0.3218075941890381,23.0,238.0,0.0
B,L,"[4, 9]",1.0,9.0,0.28228282928466797,1.9396119117736816,0.5612204691920559,23.0,239.0,0.0
R,U,"[3, 9]",1.0,10.0,0.18901586532592773,1.9727909564971924,0.6839320556544184,23.0,240.0,0.0
,,"(6, 6)",,,,,,,,
R,U,"[5, 6]",1.0,1.0,0.7709381580352783,3.937648057937622,0.40539627470467643,24.0,241.0,0.0
Y,R,"[5, 7]",1.0,2.0,0.35954785346984863,1.719007968902588,0.257824694490284,24.0,242.0,0.0
Y,R,"[5, 8]",1.0,3.0,0.41016101837158203,1.9472079277038574,0.43818390778472505,24.0,243.0,0.0
G,D,"[6, 8]",1.0,4.0,0.25112390518188477,1.6342549324035645,0.2893631706837483,24.0,244.0,0.0
Y,R,"[6, 9]",1.0,5.0,0.33269405364990234,1.9959001541137695,0.5684532257360331,24.0,245.0,0.0
Y,R,"[6, 10]",1.0,6.0,0.2149951457977295,2.049828052520752,0.7346475896361322,24.0,246.0,0.0
R,U,"[5, 10]",1.0,7.0,0.25501084327697754,1.816464900970459,0.4514915819219512,24.0,247.0,0.0
R,U,"[4, 10]",1.0,8.0,0.2664151191711426,1.7157089710235596,0.3506871265313068,24.0,248.0,0.0
B,L,"[4, 9]",1.0,9.0,0.3365950584411621,2.0662081241607666,0.6333916746784238,24.0,249.0,0.0
R,U,"[3, 9]",1.0,10.0,0.24103498458862305,2.050626039505005,0.7007064980535138,24.0,250.0,0.0
,,"(6, 6)",,,,,,,,
R,U,"[5, 6]",1.0,1.0,0.6741700172424316,3.6361780166625977,0.686988102604333,25.0,251.0,0.0
Y,R,"[5, 7]",1.0,2.0,0.280303955078125,1.7438960075378418,0.36447933141737643,25.0,252.0,0.0
Y,R,"[5, 8]",1.0,3.0,0.30979013442993164,1.9631199836730957,0.5441053737465572,25.0,253.0,0.0
G,D,"[6, 8]",1.0,4.0,0.274852991104126,2.1039700508117676,0.7312944944214029,25.0,254.0,0.0
Y,R,"[6, 9]",1.0,5.0,0.42427682876586914,1.9749479293823242,0.4400236719099106,25.0,255.0,0.0
Y,R,"[6, 10]",1.0,6.0,0.2861361503601074,2.0560920238494873,0.6791177691843497,25.0,256.0,0.0
R,U,"[5, 10]",1.0,7.0,0.2312171459197998,2.0174598693847656,0.6800016391242447,25.0,257.0,0.0
R,U,"[4, 10]",1.0,8.0,0.22185921669006348,1.826415777206421,0.506756015712633,25.0,258.0,0.0
B,L,"[4, 9]",1.0,9.0,0.2871370315551758,1.700697898864746,0.3240091045875123,25.0,259.0,0.0
R,U,"[3, 9]",1.0,10.0,0.3039379119873047,1.8354618549346924,0.4264138859407255,25.0,260.0,0.0
,,"(6, 6)",,,,,,,,
R,U,"[5, 6]",1.0,1.0,0.4744529724121094,4.676267862319946,0.6692091698353975,26.0,261.0,0.0
Y,R,"[5, 7]",1.0,2.0,0.2608158588409424,1.620934009552002,0.2571636254609867,26.0,262.0,0.0
Y,R,"[5, 8]",1.0,3.0,0.3969860076904297,2.1114370822906494,0.6183839619417142,26.0,263.0,0.0
G,D,"[6, 8]",1.0,4.0,0.2176680564880371,1.7757480144500732,0.4609647177329797,26.0,264.0,0.0
Y,R,"[6, 9]",1.0,5.0,0.29407787322998047,1.7049078941345215,0.33263863942824057,26.0,265.0,0.0
Y,R,"[6, 10]",1.0,6.0,0.3103320598602295,1.9684991836547852,0.5509499526350621,26.0,266.0,0.0
R,U,"[5, 10]",1.0,7.0,0.24745488166809082,1.7540500164031982,0.40526302171426126,26.0,267.0,0.0
R,U,"[4, 10]",1.0,8.0,0.2778599262237549,1.8496119976043701,0.47148200202299223,26.0,268.0,0.0
B,L,"[4, 9]",1.0,9.0,0.21316313743591309,1.7204790115356445,0.40875176947842584,26.0,269.0,0.0
R,U,"[3, 9]",1.0,10.0,0.3342399597167969,1.718878984451294,0.29434154120549044,26.0,270.0,0.0
,,"(6, 6)",,,,,,,,
R,U,"[5, 6]",1.0,1.0,0.4576871395111084,7.122330904006958,0.6665458156324822,27.0,271.0,0.0
Y,R,"[5, 7]",1.0,2.0,0.24039483070373535,1.736212968826294,0.3860277763735911,27.0,272.0,0.0
Y,R,"[5, 8]",1.0,3.0,0.32056498527526855,1.716472864151001,0.3025483508157847,27.0,273.0,0.0
R,U,"[4, 8]",0.0,3.0,0.6795611381530762,2.1620659828186035,0.38101759076828035,27.0,274.0,0.0
Y,R,"[4, 9]",1.0,4.0,0.3121039867401123,1.718691110610962,0.2997049857719887,27.0,275.0,0.0
Y,R,"[4, 10]",1.0,5.0,0.38430094718933105,2.042407989501953,0.5584976873871833,27.0,276.0,0.0
R,U,"[3, 10]",0.0,5.0,0.2348790168762207,1.6758639812469482,0.3511723726577744,27.0,277.0,0.0
R,U,"[2, 10]",0.0,5.0,0.21858596801757812,1.6070411205291748,0.2913112031617366,27.0,278.0,0.0
B,L,"[2, 9]",0.0,5.0,0.24163198471069336,1.8978219032287598,0.5557060280489529,27.0,279.0,0.0
R,U,"[1, 9]",0.0,5.0,0.11992907524108887,1.6140458583831787,0.40323318250264595,27.0,280.0,0.0
,,"(6, 6)",,,,,,,,
R,U,"[5, 6]",1.0,1.0,0.8827431201934814,4.43369197845459,0.5200015974006033,28.0,281.0,0.0
Y,R,"[5, 7]",1.0,2.0,0.2703089714050293,1.6459529399871826,0.2828630992861434,28.0,282.0,0.0
Y,R,"[5, 8]",1.0,3.0,0.35927605628967285,1.9852781295776367,0.5176805636089201,28.0,283.0,0.0
G,D,"[6, 8]",1.0,4.0,0.2928910255432129,1.9243791103363037,0.5253778874713426,28.0,284.0,0.0
Y,R,"[6, 9]",1.0,5.0,0.22841715812683105,1.9139211177825928,0.5887218744909448,28.0,285.0,0.0
Y,R,"[6, 10]",1.0,6.0,0.23982906341552734,1.7179889678955078,0.3739510400462271,28.0,286.0,0.0
R,U,"[5, 10]",1.0,7.0,0.207244873046875,1.6268470287322998,0.3174889134563706,28.0,287.0,0.0
R,U,"[4, 10]",1.0,8.0,0.2667710781097412,1.8750669956207275,0.5089867606750684,28.0,288.0,0.0
B,L,"[4, 9]",1.0,9.0,0.5073440074920654,1.970020055770874,0.3623177838255457,28.0,289.0,0.0
R,U,"[3, 9]",1.0,10.0,0.2566530704498291,1.9815959930419922,0.627054459855308,28.0,290.0,0.0
,,"(6, 6)",,,,,,,,
R,U,"[5, 6]",1.0,1.0,0.5377371311187744,2.9659860134124756,0.3098648416679471,29.0,291.0,0.0
Y,R,"[5, 7]",1.0,2.0,0.5327410697937012,2.020181179046631,0.3965158747503907,29.0,292.0,0.0
Y,R,"[5, 8]",1.0,3.0,0.2989780902862549,1.7839000225067139,0.3804356116748447,29.0,293.0,0.0
G,D,"[6, 8]",1.0,4.0,0.21128106117248535,1.642685890197754,0.32319888533259933,29.0,294.0,0.0
Y,R,"[6, 9]",1.0,5.0,0.31794309616088867,1.6890099048614502,0.27875123485536424,29.0,295.0,0.0
Y,R,"[6, 10]",1.0,6.0,0.21788406372070312,1.84787917137146,0.5429590072820141,29.0,296.0,0.0
R,U,"[5, 10]",1.0,7.0,0.212723970413208,1.7358429431915283,0.4288671523106227,29.0,297.0,0.0
R,U,"[4, 10]",1.0,8.0,0.21356201171875,2.0110418796539307,0.7062699819256466,29.0,298.0,0.0
B,L,"[4, 9]",1.0,9.0,0.29569220542907715,1.836991786956787,0.4434479743948699,29.0,299.0,0.0
R,U,"[3, 9]",1.0,10.0,0.28642702102661133,1.9670848846435547,0.5937347318106547,29.0,300.0,0.0
,,"(6, 6)",,,,,,,,
R,U,"[5, 6]",1.0,1.0,0.5229191780090332,3.795438051223755,0.489085129994613,30.0,301.0,0.0
Y,R,"[5, 7]",1.0,2.0,0.2990090847015381,2.0483059883117676,0.6538887143524801,30.0,302.0,0.0
Y,R,"[5, 8]",1.0,3.0,0.3036470413208008,1.7013628482818604,0.28895585935637585,30.0,303.0,0.0
G,D,"[6, 8]",1.0,4.0,0.3201630115509033,1.8279168605804443,0.41667280155289066,30.0,304.0,0.0
Y,R,"[6, 9]",1.0,5.0,0.25107288360595703,2.010138988494873,0.6597378576307397,30.0,305.0,0.0
Y,R,"[6, 10]",1.0,6.0,0.24198198318481445,1.796947956085205,0.4568260766698093,30.0,306.0,0.0
R,U,"[5, 10]",1.0,7.0,0.22709298133850098,1.8398399353027344,0.5132270644589099,30.0,307.0,0.0
R,U,"[4, 10]",1.0,8.0,0.33431077003479004,1.973393201828003,0.5365111483216856,30.0,308.0,0.0
B,L,"[4, 9]",1.0,9.0,0.24251389503479004,1.6309969425201416,0.2845260044570911,30.0,309.0,0.0
R,U,"[3, 9]",1.0,10.0,0.2521851062774658,1.8690409660339355,0.5198614310467293,30.0,310.0,0.0
,,"(6, 6)",,,,,,,,
R,U,"[5, 6]",1.0,1.0,0.5056130886077881,3.3707220554351807,0.29059526509665573,31.0,311.0,0.0
Y,R,"[5, 7]",1.0,2.0,0.33307790756225586,2.022036075592041,0.5957696501844607,31.0,312.0,0.0
Y,R,"[5, 8]",1.0,3.0,0.2345731258392334,1.8020038604736328,0.4478859479468398,31.0,313.0,0.0
G,D,"[6, 8]",1.0,4.0,0.18584012985229492,1.612968921661377,0.3275132325889346,31.0,314.0,0.0
Y,R,"[6, 9]",1.0,5.0,0.18482208251953125,1.5952332019805908,0.3227654580766676,31.0,315.0,0.0
Y,R,"[6, 10]",1.0,6.0,0.2150731086730957,1.6349310874938965,0.3242787690841047,31.0,316.0,0.0
R,U,"[5, 10]",1.0,7.0,0.20778584480285645,1.8217511177062988,0.512517857211631,31.0,317.0,0.0
R,U,"[4, 10]",1.0,8.0,0.1975250244140625,1.6135170459747314,0.3094513824449462,31.0,318.0,0.0
B,L,"[4, 9]",1.0,9.0,0.2216958999633789,1.8019871711730957,0.49461032746208666,31.0,319.0,0.0
R,U,"[3, 9]",1.0,10.0,0.19049286842346191,1.608565092086792,0.31987995043625833,31.0,320.0,0.0
,,"(6, 6)",,,,,,,,
R,U,"[5, 6]",1.0,1.0,0.5133969783782959,4.033915042877197,0.7032781496545458,32.0,321.0,0.0
Y,R,"[5, 7]",1.0,2.0,0.15441203117370605,1.9640569686889648,0.7172772044452418,32.0,322.0,0.0
R,U,"[4, 7]",0.0,2.0,0.46034693717956543,2.0000178813934326,0.45080506601064746,32.0,323.0,0.0
G,D,"[5, 7]",0.0,2.0,0.23215484619140625,1.6697499752044678,0.33737715319123984,32.0,324.0,0.0
Y,R,"[5, 8]",1.0,3.0,0.3168179988861084,2.027740955352783,0.614691796106444,32.0,325.0,0.0
Y,R,"[5, 9]",0.0,3.0,0.2143869400024414,1.9129159450531006,0.5942724419301623,32.0,326.0,0.0
R,U,"[4, 9]",1.0,4.0,0.29267096519470215,2.1143360137939453,0.7252490611777873,32.0,327.0,0.0
R,U,"[3, 9]",1.0,5.0,0.19171404838562012,2.0353808403015137,0.7437337488951529,32.0,328.0,0.0
B,L,"[3, 8]",0.0,5.0,0.24844598770141602,1.8655219078063965,0.5262740514430622,32.0,329.0,0.0
R,U,"[2, 8]",-1.0,5.0,0.0807180404663086,5.66600489616394,0.44222702465048885,32.0,330.0,0.0
,,"(6, 6)",,,,,,,,
R,U,"[5, 6]",1.0,1.0,0.5292718410491943,4.45158314704895,0.5602275574036623,33.0,331.0,0.0
Y,R,"[5, 7]",1.0,2.0,0.42668604850769043,1.841599941253662,0.31849713878279584,33.0,332.0,0.0
Y,R,"[5, 8]",1.0,3.0,0.29584813117980957,2.1451339721679688,0.7465234721610075,33.0,333.0,0.0
G,D,"[6, 8]",1.0,4.0,0.2107830047607422,1.5846011638641357,0.26494164946240084,33.0,334.0,0.0
Y,R,"[6, 9]",1.0,5.0,0.22655010223388672,1.6943550109863281,0.35911844185230524,33.0,335.0,0.0
Y,R,"[6, 10]",1.0,6.0,0.2261209487915039,1.6642849445343018,0.34006597227296737,33.0,336.0,0.0
R,U,"[5, 10]",1.0,7.0,0.21747398376464844,1.6794660091400146,0.3694145304844448,33.0,337.0,0.0
R,U,"[4, 10]",1.0,8.0,0.21922707557678223,1.8428230285644531,0.5287962769510044,33.0,338.0,0.0
B,L,"[4, 9]",1.0,9.0,0.19496989250183105,1.9072070121765137,0.6187740268645268,33.0,339.0,0.0
R,U,"[3, 9]",1.0,10.0,0.31841087341308594,1.918220043182373,0.5041570127099995,33.0,340.0,0.0
,,"(6, 6)",,,,,,,,
R,U,"[5, 6]",1.0,1.0,0.6297011375427246,3.730342149734497,0.3512186095005912,34.0,341.0,0.0
Y,R,"[5, 7]",1.0,2.0,0.29357409477233887,1.839829921722412,0.44087614508853096,34.0,342.0,0.0
Y,R,"[5, 8]",1.0,3.0,0.2650940418243408,1.8812639713287354,0.5221368687002946,34.0,343.0,0.0
G,D,"[6, 8]",1.0,4.0,0.27996397018432617,1.796701192855835,0.41875647029814267,34.0,344.0,0.0
Y,R,"[6, 9]",1.0,5.0,0.22708702087402344,1.7637739181518555,0.4325210285325329,34.0,345.0,0.0
Y,R,"[6, 10]",1.0,6.0,0.24696588516235352,1.87746000289917,0.52662916432845,34.0,346.0,0.0
R,U,"[5, 10]",1.0,7.0,0.2936849594116211,1.813887119293213,0.42378753839748706,34.0,347.0,0.0
R,U,"[4, 10]",1.0,8.0,0.29542994499206543,1.7387990951538086,0.3459227356324072,34.0,348.0,0.0
B,L,"[4, 9]",1.0,9.0,0.24035191535949707,1.748094081878662,0.37730391310450556,34.0,349.0,0.0
R,U,"[3, 9]",1.0,10.0,0.20694279670715332,1.929636001586914,0.623272959461009,34.0,350.0,0.0
,,"(6, 6)",,,,,,,,
R,U,"[5, 6]",1.0,1.0,0.516528844833374,3.716775894165039,0.6400333760394077,35.0,351.0,0.0
Y,R,"[5, 7]",1.0,2.0,0.22650599479675293,2.0368621349334717,0.710059222081138,35.0,352.0,0.0
Y,R,"[5, 8]",1.0,3.0,0.19611191749572754,2.003488063812256,0.7135567983824347,35.0,353.0,0.0
G,D,"[6, 8]",1.0,4.0,0.22537899017333984,1.6552119255065918,0.3190227081986033,35.0,354.0,0.0
Y,R,"[6, 9]",1.0,5.0,0.26457905769348145,1.901285171508789,0.5367383644596903,35.0,355.0,0.0
Y,R,"[6, 10]",1.0,6.0,0.2681550979614258,1.6353490352630615,0.27234445191910267,35.0,356.0,0.0
R,U,"[5, 10]",1.0,7.0,0.3301529884338379,1.9532361030578613,0.5252778538184224,35.0,357.0,0.0
R,U,"[4, 10]",1.0,8.0,0.28122806549072266,2.045222043991089,0.6704520177147635,35.0,358.0,0.0
B,L,"[4, 9]",1.0,9.0,0.20425105094909668,1.7437431812286377,0.447705835228599,35.0,359.0,0.0
R,U,"[3, 9]",1.0,10.0,0.18050694465637207,1.8162879943847656,0.5305375855891826,35.0,360.0,0.0
,,"(6, 6)",,,,,,,,
R,U,"[5, 6]",1.0,1.0,0.5213818550109863,3.969595193862915,0.41688487622601306,36.0,361.0,0.0
Y,R,"[5, 7]",1.0,2.0,0.2021489143371582,1.6134679317474365,0.31372909514728264,36.0,362.0,0.0
Y,R,"[5, 8]",1.0,3.0,0.2735860347747803,2.132255792617798,0.7455010018872232,36.0,363.0,0.0
G,D,"[6, 8]",1.0,4.0,0.2850179672241211,1.8229749202728271,0.45189000407361296,36.0,364.0,0.0
Y,R,"[6, 9]",1.0,5.0,0.23870587348937988,1.8230361938476562,0.49155501352676356,36.0,365.0,0.0
Y,R,"[6, 10]",1.0,6.0,0.22611093521118164,2.065387010574341,0.7400367516357278,36.0,366.0,0.0
R,U,"[5, 10]",1.0,7.0,0.22870898246765137,1.922314167022705,0.5957733204761619,36.0,367.0,0.0
R,U,"[4, 10]",1.0,8.0,0.2198951244354248,1.9450571537017822,0.6408864616519729,36.0,368.0,0.0
B,L,"[4, 9]",1.0,9.0,0.2733321189880371,1.7005131244659424,0.3248896818704884,36.0,369.0,0.0
R,U,"[3, 9]",1.0,10.0,0.21528100967407227,1.8830718994140625,0.5742924952270835,36.0,370.0,0.0
,,"(6, 6)",,,,,,,,
R,U,"[5, 6]",1.0,1.0,0.4512159824371338,13.82713007926941,0.667676249336827,37.0,371.0,0.0
Y,R,"[5, 7]",1.0,2.0,0.2729370594024658,1.702052116394043,0.32016417491301524,37.0,372.0,0.0
Y,R,"[5, 8]",1.0,3.0,0.32485103607177734,1.6946749687194824,0.26467403618686336,37.0,373.0,0.0
G,D,"[6, 8]",1.0,4.0,0.2910289764404297,1.6934208869934082,0.2916330160421319,37.0,374.0,0.0
Y,R,"[6, 9]",1.0,5.0,0.24074006080627441,1.658735990524292,0.3169661002508173,37.0,375.0,0.0
Y,R,"[6, 10]",1.0,6.0,0.26514720916748047,2.0679409503936768,0.701032669014067,37.0,376.0,0.0
R,U,"[5, 10]",1.0,7.0,0.18557310104370117,1.802239179611206,0.5201185900981232,37.0,377.0,0.0
R,U,"[4, 10]",1.0,8.0,0.21625614166259766,1.8930139541625977,0.5796781237870583,37.0,378.0,0.0
B,L,"[4, 9]",1.0,9.0,0.25767993927001953,2.113409996032715,0.7429952722037976,37.0,379.0,0.0
R,U,"[3, 9]",1.0,10.0,0.19173312187194824,1.6704990863800049,0.3804209109762883,37.0,380.0,0.0
,,"(6, 6)",,,,,,,,
R,U,"[5, 6]",-2.0,0.0,1.292280912399292,5.794380187988281,0.507872554506679,38.0,381.0,0.0
Y,R,"[5, 7]",1.0,1.0,0.24030089378356934,1.862774133682251,0.5206480354197663,38.0,382.0,0.0
Y,R,"[5, 8]",1.0,2.0,0.18942904472351074,1.6903541088104248,0.3944732870242361,38.0,383.0,0.0
G,D,"[6, 8]",1.0,3.0,0.275738000869751,1.6869559288024902,0.31496727194125856,38.0,384.0,0.0
Y,R,"[6, 9]",1.0,4.0,0.19742679595947266,1.5597670078277588,0.25781857920306517,38.0,385.0,0.0
Y,R,"[6, 10]",1.0,5.0,0.24053287506103516,1.8535029888153076,0.5112338966179961,38.0,386.0,0.0
R,U,"[5, 10]",1.0,6.0,0.28461194038391113,2.0484910011291504,0.6761720814630292,38.0,387.0,0.0
R,U,"[4, 10]",1.0,7.0,0.1728508472442627,1.8980259895324707,0.6241438658525043,38.0,388.0,0.0
B,L,"[4, 9]",1.0,8.0,0.2218928337097168,2.066824197769165,0.7408238672330243,38.0,389.0,0.0
R,U,"[3, 9]",1.0,9.0,0.22197818756103516,1.696031093597412,0.37052473093494803,38.0,390.0,0.0
,,"(6, 6)",,,,,,,,
R,U,"[5, 6]",1.0,1.0,0.463716983795166,4.741999864578247,0.5123131155527899,39.0,391.0,0.0
Y,R,"[5, 7]",1.0,2.0,0.2199559211730957,2.04223895072937,0.7376992855438851,39.0,392.0,0.0
Y,R,"[5, 8]",1.0,3.0,0.20549821853637695,1.9193439483642578,0.6070468167979002,39.0,393.0,0.0
G,D,"[6, 8]",1.0,4.0,0.16934800148010254,1.5744740962982178,0.31510540504495455,39.0,394.0,0.0
Y,R,"[6, 9]",1.0,5.0,0.2171638011932373,2.002155065536499,0.6836805627044656,39.0,395.0,0.0
Y,R,"[6, 10]",1.0,6.0,0.19805502891540527,1.8775780200958252,0.5779231535007064,39.0,396.0,0.0
R,U,"[5, 10]",1.0,7.0,0.21768498420715332,1.7827320098876953,0.47733694204544935,39.0,397.0,0.0
R,U,"[4, 10]",1.0,8.0,0.21051311492919922,1.9974501132965088,0.6910822718551617,39.0,398.0,0.0
B,L,"[4, 9]",1.0,9.0,0.2555668354034424,2.049449920654297,0.6906648943819187,39.0,399.0,0.0
R,U,"[3, 9]",1.0,10.0,0.2247309684753418,1.8597168922424316,0.5339005033569295,39.0,400.0,0.0
,,"(6, 6)",,,,,,,,
R,U,"[5, 6]",1.0,1.0,0.5667390823364258,5.730450868606567,0.7476036564660637,40.0,401.0,0.0
Y,R,"[5, 7]",1.0,2.0,0.2419130802154541,1.6385610103607178,0.28642731568400315,40.0,402.0,0.0
Y,R,"[5, 8]",1.0,3.0,0.31859493255615234,1.9604768753051758,0.5465125719404194,40.0,403.0,0.0
G,D,"[6, 8]",1.0,4.0,0.19680190086364746,1.910733938217163,0.6070625179686862,40.0,404.0,0.0
Y,R,"[6, 9]",1.0,5.0,0.1949009895324707,1.644373893737793,0.3517650738680439,40.0,405.0,0.0
Y,R,"[6, 10]",1.0,6.0,0.31603097915649414,1.8789360523223877,0.4640131331497407,40.0,406.0,0.0
R,U,"[5, 10]",1.0,7.0,0.2458341121673584,1.7745718955993652,0.4219424175197618,40.0,407.0,0.0
R,U,"[4, 10]",1.0,8.0,0.23723196983337402,1.7308950424194336,0.4027746883486649,40.0,408.0,0.0
B,L,"[4, 9]",1.0,9.0,0.2239689826965332,2.0192580223083496,0.6882893317901813,40.0,409.0,0.0
R,U,"[3, 9]",1.0,10.0,0.1881558895111084,1.6570971012115479,0.3623900624360687,40.0,410.0,0.0
,,"(6, 6)",,,,,,,,
R,U,"[5, 6]",1.0,1.0,0.3793148994445801,13.384506940841675,0.7297210930698826,41.0,411.0,0.0
Y,R,"[5, 7]",1.0,2.0,0.22483205795288086,1.7176878452301025,0.3811404139529004,41.0,412.0,0.0
Y,R,"[5, 8]",1.0,3.0,0.217149019241333,1.887937068939209,0.5687581091090927,41.0,413.0,0.0
G,D,"[6, 8]",1.0,4.0,0.22807812690734863,1.8317739963531494,0.5005807235936439,41.0,414.0,0.0
Y,R,"[6, 9]",1.0,5.0,0.18106293678283691,1.684319019317627,0.401615955592889,41.0,415.0,0.0
R,U,"[5, 9]",0.0,5.0,0.31432199478149414,2.1227059364318848,0.707414202943395,41.0,416.0,0.0
R,U,"[4, 9]",1.0,6.0,0.3395650386810303,1.7452490329742432,0.3030026184331921,41.0,417.0,0.0
B,L,"[4, 8]",0.0,6.0,0.2931220531463623,1.9510719776153564,0.5537270044315228,41.0,418.0,0.0
B,L,"[4, 7]",0.0,6.0,0.13669395446777344,1.6856369972229004,0.4561515185961869,41.0,419.0,0.0
R,U,"[3, 7]",0.0,6.0,0.4244730472564697,2.2633979320526123,0.7358430112709782,41.0,420.0,0.0
,,"(6, 6)",,,,,,,,
R,U,"[5, 6]",1.0,1.0,0.3954648971557617,5.768777132034302,0.45490918395596164,42.0,421.0,0.0
Y,R,"[5, 7]",1.0,2.0,0.2415919303894043,1.999539852142334,0.6542937683607208,42.0,422.0,0.0
Y,R,"[5, 8]",1.0,3.0,0.20017504692077637,1.8653948307037354,0.569844482387644,42.0,423.0,0.0
G,D,"[6, 8]",1.0,4.0,0.21511387825012207,2.0013668537139893,0.6876163440795079,42.0,424.0,0.0
Y,R,"[6, 9]",1.0,5.0,0.22443199157714844,1.8854649066925049,0.5565576310101086,42.0,425.0,0.0
Y,R,"[6, 10]",1.0,6.0,0.23773598670959473,1.9441819190979004,0.6173206776487267,42.0,426.0,0.0
R,U,"[5, 10]",1.0,7.0,0.2098550796508789,1.7041771411895752,0.38840548168691325,42.0,427.0,0.0
R,U,"[4, 10]",1.0,8.0,0.27301502227783203,1.6731550693511963,0.2948934169469417,42.0,428.0,0.0
B,L,"[4, 9]",1.0,9.0,0.36021900177001953,1.74436616897583,0.28928325410255984,42.0,429.0,0.0
R,U,"[3, 9]",1.0,10.0,0.2132568359375,2.027467966079712,0.7163770932027336,42.0,430.0,0.0
,,"(6, 6)",,,,,,,,
R,U,"[5, 6]",1.0,1.0,0.4130218029022217,5.42690110206604,0.44335905477513127,43.0,431.0,0.0
Y,R,"[5, 7]",1.0,2.0,0.2896850109100342,2.0456080436706543,0.655561509184575,43.0,432.0,0.0
Y,R,"[5, 8]",1.0,3.0,0.23778200149536133,1.6749868392944336,0.33088860240692275,43.0,433.0,0.0
G,D,"[6, 8]",1.0,4.0,0.25046205520629883,1.913031816482544,0.5602796074789382,43.0,434.0,0.0
Y,R,"[6, 9]",1.0,5.0,0.26263999938964844,2.0740299224853516,0.7173013153671619,43.0,435.0,0.0
Y,R,"[6, 10]",1.0,6.0,0.2630181312561035,2.0665488243103027,0.7007711502803573,43.0,436.0,0.0
R,U,"[5, 10]",1.0,7.0,0.29850196838378906,1.8668079376220703,0.4675942083348237,43.0,437.0,0.0
B,L,"[5, 9]",0.0,7.0,0.7738711833953857,2.158344030380249,0.27617523148749407,43.0,438.0,0.0
B,L,"[5, 8]",0.0,7.0,0.3249678611755371,1.9483399391174316,0.5243590928996447,43.0,439.0,0.0
R,U,"[4, 8]",0.0,7.0,0.18624091148376465,2.018265962600708,0.7422651289269377,43.0,440.0,0.0
,,"(6, 6)",,,,,,,,
R,U,"[5, 6]",1.0,1.0,0.4493100643157959,3.0493929386138916,0.3254025037219979,44.0,441.0,0.0
Y,R,"[5, 7]",1.0,2.0,0.27673912048339844,1.6656010150909424,0.2910820443582301,44.0,442.0,0.0
Y,R,"[5, 8]",1.0,3.0,0.259929895401001,1.6585688591003418,0.29956746298049014,44.0,443.0,0.0
G,D,"[6, 8]",1.0,4.0,0.28447699546813965,1.6517539024353027,0.26813470174862725,44.0,444.0,0.0
Y,R,"[6, 9]",1.0,5.0,0.2882421016693115,1.9212589263916016,0.5390408252987857,44.0,445.0,0.0
Y,R,"[6, 10]",1.0,6.0,0.1807408332824707,1.863326072692871,0.5855229949489246,44.0,446.0,0.0
R,U,"[5, 10]",1.0,7.0,0.19417691230773926,1.8962998390197754,0.5985137872991255,44.0,447.0,0.0
R,U,"[4, 10]",1.0,8.0,0.22711682319641113,2.040660858154297,0.7057522470516332,44.0,448.0,0.0
B,L,"[4, 9]",1.0,9.0,0.4610769748687744,2.004755973815918,0.4437835032521249,44.0,449.0,0.0
R,U,"[3, 9]",1.0,10.0,0.22943806648254395,2.0081911087036133,0.6853930120969232,44.0,450.0,0.0
,,"(6, 6)",,,,,,,,
R,U,"[5, 6]",1.0,1.0,0.42312097549438477,2.2775959968566895,0.4131339941547501,45.0,451.0,0.0
Y,R,"[5, 7]",1.0,2.0,0.3111000061035156,2.0223119258880615,0.6018764021199248,45.0,452.0,0.0
Y,R,"[5, 8]",1.0,3.0,0.20878314971923828,1.8010878562927246,0.48648850966096413,45.0,453.0,0.0
G,D,"[6, 8]",1.0,4.0,0.21080493927001953,1.8193018436431885,0.5057989903521689,45.0,454.0,0.0
Y,R,"[6, 9]",1.0,5.0,0.23612689971923828,1.6787300109863281,0.35132711565107355,45.0,455.0,0.0
Y,R,"[6, 10]",1.0,6.0,0.31262993812561035,1.883774995803833,0.46834307135684833,45.0,456.0,0.0
R,U,"[5, 10]",1.0,7.0,0.20344209671020508,1.7115638256072998,0.4132840682552043,45.0,457.0,0.0
R,U,"[4, 10]",1.0,8.0,0.24484801292419434,2.0499770641326904,0.6962684242989391,45.0,458.0,0.0
B,L,"[4, 9]",1.0,9.0,0.5289371013641357,2.085123062133789,0.448241611648077,45.0,459.0,0.0
R,U,"[3, 9]",1.0,10.0,0.21966290473937988,1.598249912261963,0.27998850099125866,45.0,460.0,0.0
,,"(6, 6)",,,,,,,,
R,U,"[5, 6]",1.0,1.0,0.47809886932373047,3.221320867538452,0.6843921855334558,46.0,461.0,0.0
Y,R,"[5, 7]",1.0,2.0,0.18319177627563477,1.6467978954315186,0.36480135006100084,46.0,462.0,0.0
Y,R,"[5, 8]",1.0,3.0,0.23214292526245117,1.86857008934021,0.5330398007375838,46.0,463.0,0.0
G,D,"[6, 8]",1.0,4.0,0.20359492301940918,1.8600502014160156,0.5598426999789773,46.0,464.0,0.0
Y,R,"[6, 9]",1.0,5.0,0.19915485382080078,1.5408611297607422,0.25098346718393266,46.0,465.0,0.0
Y,R,"[6, 10]",1.0,6.0,0.40285682678222656,1.8894140720367432,0.39014053448882363,46.0,466.0,0.0
R,U,"[5, 10]",1.0,7.0,0.20983099937438965,1.6839540004730225,0.37416725042469023,46.0,467.0,0.0
R,U,"[4, 10]",1.0,8.0,0.2181408405303955,1.9685359001159668,0.6590175819644907,46.0,468.0,0.0
B,L,"[4, 9]",1.0,9.0,0.2745330333709717,2.1020941734313965,0.7277651617604239,46.0,469.0,0.0
R,U,"[3, 9]",1.0,10.0,0.28683900833129883,1.9592781066894531,0.5870918684131163,46.0,470.0,0.0
,,"(6, 6)",,,,,,,,
R,U,"[5, 6]",1.0,1.0,0.4835388660430908,3.0430779457092285,0.6635756063426319,47.0,471.0,0.0
Y,R,"[5, 7]",1.0,2.0,0.2521171569824219,1.6983819007873535,0.34557186559045305,47.0,472.0,0.0
Y,R,"[5, 8]",1.0,3.0,0.2709529399871826,1.9251258373260498,0.5537341782264555,47.0,473.0,0.0
G,D,"[6, 8]",1.0,4.0,0.24222207069396973,1.93202805519104,0.5854882575527665,47.0,474.0,0.0
Y,R,"[6, 9]",1.0,5.0,0.1975259780883789,1.7182190418243408,0.42074626036776025,47.0,475.0,0.0
Y,R,"[6, 10]",1.0,6.0,0.21434903144836426,2.024064064025879,0.7111240334858047,47.0,476.0,0.0
R,U,"[5, 10]",1.0,7.0,0.2571828365325928,1.680044174194336,0.3248836180152791,47.0,477.0,0.0
R,U,"[4, 10]",1.0,8.0,0.32604289054870605,1.880005121231079,0.45475206329634393,47.0,478.0,0.0
B,L,"[4, 9]",1.0,9.0,0.23189997673034668,1.984787940979004,0.6560905413491952,47.0,479.0,0.0
R,U,"[3, 9]",1.0,10.0,0.21341991424560547,1.9313008785247803,0.620659553641785,47.0,480.0,0.0
,,"(6, 6)",,,,,,,,
R,U,"[5, 6]",1.0,1.0,0.46234798431396484,2.6178250312805176,0.30560175855101085,48.0,481.0,0.0
Y,R,"[5, 7]",1.0,2.0,0.34746885299682617,1.804886817932129,0.3602953663881264,48.0,482.0,0.0
Y,R,"[5, 8]",1.0,3.0,0.21671414375305176,1.905224084854126,0.5986210677532897,48.0,483.0,0.0
G,D,"[6, 8]",1.0,4.0,0.20117807388305664,1.8213789463043213,0.5200861319146985,48.0,484.0,0.0
Y,R,"[6, 9]",1.0,5.0,0.1749870777130127,1.7114689350128174,0.43170004036613935,48.0,485.0,0.0
Y,R,"[6, 10]",1.0,6.0,0.2149949073791504,1.6898739337921143,0.3715692644264044,48.0,486.0,0.0
R,U,"[5, 10]",1.0,7.0,0.19167494773864746,1.6967430114746094,0.4016335277193266,48.0,487.0,0.0
R,U,"[4, 10]",1.0,8.0,0.1754779815673828,1.6549429893493652,0.37321680606797186,48.0,488.0,0.0
B,L,"[4, 9]",1.0,9.0,0.16382288932800293,1.8815510272979736,0.6212659080181243,48.0,489.0,0.0
R,U,"[3, 9]",1.0,10.0,0.27448415756225586,1.8563311100006104,0.4777772410341882,48.0,490.0,0.0
,,"(6, 6)",,,,,,,,
R,U,"[5, 6]",1.0,1.0,0.40438318252563477,2.651020050048828,0.6784704784632984,49.0,491.0,0.0
Y,R,"[5, 7]",1.0,2.0,0.1995530128479004,1.9410061836242676,0.6527718944998882,49.0,492.0,0.0
Y,R,"[5, 8]",1.0,3.0,0.16657400131225586,1.6409111022949219,0.3772758077641446,49.0,493.0,0.0
G,D,"[6, 8]",1.0,4.0,0.2504458427429199,1.714820146560669,0.37550182984757013,49.0,494.0,0.0
Y,R,"[6, 9]",1.0,5.0,0.14965200424194336,1.7178089618682861,0.4765895358723586,49.0,495.0,0.0
Y,R,"[6, 10]",1.0,6.0,0.21413803100585938,1.7619340419769287,0.455230836628124,49.0,496.0,0.0
R,U,"[5, 10]",1.0,7.0,0.1783280372619629,1.8670380115509033,0.5887330580341995,49.0,497.0,0.0
R,U,"[4, 10]",1.0,8.0,0.1558380126953125,1.5047709941864014,0.26049437419502985,49.0,498.0,0.0
B,L,"[4, 9]",1.0,9.0,0.25461912155151367,1.601374864578247,0.2618241212619904,49.0,499.0,0.0
R,U,"[3, 9]",1.0,10.0,0.1558079719543457,1.8900668621063232,0.6348944585149405,49.0,500.0,0.0
,,"(6, 6)",,,,,,,,
R,U,"[5, 6]",1.0,1.0,0.3645009994506836,2.5282280445098877,0.7461556282158162,50.0,501.0,0.0
Y,R,"[5, 7]",1.0,2.0,0.23757290840148926,1.9658639430999756,0.6289132078825141,50.0,502.0,0.0
Y,R,"[5, 8]",1.0,3.0,0.18471407890319824,1.700908899307251,0.4298316332768822,50.0,503.0,0.0
G,D,"[6, 8]",1.0,4.0,0.15615200996398926,1.6081600189208984,0.3384322851529061,50.0,504.0,0.0
Y,R,"[6, 9]",1.0,5.0,0.15744400024414062,1.6740620136260986,0.4122985097289624,50.0,505.0,0.0
Y,R,"[6, 10]",1.0,6.0,0.207597017288208,1.8601479530334473,0.5557151423885565,50.0,506.0,0.0
R,U,"[5, 10]",1.0,7.0,0.2038578987121582,2.008039951324463,0.713626977367755,50.0,507.0,0.0
R,U,"[4, 10]",1.0,8.0,0.21522903442382812,2.026993989944458,0.7071854839841243,50.0,508.0,0.0
B,L,"[4, 9]",1.0,9.0,0.19269299507141113,1.6721689701080322,0.37969361615745456,50.0,509.0,0.0
R,U,"[3, 9]",1.0,10.0,0.19841909408569336,1.7297141551971436,0.42598231348360294,50.0,510.0,0.0
,,"(6, 6)",,,,,,,,
R,U,"[5, 6]",1.0,1.0,0.41525697708129883,3.293858051300049,0.6530525699660311,51.0,511.0,0.0
Y,R,"[5, 7]",1.0,2.0,0.21131110191345215,1.5694279670715332,0.25598886498844675,51.0,512.0,0.0
Y,R,"[5, 8]",1.0,3.0,0.4251730442047119,1.9478909969329834,0.4203725627232568,51.0,513.0,0.0
G,D,"[6, 8]",1.0,4.0,0.1809070110321045,1.9121489524841309,0.6325178402310354,51.0,514.0,0.0
Y,R,"[6, 9]",1.0,5.0,0.13285613059997559,1.7698068618774414,0.5356041215976695,51.0,515.0,0.0
Y,R,"[6, 10]",1.0,6.0,0.2214350700378418,1.6792550086975098,0.3650675999157696,51.0,516.0,0.0
R,U,"[5, 10]",1.0,7.0,0.22875213623046875,1.7448110580444336,0.4096356146931758,51.0,517.0,0.0
R,U,"[4, 10]",1.0,8.0,0.19077491760253906,1.96321702003479,0.6728446724583717,51.0,518.0,0.0
B,L,"[4, 9]",-1.0,8.0,0.020119905471801758,5.621088981628418,0.4774063537424198,51.0,519.0,0.0
G,D,"[5, 9]",0.0,8.0,0.39583802223205566,1.8905019760131836,0.40130078558532445,51.0,520.0,0.0
,,"(6, 6)",,,,,,,,
R,U,"[5, 6]",1.0,1.0,0.39673781394958496,5.54544997215271,0.629955381222021,52.0,521.0,0.0
Y,R,"[5, 7]",1.0,2.0,0.288938045501709,2.069661855697632,0.6662781540103861,52.0,522.0,0.0
Y,R,"[5, 8]",1.0,3.0,0.18407678604125977,1.8612110614776611,0.577432733678102,52.0,523.0,0.0
G,D,"[6, 8]",1.0,4.0,0.17545509338378906,1.5683109760284424,0.296272642980731,52.0,524.0,0.0
Y,R,"[6, 9]",1.0,5.0,0.2611348628997803,1.6528959274291992,0.2824062589868749,52.0,525.0,0.0
Y,R,"[6, 10]",1.0,6.0,0.3110349178314209,1.864152193069458,0.44632580872475497,52.0,526.0,0.0
R,U,"[5, 10]",1.0,7.0,0.30645203590393066,1.799942970275879,0.3796201393678147,52.0,527.0,0.0
R,U,"[4, 10]",1.0,8.0,0.21959495544433594,1.8497447967529297,0.5291734797521028,52.0,528.0,0.0
B,L,"[4, 9]",1.0,9.0,0.2714381217956543,1.9465839862823486,0.5757359421581205,52.0,529.0,0.0
R,U,"[3, 9]",1.0,10.0,0.23630595207214355,1.8880150318145752,0.5637640943260299,52.0,530.0,0.0
,,"(6, 6)",,,,,,,,
R,U,"[5, 6]",1.0,1.0,0.4086470603942871,2.183703899383545,0.28123249514281967,53.0,531.0,0.0
Y,R,"[5, 7]",1.0,2.0,0.29509997367858887,1.9121131896972656,0.5096850121021403,53.0,532.0,0.0
Y,R,"[5, 8]",1.0,3.0,0.21139192581176758,1.7364060878753662,0.42947890203563993,53.0,533.0,0.0
G,D,"[6, 8]",1.0,4.0,0.15565896034240723,1.726431131362915,0.4725564243256426,53.0,534.0,0.0
Y,R,"[6, 9]",1.0,5.0,0.19059109687805176,1.7716491222381592,0.4774710771921236,53.0,535.0,0.0
Y,R,"[6, 10]",1.0,6.0,0.22794294357299805,1.596337080001831,0.2740226500947488,53.0,536.0,0.0
R,U,"[5, 10]",1.0,7.0,0.22203612327575684,1.8517639636993408,0.5255494881473401,53.0,537.0,0.0
R,U,"[4, 10]",1.0,8.0,0.202531099319458,1.7487919330596924,0.45772340729832955,53.0,538.0,0.0
B,L,"[4, 9]",1.0,9.0,0.21710205078125,1.9191529750823975,0.6099748512742833,53.0,539.0,0.0
R,U,"[3, 9]",1.0,10.0,0.21782612800598145,2.0118730068206787,0.7051060180392678,53.0,540.0,0.0
,,"(6, 6)",,,,,,,,
R,U,"[5, 6]",1.0,1.0,0.35871100425720215,2.286760091781616,0.3090861934537712,54.0,541.0,0.0
Y,R,"[5, 7]",1.0,2.0,0.26587796211242676,1.767421007156372,0.4097006254950995,54.0,542.0,0.0
Y,R,"[5, 8]",1.0,3.0,0.19722509384155273,1.6230669021606445,0.33259741218329447,54.0,543.0,0.0
G,D,"[6, 8]",1.0,4.0,0.2150578498840332,2.004870891571045,0.6874154780245992,54.0,544.0,0.0
Y,R,"[6, 9]",1.0,5.0,0.2767300605773926,2.1233789920806885,0.7440576132484601,54.0,545.0,0.0
Y,R,"[6, 10]",1.0,6.0,0.25846290588378906,1.793722152709961,0.43814951971027466,54.0,546.0,0.0
R,U,"[5, 10]",1.0,7.0,0.23071599006652832,1.9117820262908936,0.5830315102567961,54.0,547.0,0.0
R,U,"[4, 10]",1.0,8.0,0.2656710147857666,1.7508339881896973,0.38399277142983845,54.0,548.0,0.0
B,L,"[4, 9]",1.0,9.0,0.2258009910583496,1.9798219203948975,0.6469218023787151,54.0,549.0,0.0
R,U,"[3, 9]",1.0,10.0,0.22592997550964355,1.9696111679077148,0.6333293843483143,54.0,550.0,0.0
,,"(6, 6)",,,,,,,,
R,U,"[5, 6]",1.0,1.0,0.33034300804138184,2.6398661136627197,0.3401707335895504,55.0,551.0,0.0
Y,R,"[5, 7]",1.0,2.0,0.275662899017334,1.671983003616333,0.2954060114852126,55.0,552.0,0.0
Y,R,"[5, 8]",1.0,3.0,0.22437000274658203,2.0460100173950195,0.7242988719840915,55.0,553.0,0.0
G,D,"[6, 8]",1.0,4.0,0.21209502220153809,1.8136961460113525,0.5049522098469859,55.0,554.0,0.0
Y,R,"[6, 9]",1.0,5.0,0.21073698997497559,1.7102341651916504,0.39870724462522905,55.0,555.0,0.0
Y,R,"[6, 10]",1.0,6.0,0.23907995223999023,1.9500329494476318,0.598493576658854,55.0,556.0,0.0
R,U,"[5, 10]",1.0,7.0,0.23697495460510254,1.6116039752960205,0.2769352406768857,55.0,557.0,0.0
R,U,"[4, 10]",1.0,8.0,0.34104490280151367,1.8109660148620605,0.3712518636275564,55.0,558.0,0.0
B,L,"[4, 9]",1.0,9.0,0.21633195877075195,1.7946858406066895,0.48249535047117703,55.0,559.0,0.0
R,U,"[3, 9]",1.0,10.0,0.2834639549255371,1.81864595413208,0.43450438678003483,55.0,560.0,0.0
,,"(6, 6)",,,,,,,,
R,U,"[5, 6]",1.0,1.0,0.39332103729248047,2.357635974884033,0.5421969354718728,56.0,561.0,0.0
Y,R,"[5, 7]",1.0,2.0,0.2508871555328369,2.0387840270996094,0.6974309238553915,56.0,562.0,0.0
Y,R,"[5, 8]",1.0,3.0,0.1722099781036377,1.8939850330352783,0.6082361292667233,56.0,563.0,0.0
G,D,"[6, 8]",1.0,4.0,0.18589401245117188,1.9651241302490234,0.6897582676777301,56.0,564.0,0.0
Y,R,"[6, 9]",1.0,5.0,0.19028091430664062,1.58091402053833,0.28788588204987464,56.0,565.0,0.0
Y,R,"[6, 10]",1.0,6.0,0.29291200637817383,2.048336982727051,0.6525312967218971,56.0,566.0,0.0
R,U,"[5, 10]",1.0,7.0,0.2741529941558838,1.7225608825683594,0.34195520338585605,56.0,567.0,0.0
R,U,"[4, 10]",1.0,8.0,0.22332382202148438,1.964521884918213,0.6394567624090546,56.0,568.0,0.0
B,L,"[4, 9]",1.0,9.0,0.20470595359802246,2.0597898960113525,0.749186670907955,56.0,569.0,0.0
R,U,"[3, 9]",1.0,10.0,0.20326495170593262,1.7658519744873047,0.4654473991580293,56.0,570.0,0.0
,,"(6, 6)",,,,,,,,
R,U,"[5, 6]",1.0,1.0,0.37149596214294434,2.336775064468384,0.33567703378363534,57.0,571.0,0.0
Y,R,"[5, 7]",1.0,2.0,0.2962830066680908,1.6990339756011963,0.3014497850203695,57.0,572.0,0.0
Y,R,"[5, 8]",1.0,3.0,0.23562312126159668,1.9231059551239014,0.5907967290089278,57.0,573.0,0.0
G,D,"[6, 8]",1.0,4.0,0.18570804595947266,1.9301929473876953,0.6542980990618241,57.0,574.0,0.0
Y,R,"[6, 9]",1.0,5.0,0.1667618751525879,1.849452018737793,0.5871209800094479,57.0,575.0,0.0
Y,R,"[6, 10]",1.0,6.0,0.20520997047424316,1.8986070156097412,0.5857749512942766,57.0,576.0,0.0
R,U,"[5, 10]",1.0,7.0,0.21886110305786133,1.8884730339050293,0.5743851768521943,57.0,577.0,0.0
R,U,"[4, 10]",1.0,8.0,0.26428794860839844,1.7918241024017334,0.43254662422690865,57.0,578.0,0.0
B,L,"[4, 9]",1.0,9.0,0.23337197303771973,2.0157370567321777,0.6817782790690562,57.0,579.0,0.0
R,U,"[3, 9]",1.0,10.0,0.31087708473205566,1.7987091541290283,0.38069410718171076,57.0,580.0,0.0
,,"(6, 6)",,,,,,,,
R,U,"[5, 6]",1.0,1.0,0.3823118209838867,2.546856164932251,0.3609867304322176,58.0,581.0,0.0
Y,R,"[5, 7]",1.0,2.0,0.28249192237854004,1.738219976425171,0.3659028269524033,58.0,582.0,0.0
Y,R,"[5, 8]",1.0,3.0,0.20574092864990234,2.033104181289673,0.7152303284186321,58.0,583.0,0.0
G,D,"[6, 8]",1.0,4.0,0.20638084411621094,1.7508759498596191,0.4330453187207005,58.0,584.0,0.0
Y,R,"[6, 9]",1.0,5.0,0.23233795166015625,1.5916998386383057,0.25841672866751797,58.0,585.0,0.0
Y,R,"[6, 10]",1.0,6.0,0.3013420104980469,2.106632947921753,0.714326148811701,58.0,586.0,0.0
R,U,"[5, 10]",1.0,7.0,0.19865798950195312,1.7849671840667725,0.4830992356843859,58.0,587.0,0.0
R,U,"[4, 10]",1.0,8.0,0.1802539825439453,1.653681993484497,0.37016663037906633,58.0,588.0,0.0
B,L,"[4, 9]",1.0,9.0,0.26140785217285156,1.9157159328460693,0.5523412571943256,58.0,589.0,0.0
R,U,"[3, 9]",1.0,10.0,0.23202013969421387,1.6781220436096191,0.34733987878618067,58.0,590.0,0.0
,,"(6, 6)",,,,,,,,
R,U,"[5, 6]",1.0,1.0,0.389207124710083,2.6038460731506348,0.5844399412049807,59.0,591.0,0.0
Y,R,"[5, 7]",1.0,2.0,0.22056293487548828,1.7207632064819336,0.4052211944068,59.0,592.0,0.0
Y,R,"[5, 8]",1.0,3.0,0.22236895561218262,1.5895349979400635,0.2616148640896896,59.0,593.0,0.0
G,D,"[6, 8]",1.0,4.0,0.23377704620361328,1.6798810958862305,0.358047200101171,59.0,594.0,0.0
Y,R,"[6, 9]",1.0,5.0,0.17446398735046387,1.9216890335083008,0.6462010591367404,59.0,595.0,0.0
Y,R,"[6, 10]",1.0,6.0,0.2159569263458252,1.9000248908996582,0.5795787863275631,59.0,596.0,0.0
R,U,"[5, 10]",1.0,7.0,0.20528197288513184,1.8198168277740479,0.499555686246459,59.0,597.0,0.0
R,U,"[4, 10]",1.0,8.0,0.2165980339050293,1.6932179927825928,0.3761377613677023,59.0,598.0,0.0
B,L,"[4, 9]",1.0,9.0,0.2343740463256836,1.6095538139343262,0.28582691762844875,59.0,599.0,0.0
R,U,"[3, 9]",1.0,10.0,0.4748859405517578,2.198659896850586,0.6174629842328969,59.0,600.0,0.0
,,"(6, 6)",,,,,,,,
R,U,"[5, 6]",1.0,1.0,0.34497714042663574,2.1917378902435303,0.40958347158613295,60.0,601.0,0.0
Y,R,"[5, 7]",1.0,2.0,0.21541810035705566,1.968322992324829,0.6609120429523223,60.0,602.0,0.0
Y,R,"[5, 8]",1.0,3.0,0.16678404808044434,1.5467190742492676,0.291289430618393,60.0,603.0,0.0
G,D,"[6, 8]",1.0,4.0,0.2679910659790039,1.7808148860931396,0.42193387817363187,60.0,604.0,0.0
Y,R,"[6, 9]",1.0,5.0,0.20565295219421387,1.8817529678344727,0.5696782401331526,60.0,605.0,0.0
Y,R,"[6, 10]",1.0,6.0,0.2530078887939453,2.016519069671631,0.6699934573677893,60.0,606.0,0.0
R,U,"[5, 10]",1.0,7.0,0.1885089874267578,2.0052101612091064,0.7079340297075603,60.0,607.0,0.0
R,U,"[4, 10]",1.0,8.0,0.21602702140808105,2.0279150009155273,0.7197415672858414,60.0,608.0,0.0
B,L,"[4, 9]",1.0,9.0,0.20449185371398926,1.9238331317901611,0.6270234299566987,60.0,609.0,0.0
R,U,"[3, 9]",1.0,10.0,0.32095885276794434,1.7576220035552979,0.3516593487550121,60.0,610.0,0.0
,,"(6, 6)",,,,,,,,
R,U,"[5, 6]",1.0,1.0,0.33483195304870605,3.1810288429260254,0.3993918975940943,61.0,611.0,0.0
Y,R,"[5, 7]",1.0,2.0,0.2742161750793457,1.9277398586273193,0.5435019726499606,61.0,612.0,0.0
Y,R,"[5, 8]",1.0,3.0,0.213759183883667,1.6811449527740479,0.3748856391381459,61.0,613.0,0.0
G,D,"[6, 8]",1.0,4.0,0.2022099494934082,1.5498921871185303,0.25824495603123176,61.0,614.0,0.0
Y,R,"[6, 9]",1.0,5.0,0.24225187301635742,1.7622978687286377,0.4203634168399556,61.0,615.0,0.0
Y,R,"[6, 10]",1.0,6.0,0.2374868392944336,1.8694970607757568,0.5231990471065772,61.0,616.0,0.0
R,U,"[5, 10]",1.0,7.0,0.22020888328552246,2.0450470447540283,0.7347457046855036,61.0,617.0,0.0
R,U,"[4, 10]",1.0,8.0,0.18633008003234863,2.002472162246704,0.7204161691266044,61.0,618.0,0.0
B,L,"[4, 9]",1.0,9.0,0.2498641014099121,1.8195109367370605,0.4735948999508318,61.0,619.0,0.0
R,U,"[3, 9]",1.0,10.0,0.22472691535949707,1.6502490043640137,0.32394543000026566,61.0,620.0,0.0
,,"(6, 6)",,,,,,,,
R,U,"[5, 6]",1.0,1.0,0.33930206298828125,3.6041250228881836,0.7110198856855163,62.0,621.0,0.0
Y,R,"[5, 7]",1.0,2.0,0.20973896980285645,2.0362040996551514,0.7305757123486718,62.0,622.0,0.0
Y,R,"[5, 8]",1.0,3.0,0.17399096488952637,1.688086986541748,0.4189320074541425,62.0,623.0,0.0
G,D,"[6, 8]",1.0,4.0,0.224653959274292,1.8665030002593994,0.5353020754896461,62.0,624.0,0.0
Y,R,"[6, 9]",1.0,5.0,0.20712709426879883,1.9542911052703857,0.6396846260729245,62.0,625.0,0.0
Y,R,"[6, 10]",1.0,6.0,0.19834113121032715,1.8729798793792725,0.5793199075501967,62.0,626.0,0.0
R,U,"[5, 10]",1.0,7.0,0.16683316230773926,1.8860218524932861,0.6152813949038078,62.0,627.0,0.0
R,U,"[4, 10]",1.0,8.0,0.22963595390319824,1.7269039154052734,0.3924960568862079,62.0,628.0,0.0
B,L,"[4, 9]",1.0,9.0,0.23586106300354004,1.9510798454284668,0.6266146856633668,62.0,629.0,0.0
R,U,"[3, 9]",1.0,10.0,0.2127678394317627,1.813797950744629,0.5071239380992698,62.0,630.0,0.0
,,"(6, 6)",,,,,,,,
R,U,"[5, 6]",1.0,1.0,0.3527381420135498,2.33092999458313,0.5214585687201303,63.0,631.0,0.0
Y,R,"[5, 7]",1.0,2.0,0.31424713134765625,1.9619839191436768,0.5501970679233403,63.0,632.0,0.0
Y,R,"[5, 8]",1.0,3.0,0.2224130630493164,1.8291559219360352,0.4960084839095105,63.0,633.0,0.0
G,D,"[6, 8]",1.0,4.0,0.19946885108947754,1.6328990459442139,0.32895909231241705,63.0,634.0,0.0
Y,R,"[6, 9]",1.0,5.0,0.2854478359222412,1.8987791538238525,0.5275977878718916,63.0,635.0,0.0
Y,R,"[6, 10]",1.0,6.0,0.2174520492553711,1.7775249481201172,0.47192085807836515,63.0,636.0,0.0
R,U,"[5, 10]",1.0,7.0,0.20754599571228027,1.6289010047912598,0.3342910028968186,63.0,637.0,0.0
R,U,"[4, 10]",1.0,8.0,0.2232649326324463,2.0330770015716553,0.7169420999887585,63.0,638.0,0.0
B,L,"[4, 9]",1.0,9.0,0.19822216033935547,2.0205957889556885,0.7209553193387366,63.0,639.0,0.0
R,U,"[3, 9]",1.0,10.0,0.19587492942810059,1.6437079906463623,0.3482721876277523,63.0,640.0,0.0
,,"(6, 6)",,,,,,,,
R,U,"[5, 6]",1.0,1.0,0.32077503204345703,2.719525098800659,0.43447823977431554,64.0,641.0,0.0
Y,R,"[5, 7]",1.0,2.0,0.2596888542175293,1.6833760738372803,0.3180803950395995,64.0,642.0,0.0
Y,R,"[5, 8]",1.0,3.0,0.24163198471069336,1.7316970825195312,0.3829159774342301,64.0,643.0,0.0
G,D,"[6, 8]",1.0,4.0,0.23110008239746094,1.963785171508789,0.6298127918966319,64.0,644.0,0.0
Y,R,"[6, 9]",1.0,5.0,0.1855909824371338,1.9019861221313477,0.615340774702878,64.0,645.0,0.0
Y,R,"[6, 10]",1.0,6.0,0.2265620231628418,1.772779941558838,0.4381345880015291,64.0,646.0,0.0
R,U,"[5, 10]",1.0,7.0,0.24953103065490723,1.897812843322754,0.5526150262286444,64.0,647.0,0.0
R,U,"[4, 10]",1.0,8.0,0.21826386451721191,1.960047960281372,0.6458213495484084,64.0,648.0,0.0
B,L,"[4, 9]",1.0,9.0,0.2462780475616455,1.7335271835327148,0.3795640460159622,64.0,649.0,0.0
R,U,"[3, 9]",1.0,10.0,0.25214409828186035,1.790436029434204,0.4367322114630958,64.0,650.0,0.0
,,"(6, 6)",,,,,,,,
R,U,"[5, 6]",1.0,1.0,0.33594298362731934,2.6743640899658203,0.6771943797037934,65.0,651.0,0.0
Y,R,"[5, 7]",1.0,2.0,0.22365617752075195,1.5969741344451904,0.27483885428267285,65.0,652.0,0.0
Y,R,"[5, 8]",1.0,3.0,0.2383570671081543,1.768233060836792,0.42628913279695696,65.0,653.0,0.0
G,D,"[6, 8]",1.0,4.0,0.18094301223754883,1.554260015487671,0.28068400601049326,65.0,654.0,0.0
Y,R,"[6, 9]",1.0,5.0,0.22833609580993652,2.066333770751953,0.7300736797688953,65.0,655.0,0.0
Y,R,"[6, 10]",1.0,6.0,0.19670510292053223,1.7347149848937988,0.4317050202185662,65.0,656.0,0.0
R,U,"[5, 10]",1.0,7.0,0.29028797149658203,1.915290117263794,0.5136059863537343,65.0,657.0,0.0
R,U,"[4, 10]",1.0,8.0,0.1999499797821045,1.8873322010040283,0.5843830721558212,65.0,658.0,0.0
B,L,"[4, 9]",1.0,9.0,0.20033001899719238,1.7334940433502197,0.4344233208359112,65.0,659.0,0.0
R,U,"[3, 9]",1.0,10.0,0.23683404922485352,1.679480791091919,0.3474271356608249,65.0,660.0,0.0
,,"(6, 6)",,,,,,,,
R,U,"[5, 6]",1.0,1.0,0.3286159038543701,2.9232609272003174,0.6871178313741669,66.0,661.0,0.0
Y,R,"[5, 7]",1.0,2.0,0.23281097412109375,2.079274892807007,0.7494801579682532,66.0,662.0,0.0
Y,R,"[5, 8]",1.0,3.0,0.22028398513793945,1.8843820095062256,0.567450938861535,66.0,663.0,0.0
G,D,"[6, 8]",1.0,4.0,0.23671698570251465,1.6907830238342285,0.3584509524091151,66.0,664.0,0.0
Y,R,"[6, 9]",1.0,5.0,0.3084828853607178,2.034343957901001,0.6258955212890319,66.0,665.0,0.0
Y,R,"[6, 10]",1.0,6.0,0.2641870975494385,2.0081489086151123,0.6508107213685497,66.0,666.0,0.0
R,U,"[5, 10]",1.0,7.0,0.2327439785003662,1.86063814163208,0.5280813493691829,66.0,667.0,0.0
R,U,"[4, 10]",1.0,8.0,0.3052480220794678,1.9789440631866455,0.5737127131989326,66.0,668.0,0.0
B,L,"[4, 9]",1.0,9.0,0.23763513565063477,1.9202702045440674,0.5773877539957026,66.0,669.0,0.0
R,U,"[3, 9]",1.0,10.0,0.25184202194213867,1.8109428882598877,0.471817650914457,66.0,670.0,0.0
,,"(6, 6)",,,,,,,,
R,U,"[5, 6]",1.0,1.0,0.3364298343658447,3.4936959743499756,0.631945692375451,67.0,671.0,0.0
Y,R,"[5, 7]",1.0,2.0,0.21235394477844238,2.066960096359253,0.7488010428940983,67.0,672.0,0.0
Y,R,"[5, 8]",1.0,3.0,0.16480493545532227,1.9052960872650146,0.6374551402122683,67.0,673.0,0.0
G,D,"[6, 8]",1.0,4.0,0.5477080345153809,2.262143135070801,0.6163705473620851,67.0,674.0,0.0
Y,R,"[6, 9]",1.0,5.0,0.21916484832763672,1.8907849788665771,0.5740638878722891,67.0,675.0,0.0
Y,R,"[6, 10]",1.0,6.0,0.2549140453338623,2.0920708179473877,0.7325567593595927,67.0,676.0,0.0
R,U,"[5, 10]",1.0,7.0,0.25195908546447754,1.8775088787078857,0.5269111328424323,67.0,677.0,0.0
R,U,"[4, 10]",1.0,8.0,0.25049400329589844,1.831455945968628,0.4918073943546321,67.0,678.0,0.0
B,L,"[4, 9]",1.0,9.0,0.28515100479125977,1.7757418155670166,0.4008812190128242,67.0,679.0,0.0
R,U,"[3, 9]",1.0,10.0,0.22800803184509277,1.5879108905792236,0.25560161903646994,67.0,680.0,0.0
,,"(6, 6)",,,,,,,,
R,U,"[5, 6]",1.0,1.0,0.39649391174316406,2.6117169857025146,0.6005480110060419,68.0,681.0,0.0
Y,R,"[5, 7]",1.0,2.0,0.23696613311767578,2.0742130279541016,0.7411368562873316,68.0,682.0,0.0
Y,R,"[5, 8]",1.0,3.0,0.20749306678771973,1.5937819480895996,0.28534562726645757,68.0,683.0,0.0
G,D,"[6, 8]",1.0,4.0,0.32364487648010254,1.9033150672912598,0.4719188283682923,68.0,684.0,0.0
Y,R,"[6, 9]",1.0,5.0,0.21779608726501465,1.9351460933685303,0.62344459370492,68.0,685.0,0.0
Y,R,"[6, 10]",1.0,6.0,0.21241283416748047,1.7754080295562744,0.46572809870753173,68.0,686.0,0.0
R,U,"[5, 10]",1.0,7.0,0.2321629524230957,1.8574860095977783,0.523314838823407,68.0,687.0,0.0
R,U,"[4, 10]",1.0,8.0,0.3340260982513428,1.778836965560913,0.3522372888482493,68.0,688.0,0.0
B,L,"[4, 9]",1.0,9.0,0.28046512603759766,1.8550570011138916,0.4740189076098082,68.0,689.0,0.0
R,U,"[3, 9]",1.0,10.0,0.23762798309326172,1.8253109455108643,0.48252547830364384,68.0,690.0,0.0
,,"(6, 6)",,,,,,,,
R,U,"[5, 6]",1.0,1.0,0.34053897857666016,2.331249952316284,0.5138693369320764,69.0,691.0,0.0
Y,R,"[5, 7]",1.0,2.0,0.24820780754089355,1.9851329326629639,0.6321327359937704,69.0,692.0,0.0
Y,R,"[5, 8]",1.0,3.0,0.1439199447631836,1.8931069374084473,0.6419308739396519,69.0,693.0,0.0
G,D,"[6, 8]",1.0,4.0,0.17761707305908203,1.7245349884033203,0.45006598806384973,69.0,694.0,0.0
Y,R,"[6, 9]",1.0,5.0,0.13144397735595703,1.539362907409668,0.30626562354186043,69.0,695.0,0.0
Y,R,"[6, 10]",1.0,6.0,0.22900080680847168,1.6816611289978027,0.3546366369841498,69.0,696.0,0.0
R,U,"[5, 10]",1.0,7.0,0.20773005485534668,1.7820370197296143,0.46981769081822455,69.0,697.0,0.0
R,U,"[4, 10]",1.0,8.0,0.17444705963134766,1.982956886291504,0.7025820483016958,69.0,698.0,0.0
B,L,"[4, 9]",1.0,9.0,0.17149686813354492,1.8693640232086182,0.5887649499171963,69.0,699.0,0.0
R,U,"[3, 9]",1.0,10.0,0.173691987991333,1.8599369525909424,0.5819779452874354,69.0,700.0,0.0
,,"(6, 6)",,,,,,,,
R,U,"[5, 6]",1.0,1.0,0.37438201904296875,3.580718994140625,0.4627380387928167,70.0,701.0,0.0
Y,R,"[5, 7]",1.0,2.0,0.23765206336975098,1.632741928100586,0.29547953099678675,70.0,702.0,0.0
Y,R,"[5, 8]",1.0,3.0,0.2912638187408447,1.9533660411834717,0.565523172099489,70.0,703.0,0.0
G,D,"[6, 8]",1.0,4.0,0.2405109405517578,1.6069140434265137,0.2560750652596004,70.0,704.0,0.0
Y,R,"[6, 9]",1.0,5.0,0.2078418731689453,1.75462007522583,0.4436170869154608,70.0,705.0,0.0
Y,R,"[6, 10]",1.0,6.0,0.464846134185791,2.0266740322113037,0.47069908053040915,70.0,706.0,0.0
R,U,"[5, 10]",1.0,7.0,0.18843293190002441,1.6699638366699219,0.37396490911118874,70.0,707.0,0.0
R,U,"[4, 10]",1.0,8.0,0.21185588836669922,1.8314008712768555,0.5218804376404961,70.0,708.0,0.0
B,L,"[4, 9]",1.0,9.0,0.209183931350708,2.056436777114868,0.7447903880009283,70.0,709.0,0.0
R,U,"[3, 9]",1.0,10.0,0.1829540729522705,1.7852959632873535,0.5136858592544318,70.0,710.0,0.0
,,"(6, 6)",,,,,,,,
R,U,"[5, 6]",1.0,1.0,0.3384089469909668,3.2855420112609863,0.5992129584211237,71.0,711.0,0.0
Y,R,"[5, 7]",1.0,2.0,0.18564295768737793,1.9888908863067627,0.704719424603661,71.0,712.0,0.0
Y,R,"[5, 8]",1.0,3.0,0.1663379669189453,1.8818638324737549,0.6199538405934821,71.0,713.0,0.0
G,D,"[6, 8]",1.0,4.0,0.17625808715820312,1.9117939472198486,0.6317782811530992,71.0,714.0,0.0
Y,R,"[6, 9]",1.0,5.0,0.17731499671936035,1.7834281921386719,0.4985639788209599,71.0,715.0,0.0
Y,R,"[6, 10]",1.0,6.0,0.15735602378845215,1.9741790294647217,0.7059730581173946,71.0,716.0,0.0
R,U,"[5, 10]",1.0,7.0,0.1746509075164795,1.9453761577606201,0.6680583224418297,71.0,717.0,0.0
R,U,"[4, 10]",1.0,8.0,0.17364883422851562,1.6484160423278809,0.3668468105109173,71.0,718.0,0.0
B,L,"[4, 9]",1.0,9.0,0.2435610294342041,1.7656910419464111,0.41578898995895036,71.0,719.0,0.0
R,U,"[3, 9]",1.0,10.0,0.18435907363891602,2.0036890506744385,0.719105004954582,71.0,720.0,0.0
,,"(6, 6)",,,,,,,,
R,U,"[5, 6]",1.0,1.0,0.3050510883331299,3.452465057373047,0.5552472406227158,72.0,721.0,0.0
Y,R,"[5, 7]",1.0,2.0,0.2144768238067627,1.9623839855194092,0.6507637351561885,72.0,722.0,0.0
Y,R,"[5, 8]",1.0,3.0,0.2016468048095703,1.7557380199432373,0.4566828668143846,72.0,723.0,0.0
G,D,"[6, 8]",1.0,4.0,0.22265195846557617,1.844275951385498,0.5177687423681767,72.0,724.0,0.0
Y,R,"[6, 9]",-1.0,4.0,0.04306292533874512,5.6877219676971436,0.5221294805379283,72.0,725.0,0.0
Y,R,"[6, 10]",1.0,5.0,0.2977428436279297,2.075126886367798,0.6804864280978072,72.0,726.0,0.0
R,U,"[5, 10]",1.0,6.0,0.21149301528930664,1.8564767837524414,0.5366693739742829,72.0,727.0,0.0
R,U,"[4, 10]",1.0,7.0,0.1810929775238037,1.7982399463653564,0.5186537147920713,72.0,728.0,0.0
B,L,"[4, 9]",1.0,8.0,0.20763182640075684,2.0639162063598633,0.7490350276723328,72.0,729.0,0.0
R,U,"[3, 9]",-1.0,8.0,0.013125181198120117,5.830106973648071,0.6790891529491097,72.0,730.0,0.0
,,"(6, 6)",,,,,,,,
R,U,"[5, 6]",1.0,1.0,0.27917909622192383,11.965853929519653,0.7451194199815259,73.0,731.0,0.0
Y,R,"[5, 7]",1.0,2.0,0.24809622764587402,2.0527889728546143,0.7146089238363733,73.0,732.0,0.0
Y,R,"[5, 8]",1.0,3.0,0.19870781898498535,1.6288468837738037,0.3272356946957303,73.0,733.0,0.0
G,D,"[6, 8]",1.0,4.0,0.20201802253723145,1.6717710494995117,0.3823896076581924,73.0,734.0,0.0
Y,R,"[6, 9]",1.0,5.0,0.19242596626281738,1.8820271492004395,0.5809133174067278,73.0,735.0,0.0
Y,R,"[6, 10]",1.0,6.0,0.20618295669555664,1.7834279537200928,0.46437606116189106,73.0,736.0,0.0
R,U,"[5, 10]",1.0,7.0,0.2002091407775879,1.8908910751342773,0.5885252492768038,73.0,737.0,0.0
R,U,"[4, 10]",1.0,8.0,0.18976306915283203,1.8517777919769287,0.5569697667534577,73.0,738.0,0.0
B,L,"[4, 9]",1.0,9.0,0.2339649200439453,1.7976288795471191,0.4714621275892743,73.0,739.0,0.0
R,U,"[3, 9]",1.0,10.0,0.21836090087890625,2.0034430027008057,0.6912950421665596,73.0,740.0,0.0
,,"(6, 6)",,,,,,,,
R,U,"[5, 6]",1.0,1.0,0.3257880210876465,3.9302620887756348,0.5550860556588091,74.0,741.0,0.0
Y,R,"[5, 7]",1.0,2.0,0.31191587448120117,1.8082571029663086,0.39691147020089595,74.0,742.0,0.0
Y,R,"[5, 8]",1.0,3.0,0.28799986839294434,2.028722047805786,0.6086609986507983,74.0,743.0,0.0
G,D,"[6, 8]",1.0,4.0,0.20037412643432617,1.7581779956817627,0.4670348002708817,74.0,744.0,0.0
Y,R,"[6, 9]",1.0,5.0,0.21894288063049316,1.6742289066314697,0.35807915069296276,74.0,745.0,0.0
Y,R,"[6, 10]",1.0,6.0,0.2033088207244873,2.0280020236968994,0.7358114753390973,74.0,746.0,0.0
R,U,"[5, 10]",1.0,7.0,0.2081608772277832,1.7721519470214844,0.45821877593020877,74.0,747.0,0.0
R,U,"[4, 10]",1.0,8.0,0.20478487014770508,1.5966858863830566,0.27185264168464757,74.0,748.0,0.0
B,L,"[4, 9]",1.0,9.0,0.20866703987121582,2.041516065597534,0.7294964155993227,74.0,749.0,0.0
R,U,"[3, 9]",1.0,10.0,0.3659968376159668,1.8310389518737793,0.3608244208191688,74.0,750.0,0.0
,,"(6, 6)",,,,,,,,
R,U,"[5, 6]",1.0,1.0,0.32729101181030273,2.977756977081299,0.45558949526044434,75.0,751.0,0.0
Y,R,"[5, 7]",1.0,2.0,0.4827921390533447,1.832015037536621,0.2541419001761844,75.0,752.0,0.0
Y,R,"[5, 8]",1.0,3.0,0.308427095413208,1.766145944595337,0.353626616154968,75.0,753.0,0.0
G,D,"[6, 8]",1.0,4.0,0.2186741828918457,2.0301761627197266,0.71669490109626,75.0,754.0,0.0
Y,R,"[6, 9]",1.0,5.0,0.2935011386871338,2.008289098739624,0.6084875317935388,75.0,755.0,0.0
Y,R,"[6, 10]",1.0,6.0,0.23590898513793945,2.0521020889282227,0.7271610997918272,75.0,756.0,0.0
R,U,"[5, 10]",1.0,7.0,0.26859402656555176,1.6289880275726318,0.27324681977753706,75.0,757.0,0.0
R,U,"[4, 10]",1.0,8.0,0.2862670421600342,1.9555420875549316,0.5787050321964663,75.0,758.0,0.0
B,L,"[4, 9]",1.0,9.0,0.2523670196533203,1.9609971046447754,0.6229243443314929,75.0,759.0,0.0
R,U,"[3, 9]",1.0,10.0,0.21971797943115234,1.8374249935150146,0.5270351352476654,75.0,760.0,0.0
,,"(6, 6)",,,,,,,,
R,U,"[5, 6]",1.0,1.0,0.3671560287475586,2.5034079551696777,0.6636744617552626,76.0,761.0,0.0
Y,R,"[5, 7]",1.0,2.0,0.2383568286895752,1.6023778915405273,0.2665058628024861,76.0,762.0,0.0
Y,R,"[5, 8]",1.0,3.0,0.32213616371154785,1.6965970993041992,0.2632341301577126,76.0,763.0,0.0
G,D,"[6, 8]",1.0,4.0,0.21815109252929688,1.6719779968261719,0.35166684869587067,76.0,764.0,0.0
Y,R,"[6, 9]",1.0,5.0,0.18452906608581543,2.010908842086792,0.7289546886004119,76.0,765.0,0.0
Y,R,"[6, 10]",1.0,6.0,0.20993590354919434,1.6049549579620361,0.2676558942396053,76.0,766.0,0.0
R,U,"[5, 10]",1.0,7.0,0.2861199378967285,1.8891379833221436,0.5065564525747481,76.0,767.0,0.0
R,U,"[4, 10]",1.0,8.0,0.22992205619812012,1.7903931140899658,0.46373831343294486,76.0,768.0,0.0
B,L,"[4, 9]",1.0,9.0,0.19278502464294434,1.689734935760498,0.386867947621104,76.0,769.0,0.0
R,U,"[3, 9]",1.0,10.0,0.18166112899780273,1.8048429489135742,0.5250319949162874,76.0,770.0,0.0
,,"(6, 6)",,,,,,,,
R,U,"[5, 6]",1.0,1.0,0.3039388656616211,3.5931570529937744,0.6181763180613196,77.0,771.0,0.0
Y,R,"[5, 7]",1.0,2.0,0.2325730323791504,1.6137120723724365,0.2821740906370513,77.0,772.0,0.0
Y,R,"[5, 8]",1.0,3.0,0.2330160140991211,1.9028751850128174,0.5680888606689585,77.0,773.0,0.0
G,D,"[6, 8]",1.0,4.0,0.22412395477294922,1.6218090057373047,0.2901926496907045,77.0,774.0,0.0
Y,R,"[6, 9]",1.0,5.0,0.44238901138305664,2.0667731761932373,0.5232474981531791,77.0,775.0,0.0
Y,R,"[6, 10]",1.0,6.0,0.14792609214782715,1.9182319641113281,0.6747236952304405,77.0,776.0,0.0
R,U,"[5, 10]",1.0,7.0,0.2111821174621582,1.5712590217590332,0.2631832667607235,77.0,777.0,0.0
R,U,"[4, 10]",1.0,8.0,0.2930879592895508,1.961287021636963,0.557530002559519,77.0,778.0,0.0
B,L,"[4, 9]",1.0,9.0,0.2020549774169922,1.871967077255249,0.5794476212801944,77.0,779.0,0.0
R,U,"[3, 9]",1.0,10.0,0.1498088836669922,1.9667670726776123,0.7127936128048764,77.0,780.0,0.0
,,"(6, 6)",,,,,,,,
R,U,"[5, 6]",1.0,1.0,0.33440113067626953,3.417642831802368,0.7137898981767574,78.0,781.0,0.0
Y,R,"[5, 7]",1.0,2.0,0.24374699592590332,2.0204198360443115,0.6677523634238921,78.0,782.0,0.0
Y,R,"[5, 8]",1.0,3.0,0.22003793716430664,1.6578090190887451,0.34254136258324586,78.0,783.0,0.0
G,D,"[6, 8]",1.0,4.0,0.22507405281066895,1.94362211227417,0.6190281589600568,78.0,784.0,0.0
Y,R,"[6, 9]",1.0,5.0,0.24300694465637207,1.6021170616149902,0.25509878189155716,78.0,785.0,0.0
Y,R,"[6, 10]",1.0,6.0,0.2075209617614746,1.8785829544067383,0.5666600977398033,78.0,786.0,0.0
R,U,"[5, 10]",1.0,7.0,0.22582507133483887,1.9529979228973389,0.6194346534221093,78.0,787.0,0.0
R,U,"[4, 10]",1.0,8.0,0.1709909439086914,1.6113698482513428,0.33131046766959593,78.0,788.0,0.0
B,L,"[4, 9]",1.0,9.0,0.19629287719726562,1.6772429943084717,0.37541106583565426,78.0,789.0,0.0
R,U,"[3, 9]",1.0,10.0,0.20282316207885742,1.7758409976959229,0.484184407273798,78.0,790.0,0.0
,,"(6, 6)",,,,,,,,
R,U,"[5, 6]",1.0,1.0,0.57157301902771,12.305980205535889,0.7402104277571904,79.0,791.0,0.0
Y,R,"[5, 7]",1.0,2.0,0.19605803489685059,1.9669570922851562,0.6737609587449042,79.0,792.0,0.0
Y,R,"[5, 8]",1.0,3.0,0.18533897399902344,1.6752140522003174,0.3993004809750958,79.0,793.0,0.0
G,D,"[6, 8]",1.0,4.0,0.19714617729187012,1.6402201652526855,0.33937251478860275,79.0,794.0,0.0
Y,R,"[6, 9]",1.0,5.0,0.22531509399414062,1.6797020435333252,0.3692430037767027,79.0,795.0,0.0
Y,R,"[6, 10]",1.0,6.0,0.18555402755737305,1.975325107574463,0.694360399416672,79.0,796.0,0.0
R,U,"[5, 10]",1.0,7.0,0.36202096939086914,2.180666923522949,0.7247075894923503,79.0,797.0,0.0
R,U,"[4, 10]",1.0,8.0,0.1916980743408203,1.6080570220947266,0.31680800751781735,79.0,798.0,0.0
B,L,"[4, 9]",1.0,9.0,0.3010599613189697,1.7845518589019775,0.3847292069544913,79.0,799.0,0.0
R,U,"[3, 9]",1.0,10.0,0.2351069450378418,1.9273247718811035,0.595072561942127,79.0,800.0,0.0
,,"(6, 6)",,,,,,,,
R,U,"[5, 6]",1.0,1.0,0.4499189853668213,2.815830945968628,0.5279743080667536,80.0,801.0,0.0
Y,R,"[5, 7]",1.0,2.0,0.268535852432251,1.6334941387176514,0.27813761286039285,80.0,802.0,0.0
Y,R,"[5, 8]",1.0,3.0,0.23828482627868652,1.7243571281433105,0.38563441793554665,80.0,803.0,0.0
G,D,"[6, 8]",1.0,4.0,0.18607497215270996,1.7928071022033691,0.5117637397345167,80.0,804.0,0.0
Y,R,"[6, 9]",1.0,5.0,0.1937730312347412,1.7214980125427246,0.4335229762074197,80.0,805.0,0.0
Y,R,"[6, 10]",1.0,6.0,0.2084510326385498,1.849735975265503,0.5331346803946626,80.0,806.0,0.0
R,U,"[5, 10]",1.0,7.0,0.2435610294342041,1.8088281154632568,0.45865936074539965,80.0,807.0,0.0
R,U,"[4, 10]",1.0,8.0,0.2517359256744385,2.06666898727417,0.7249990439631284,80.0,808.0,0.0
B,L,"[4, 9]",1.0,9.0,0.20500993728637695,1.8830749988555908,0.5746512009127249,80.0,809.0,0.0
R,U,"[3, 9]",1.0,10.0,0.21866297721862793,1.6369569301605225,0.32881564610477787,80.0,810.0,0.0
,,"(6, 6)",,,,,,,,
R,U,"[5, 6]",1.0,1.0,0.32738709449768066,3.4406089782714844,0.6195517792860877,81.0,811.0,0.0
Y,R,"[5, 7]",1.0,2.0,0.24599099159240723,1.7155001163482666,0.3684246246209577,81.0,812.0,0.0
Y,R,"[5, 8]",1.0,3.0,0.21120715141296387,1.8475821018218994,0.5324607561773291,81.0,813.0,0.0
G,D,"[6, 8]",1.0,4.0,0.11110997200012207,1.701786994934082,0.4841864806267669,81.0,814.0,0.0
Y,R,"[6, 9]",1.0,5.0,0.17832612991333008,1.8766517639160156,0.5942269927040472,81.0,815.0,0.0
Y,R,"[6, 10]",-1.0,5.0,0.09658098220825195,5.494410991668701,0.27232032844438014,81.0,816.0,0.0
R,U,"[5, 10]",1.0,6.0,0.31072115898132324,1.7977311611175537,0.38661741590266624,81.0,817.0,0.0
R,U,"[4, 10]",1.0,7.0,0.20238399505615234,2.0042829513549805,0.7074449076950136,81.0,818.0,0.0
B,L,"[4, 9]",1.0,8.0,0.21987390518188477,2.0381500720977783,0.7289162074928781,81.0,819.0,0.0
R,U,"[3, 9]",1.0,9.0,0.18132901191711426,1.7611479759216309,0.49021181235523825,81.0,820.0,0.0
,,"(6, 6)",,,,,,,,
R,U,"[5, 6]",1.0,1.0,0.3014678955078125,10.428104162216187,0.3019196066342251,82.0,821.0,0.0
Y,R,"[5, 7]",1.0,2.0,0.2478327751159668,1.7005751132965088,0.3525472410281707,82.0,822.0,0.0
Y,R,"[5, 8]",1.0,3.0,0.22890496253967285,2.014754056930542,0.6835942301281881,82.0,823.0,0.0
G,D,"[6, 8]",1.0,4.0,0.1862180233001709,1.6474220752716064,0.3647959737437618,82.0,824.0,0.0
Y,R,"[6, 9]",1.0,5.0,0.24930715560913086,2.039445161819458,0.6872385937929457,82.0,825.0,0.0
Y,R,"[6, 10]",1.0,6.0,0.2077629566192627,1.736407995223999,0.4238836918698333,82.0,826.0,0.0
R,U,"[5, 10]",1.0,7.0,0.22275900840759277,1.9116790294647217,0.5854365906927247,82.0,827.0,0.0
R,U,"[4, 10]",1.0,8.0,0.23326802253723145,1.7489519119262695,0.4178711845842136,82.0,828.0,0.0
B,L,"[4, 9]",1.0,9.0,0.266218900680542,1.8097350597381592,0.44428774716913916,82.0,829.0,0.0
R,U,"[3, 9]",1.0,10.0,0.305311918258667,1.7873499393463135,0.3816914707099849,82.0,830.0,0.0
,,"(6, 6)",,,,,,,,
R,U,"[5, 6]",1.0,1.0,0.3303699493408203,3.2380528450012207,0.5363378448430596,83.0,831.0,0.0
Y,R,"[5, 7]",1.0,2.0,0.2153921127319336,1.8444130420684814,0.5308857558434299,83.0,832.0,0.0
Y,R,"[5, 8]",1.0,3.0,0.21419095993041992,1.7093760967254639,0.39032195232679723,83.0,833.0,0.0
G,D,"[6, 8]",1.0,4.0,0.11426496505737305,1.646852970123291,0.43724569769227994,83.0,834.0,0.0
Y,R,"[6, 9]",1.0,5.0,0.224898099899292,1.7278430461883545,0.39841817956147896,83.0,835.0,0.0
Y,R,"[6, 10]",1.0,6.0,0.22098302841186523,1.7267649173736572,0.40850944509680387,83.0,836.0,0.0
R,U,"[5, 10]",1.0,7.0,0.2663140296936035,1.914635181427002,0.556303154998307,83.0,837.0,0.0
R,U,"[4, 10]",1.0,8.0,0.2427229881286621,1.8026800155639648,0.45919462607170697,83.0,838.0,0.0
B,L,"[4, 9]",1.0,9.0,0.2477889060974121,1.6986088752746582,0.35786327380551003,83.0,839.0,0.0
R,U,"[3, 9]",1.0,10.0,0.19986796379089355,1.8194329738616943,0.5271442870659696,83.0,840.0,0.0
,,"(6, 6)",,,,,,,,
R,U,"[5, 6]",1.0,1.0,0.31574296951293945,2.466386079788208,0.5768387155526049,84.0,841.0,0.0
Y,R,"[5, 7]",1.0,2.0,0.3399779796600342,1.8699569702148438,0.43034179149652096,84.0,842.0,0.0
Y,R,"[5, 8]",1.0,3.0,0.23566985130310059,2.0021588802337646,0.6656454451856553,84.0,843.0,0.0
G,D,"[6, 8]",1.0,4.0,0.23970389366149902,1.6804049015045166,0.329720637820629,84.0,844.0,0.0
Y,R,"[6, 9]",1.0,5.0,0.23730802536010742,1.7560219764709473,0.4189698467194165,84.0,845.0,0.0
Y,R,"[6, 10]",1.0,6.0,0.17746496200561523,1.6903440952301025,0.40939038821422835,84.0,846.0,0.0
R,U,"[5, 10]",1.0,7.0,0.20895099639892578,1.8057689666748047,0.4985213427516793,84.0,847.0,0.0
R,U,"[4, 10]",1.0,8.0,0.16661596298217773,1.7720718383789062,0.5037729914946367,84.0,848.0,0.0
B,L,"[4, 9]",1.0,9.0,0.25058603286743164,2.0193819999694824,0.6731033056439031,84.0,849.0,0.0
R,U,"[3, 9]",1.0,10.0,0.18825101852416992,1.9077301025390625,0.5976071110328653,84.0,850.0,0.0
,,"(6, 6)",,,,,,,,
R,U,"[5, 6]",1.0,1.0,0.28749608993530273,2.8735320568084717,0.2713833670383354,85.0,851.0,0.0
Y,R,"[5, 7]",1.0,2.0,0.3553650379180908,2.0413520336151123,0.5792219343666063,85.0,852.0,0.0
Y,R,"[5, 8]",1.0,3.0,0.1672067642211914,1.5878419876098633,0.3173102159740761,85.0,853.0,0.0
G,D,"[6, 8]",1.0,4.0,0.14833307266235352,1.7188398838043213,0.4689962479746147,85.0,854.0,0.0
Y,R,"[6, 9]",-1.0,4.0,0.07802295684814453,5.481935977935791,0.2681420366163963,85.0,855.0,0.0
Y,R,"[6, 10]",1.0,5.0,0.3023068904876709,1.7174949645996094,0.31902554202170513,85.0,856.0,0.0
R,U,"[5, 10]",1.0,6.0,0.2323911190032959,1.6157360076904297,0.284874942375367,85.0,857.0,0.0
R,U,"[4, 10]",1.0,7.0,0.20463109016418457,1.926142930984497,0.6106732046387752,85.0,858.0,0.0
B,L,"[4, 9]",1.0,8.0,0.18930792808532715,1.9615979194641113,0.6722325976963341,85.0,859.0,0.0
R,U,"[3, 9]",1.0,9.0,0.1946558952331543,2.0426559448242188,0.7482902509556475,85.0,860.0,0.0
,,"(6, 6)",,,,,,,,
R,U,"[5, 6]",1.0,1.0,0.32958292961120605,3.177665948867798,0.5260952826846157,86.0,861.0,0.0
Y,R,"[5, 7]",1.0,2.0,0.31522297859191895,1.7826659679412842,0.375638592805098,86.0,862.0,0.0
Y,R,"[5, 8]",1.0,3.0,0.240339994430542,1.5880370140075684,0.2638901452185636,86.0,863.0,0.0
G,D,"[6, 8]",1.0,4.0,0.23584485054016113,1.8036179542541504,0.4673032773281495,86.0,864.0,0.0
Y,R,"[6, 9]",1.0,5.0,0.18803095817565918,1.7792620658874512,0.4965079605756488,86.0,865.0,0.0
Y,R,"[6, 10]",1.0,6.0,0.21372509002685547,1.9212679862976074,0.6010678205760301,86.0,866.0,0.0
R,U,"[5, 10]",1.0,7.0,0.17003583908081055,1.554914951324463,0.28952712129220487,86.0,867.0,0.0
R,U,"[4, 10]",1.0,8.0,0.23906493186950684,1.9476211071014404,0.6036461070402646,86.0,868.0,0.0
B,L,"[4, 9]",1.0,9.0,0.217789888381958,1.8212931156158447,0.5083484221622062,86.0,869.0,0.0
R,U,"[3, 9]",1.0,10.0,0.2596302032470703,1.6882071495056152,0.33008706880663163,86.0,870.0,0.0
,,"(6, 6)",,,,,,,,
R,U,"[5, 6]",1.0,1.0,0.3212289810180664,3.7262580394744873,0.6727718000792249,87.0,871.0,0.0
Y,R,"[5, 7]",1.0,2.0,0.2293708324432373,1.8168962001800537,0.4898332533821961,87.0,872.0,0.0
Y,R,"[5, 8]",1.0,3.0,0.23958396911621094,1.6324219703674316,0.28910555506201296,87.0,873.0,0.0
G,D,"[6, 8]",1.0,4.0,0.2672739028930664,1.707108974456787,0.3462930307251415,87.0,874.0,0.0
Y,R,"[6, 9]",1.0,5.0,0.22606277465820312,2.0074310302734375,0.6700155045178071,87.0,875.0,0.0
Y,R,"[6, 10]",1.0,6.0,0.19950389862060547,1.7141270637512207,0.41786277753255163,87.0,876.0,0.0
R,U,"[5, 10]",1.0,7.0,0.2541358470916748,2.092952013015747,0.7436914870454021,87.0,877.0,0.0
R,U,"[4, 10]",1.0,8.0,0.18999290466308594,1.9795429706573486,0.6900848314118834,87.0,878.0,0.0
B,L,"[4, 9]",1.0,9.0,0.18483805656433105,1.8075838088989258,0.5311382632928019,87.0,879.0,0.0
R,U,"[3, 9]",1.0,10.0,0.19609713554382324,1.5944550037384033,0.2924660585738449,87.0,880.0,0.0
,,"(6, 6)",,,,,,,,
R,U,"[5, 6]",1.0,1.0,0.2958691120147705,3.0784809589385986,0.4874965329503098,88.0,881.0,0.0
Y,R,"[5, 7]",1.0,2.0,0.23706603050231934,1.851822853088379,0.5227421942505157,88.0,882.0,0.0
Y,R,"[5, 8]",1.0,3.0,0.1974320411682129,1.6604418754577637,0.3665753017148272,88.0,883.0,0.0
G,D,"[6, 8]",1.0,4.0,0.3460681438446045,1.9068119525909424,0.4566258100652828,88.0,884.0,0.0
Y,R,"[6, 9]",1.0,5.0,0.23784995079040527,1.9783589839935303,0.6515363122205623,88.0,885.0,0.0
Y,R,"[6, 10]",1.0,6.0,0.17081689834594727,1.5432360172271729,0.27854187141158915,88.0,886.0,0.0
R,U,"[5, 10]",1.0,7.0,0.22542095184326172,1.6989519596099854,0.3773939654569835,88.0,887.0,0.0
R,U,"[4, 10]",1.0,8.0,0.21265411376953125,1.7612040042877197,0.4552324210108272,88.0,888.0,0.0
B,L,"[4, 9]",1.0,9.0,0.20475006103515625,1.9199020862579346,0.62498484155552,88.0,889.0,0.0
R,U,"[3, 9]",1.0,10.0,0.3643178939819336,1.90472412109375,0.4465992229636712,88.0,890.0,0.0
,,"(6, 6)",,,,,,,,
R,U,"[5, 6]",1.0,1.0,0.32523417472839355,3.0663270950317383,0.34635318720464614,89.0,891.0,0.0
Y,R,"[5, 7]",1.0,2.0,0.22022604942321777,1.680220127105713,0.35987830666915716,89.0,892.0,0.0
Y,R,"[5, 8]",1.0,3.0,0.19571399688720703,1.6706340312957764,0.38063458702743047,89.0,893.0,0.0
G,D,"[6, 8]",1.0,4.0,0.18738794326782227,1.8446681499481201,0.5583929652769735,89.0,894.0,0.0
Y,R,"[6, 9]",1.0,5.0,0.19905304908752441,1.7844669818878174,0.49298755602289623,89.0,895.0,0.0
Y,R,"[6, 10]",1.0,6.0,0.2057631015777588,1.933657169342041,0.6265917690064722,89.0,896.0,0.0
R,U,"[5, 10]",1.0,7.0,0.2735741138458252,2.087306022644043,0.7137190359488814,89.0,897.0,0.0
R,U,"[4, 10]",1.0,8.0,0.21862196922302246,1.7183318138122559,0.39885299574561356,89.0,898.0,0.0
B,L,"[4, 9]",1.0,9.0,0.2658219337463379,1.682560920715332,0.31509148080258853,89.0,899.0,0.0
R,U,"[3, 9]",1.0,10.0,0.2406330108642578,2.0383379459381104,0.686389567296894,89.0,900.0,0.0
,,"(6, 6)",,,,,,,,
R,U,"[5, 6]",1.0,1.0,0.35704994201660156,3.709257125854492,0.51269754529426,90.0,901.0,0.0
Y,R,"[5, 7]",1.0,2.0,0.2257709503173828,1.9272751808166504,0.5897376528477122,90.0,902.0,0.0
Y,R,"[5, 8]",1.0,3.0,0.18751788139343262,1.7290620803833008,0.45233690518451514,90.0,903.0,0.0
G,D,"[6, 8]",1.0,4.0,0.22292804718017578,1.9144620895385742,0.5833679543943938,90.0,904.0,0.0
Y,R,"[6, 9]",1.0,5.0,0.1607189178466797,1.9778361320495605,0.7111876151253942,90.0,905.0,0.0
Y,R,"[6, 10]",-1.0,5.0,0.018873929977416992,5.761251926422119,0.6226015570724082,90.0,906.0,0.0
R,U,"[5, 10]",1.0,6.0,0.2162020206451416,1.6159579753875732,0.30548584392606104,90.0,907.0,0.0
R,U,"[4, 10]",1.0,7.0,0.3317551612854004,2.0205249786376953,0.5924330329288292,90.0,908.0,0.0
B,L,"[4, 9]",1.0,8.0,0.22500300407409668,1.6339478492736816,0.3101258312401178,90.0,909.0,0.0
R,U,"[3, 9]",1.0,9.0,0.20766496658325195,2.0401368141174316,0.7332156268828727,90.0,910.0,0.0
,,"(6, 6)",,,,,,,,
R,U,"[5, 6]",1.0,1.0,0.2836730480194092,2.9860198497772217,0.3864150452724605,91.0,911.0,0.0
Y,R,"[5, 7]",1.0,2.0,0.23456811904907227,1.8824028968811035,0.5517754980121191,91.0,912.0,0.0
Y,R,"[5, 8]",1.0,3.0,0.20727801322937012,1.5673329830169678,0.2527915143681492,91.0,913.0,0.0
G,D,"[6, 8]",1.0,4.0,0.23775005340576172,2.082977056503296,0.7349533582343659,91.0,914.0,0.0
Y,R,"[6, 9]",1.0,5.0,0.21435809135437012,1.696044921875,0.38179569634165045,91.0,915.0,0.0
Y,R,"[6, 10]",1.0,6.0,0.2974698543548584,1.6537058353424072,0.2521231385305115,91.0,916.0,0.0
R,U,"[5, 10]",1.0,7.0,0.3226020336151123,2.0762858390808105,0.6448278446491542,91.0,917.0,0.0
R,U,"[4, 10]",1.0,8.0,0.18691110610961914,1.8338899612426758,0.5621062061359965,91.0,918.0,0.0
B,L,"[4, 9]",1.0,9.0,0.2448902130126953,1.7488739490509033,0.4112144087385249,91.0,919.0,0.0
R,U,"[3, 9]",1.0,10.0,0.23491907119750977,2.003084182739258,0.6807169908806501,91.0,920.0,0.0
,,"(6, 6)",,,,,,,,
R,U,"[5, 6]",1.0,1.0,0.3281841278076172,2.841403007507324,0.2724710840872401,92.0,921.0,0.0
Y,R,"[5, 7]",1.0,2.0,0.27216196060180664,1.848494052886963,0.4707391475974696,92.0,922.0,0.0
Y,R,"[5, 8]",1.0,3.0,0.22843289375305176,1.9326729774475098,0.6033850715557256,92.0,923.0,0.0
G,D,"[6, 8]",1.0,4.0,0.19182705879211426,1.8149340152740479,0.5185701917513263,92.0,924.0,0.0
Y,R,"[6, 9]",1.0,5.0,0.19309496879577637,1.6203761100769043,0.3224378258003205,92.0,925.0,0.0
Y,R,"[6, 10]",1.0,6.0,0.24852800369262695,1.9635679721832275,0.6191314211852543,92.0,926.0,0.0
R,U,"[5, 10]",1.0,7.0,0.21579504013061523,1.7948110103607178,0.4807527135340122,92.0,927.0,0.0
R,U,"[4, 10]",1.0,8.0,0.20088791847229004,2.0245699882507324,0.7218733462794956,92.0,928.0,0.0
B,L,"[4, 9]",1.0,9.0,0.19629788398742676,1.9990859031677246,0.7042022510916033,92.0,929.0,0.0
R,U,"[3, 9]",1.0,10.0,0.14792418479919434,1.9459259510040283,0.7002637806332036,92.0,930.0,0.0
,,"(6, 6)",,,,,,,,
R,U,"[5, 6]",1.0,1.0,0.31848978996276855,2.6899380683898926,0.6903212548150617,93.0,931.0,0.0
Y,R,"[5, 7]",1.0,2.0,0.19947290420532227,1.8099699020385742,0.5170265074126795,93.0,932.0,0.0
Y,R,"[5, 8]",1.0,3.0,0.21980881690979004,1.7117631435394287,0.3956067363001214,93.0,933.0,0.0
G,D,"[6, 8]",1.0,4.0,0.25679993629455566,2.058946132659912,0.7040602236838364,93.0,934.0,0.0
Y,R,"[6, 9]",1.0,5.0,0.19670701026916504,1.5628108978271484,0.2676363476415929,93.0,935.0,0.0
Y,R,"[6, 10]",1.0,6.0,0.28855109214782715,1.7369558811187744,0.3377401662558088,93.0,936.0,0.0
R,U,"[5, 10]",1.0,7.0,0.23970699310302734,1.9465558528900146,0.6007649221159028,93.0,937.0,0.0
R,U,"[4, 10]",1.0,8.0,0.22222495079040527,1.9799659252166748,0.6473157272647991,93.0,938.0,0.0
B,L,"[4, 9]",1.0,9.0,0.23592686653137207,1.7945349216461182,0.45880314302052794,93.0,939.0,0.0
R,U,"[3, 9]",1.0,10.0,0.18882107734680176,1.906728982925415,0.6155292749244874,93.0,940.0,0.0
,,"(6, 6)",,,,,,,,
R,U,"[5, 6]",1.0,1.0,0.33103013038635254,2.8674418926239014,0.6996832676133315,94.0,941.0,0.0
Y,R,"[5, 7]",1.0,2.0,0.21445488929748535,1.659742832183838,0.3429180330243869,94.0,942.0,0.0
Y,R,"[5, 8]",1.0,3.0,0.36850810050964355,1.9974589347839355,0.5402553656125215,94.0,943.0,0.0
G,D,"[6, 8]",1.0,4.0,0.18361115455627441,1.8444790840148926,0.5680726640487128,94.0,944.0,0.0
Y,R,"[6, 9]",1.0,5.0,0.22670793533325195,1.9547410011291504,0.6228547830353779,94.0,945.0,0.0
Y,R,"[6, 10]",1.0,6.0,0.1910250186920166,1.9907810688018799,0.6967532865227529,94.0,946.0,0.0
R,U,"[5, 10]",1.0,7.0,0.20480585098266602,2.0032970905303955,0.6836714032354668,94.0,947.0,0.0
R,U,"[4, 10]",1.0,8.0,0.22620606422424316,2.0147650241851807,0.6816138852183417,94.0,948.0,0.0
B,L,"[4, 9]",1.0,9.0,0.26448607444763184,1.64170503616333,0.27376939653395505,94.0,949.0,0.0
R,U,"[3, 9]",1.0,10.0,0.38688087463378906,1.775580883026123,0.2993793101815807,94.0,950.0,0.0
,,"(6, 6)",,,,,,,,
R,U,"[5, 6]",1.0,1.0,0.3270139694213867,2.5424890518188477,0.3585962162532342,95.0,951.0,0.0
Y,R,"[5, 7]",1.0,2.0,0.20578908920288086,1.8502790927886963,0.5419951843029176,95.0,952.0,0.0
Y,R,"[5, 8]",1.0,3.0,0.21269488334655762,1.68681001663208,0.3789264647100715,95.0,953.0,0.0
G,D,"[6, 8]",1.0,4.0,0.2772059440612793,1.9810171127319336,0.6097967730854068,95.0,954.0,0.0
Y,R,"[6, 9]",1.0,5.0,0.19800209999084473,1.962580919265747,0.6722460004627748,95.0,955.0,0.0
Y,R,"[6, 10]",1.0,6.0,0.24332308769226074,1.687471866607666,0.34348609486231335,95.0,956.0,0.0
R,U,"[5, 10]",1.0,7.0,0.2670929431915283,1.784782886505127,0.42811140746072707,95.0,957.0,0.0
R,U,"[4, 10]",1.0,8.0,0.23197102546691895,1.7444210052490234,0.4225920041542185,95.0,958.0,0.0
B,L,"[4, 9]",1.0,9.0,0.21317195892333984,1.8420689105987549,0.5311812664820175,95.0,959.0,0.0
R,U,"[3, 9]",1.0,10.0,0.18407106399536133,1.7753808498382568,0.490011674014358,95.0,960.0,0.0
,,"(6, 6)",,,,,,,,
R,U,"[5, 6]",1.0,1.0,0.32456398010253906,2.4639370441436768,0.737269505549257,96.0,961.0,0.0
Y,R,"[5, 7]",1.0,2.0,0.9004960060119629,2.4540750980377197,0.45791243578973057,96.0,962.0,0.0
Y,R,"[5, 8]",1.0,3.0,0.23985600471496582,1.8708980083465576,0.529132694350871,96.0,963.0,0.0
G,D,"[6, 8]",1.0,4.0,0.16650795936584473,1.7585718631744385,0.47107470064900864,96.0,964.0,0.0
Y,R,"[6, 9]",1.0,5.0,0.1918950080871582,1.6422228813171387,0.34669105355017554,96.0,965.0,0.0
Y,R,"[6, 10]",1.0,6.0,0.21667885780334473,1.8838942050933838,0.5637854768715016,96.0,966.0,0.0
R,U,"[5, 10]",1.0,7.0,0.21552705764770508,1.9310030937194824,0.6114192857218628,96.0,967.0,0.0
R,U,"[4, 10]",1.0,8.0,0.19097590446472168,1.523850917816162,0.25220392389435636,96.0,968.0,0.0
B,L,"[4, 9]",1.0,9.0,0.24268817901611328,1.8291480541229248,0.48122777491416396,96.0,969.0,0.0
R,U,"[3, 9]",1.0,10.0,0.21317505836486816,1.7844760417938232,0.4657948210189844,96.0,970.0,0.0
,,"(6, 6)",,,,,,,,
R,U,"[5, 6]",1.0,1.0,0.3585069179534912,3.00727915763855,0.3898697211872576,97.0,971.0,0.0
Y,R,"[5, 7]",1.0,2.0,0.18901801109313965,1.831089973449707,0.5375839822007551,97.0,972.0,0.0
Y,R,"[5, 8]",1.0,3.0,0.18152904510498047,1.6401820182800293,0.3611381175245216,97.0,973.0,0.0
G,D,"[6, 8]",1.0,4.0,0.1786201000213623,1.812147855758667,0.5398985124140647,97.0,974.0,0.0
Y,R,"[6, 9]",1.0,5.0,0.10599207878112793,1.7821710109710693,0.5717686406544777,97.0,975.0,0.0
Y,R,"[6, 10]",1.0,6.0,0.16379880905151367,1.573951005935669,0.3129054058445597,97.0,976.0,0.0
R,U,"[5, 10]",1.0,7.0,0.22559499740600586,2.028672933578491,0.6911498674685095,97.0,977.0,0.0
R,U,"[4, 10]",1.0,8.0,0.23559093475341797,1.792184829711914,0.4670721658755982,97.0,978.0,0.0
B,L,"[4, 9]",1.0,9.0,0.2787480354309082,2.020030975341797,0.636889595371393,97.0,979.0,0.0
R,U,"[3, 9]",1.0,10.0,0.29286694526672363,1.9007651805877686,0.5044396710910635,97.0,980.0,0.0
,,"(6, 6)",,,,,,,,
R,U,"[5, 6]",1.0,1.0,0.283236026763916,2.617845058441162,0.5557966853416167,98.0,981.0,0.0
Y,R,"[5, 7]",1.0,2.0,0.25772976875305176,2.1048970222473145,0.7437499815143925,98.0,982.0,0.0
Y,R,"[5, 8]",1.0,3.0,0.2508277893066406,2.028869152069092,0.6895185516377947,98.0,983.0,0.0
G,D,"[6, 8]",1.0,4.0,0.2535262107849121,1.6464879512786865,0.30303734242743074,98.0,984.0,0.0
Y,R,"[6, 9]",1.0,5.0,0.36469602584838867,2.113440990447998,0.6493862835159065,98.0,985.0,0.0
Y,R,"[6, 10]",1.0,6.0,0.20191407203674316,1.7065980434417725,0.40628129227824894,98.0,986.0,0.0
R,U,"[5, 10]",1.0,7.0,0.236159086227417,1.6538569927215576,0.3269001150239578,98.0,987.0,0.0
R,U,"[4, 10]",1.0,8.0,0.21398615837097168,1.6093800067901611,0.3030301389567807,98.0,988.0,0.0
B,L,"[4, 9]",1.0,9.0,0.21062994003295898,1.7838349342346191,0.4701399455663392,98.0,989.0,0.0
R,U,"[3, 9]",1.0,10.0,0.18747687339782715,1.7072820663452148,0.4273018641081874,98.0,990.0,0.0
,,"(6, 6)",,,,,,,,
R,U,"[5, 6]",1.0,1.0,0.2939951419830322,3.6512930393218994,0.6618673873644104,99.0,991.0,0.0
Y,R,"[5, 7]",1.0,2.0,0.17570209503173828,2.0035181045532227,0.7319425324806019,99.0,992.0,0.0
Y,R,"[5, 8]",1.0,3.0,0.20441389083862305,2.0348751544952393,0.7335126623461933,99.0,993.0,0.0
G,D,"[6, 8]",1.0,4.0,0.20244812965393066,2.0447020530700684,0.7449855012171387,99.0,994.0,0.0
Y,R,"[6, 9]",1.0,5.0,0.26156091690063477,1.8148291110992432,0.4598803080147185,99.0,995.0,0.0
Y,R,"[6, 10]",1.0,6.0,0.21777892112731934,1.739638090133667,0.4331842577601149,99.0,996.0,0.0
R,U,"[5, 10]",1.0,7.0,0.18763208389282227,2.044434070587158,0.743893370426522,99.0,997.0,0.0
R,U,"[4, 10]",1.0,8.0,0.2263622283935547,1.832927942276001,0.5103611063818786,99.0,998.0,0.0
B,L,"[4, 9]",1.0,9.0,0.2393500804901123,1.864759922027588,0.5253087412223971,99.0,999.0,0.0
R,U,"[3, 9]",1.0,10.0,0.16787481307983398,1.7755329608917236,0.5174386157978523,99.0,1000.0,0.0
