button_choice,action_choice,coordinate_choice,reward,cumulative_reward,rt,total_trial_time,iti,block_n,trial_n,trial_type
Y,R,"[6, 7]",-2.0,0.0,1.0542588233947754,2.7494730949401855,0.7000760961371708,0.0,1.0,0.0
B,L,"[6, 6]",0.0,0.0,0.39609503746032715,1.9017889499664307,0.5020634884984198,0.0,2.0,0.0
G,D,"[7, 6]",0.0,0.0,0.4436659812927246,2.0245068073272705,0.5767358180909028,0.0,3.0,0.0
R,U,"[6, 6]",0.0,0.0,0.44727492332458496,2.123832941055298,0.6834670600842079,0.0,4.0,0.0
Y,R,"[6, 7]",0.0,0.0,0.3476099967956543,2.0477418899536133,0.6978002418573805,0.0,5.0,0.0
G,D,"[7, 7]",0.0,0.0,0.22264385223388672,1.881734848022461,0.6462270709098655,0.0,6.0,0.0
B,L,"[7, 6]",0.0,0.0,0.35425305366516113,2.0790770053863525,0.7250682581476524,0.0,7.0,0.0
R,U,"[6, 6]",0.0,0.0,0.2485790252685547,1.5564370155334473,0.3153137733599926,0.0,8.0,0.0
G,D,"[7, 6]",0.0,0.0,0.46688008308410645,2.2149322032928467,0.7463691812874074,0.0,9.0,0.0
B,L,"[7, 5]",0.0,0.0,0.2092299461364746,1.7020668983459473,0.48215484513649565,0.0,10.0,0.0
,,"(6, 6)",,,,,,,,
B,L,"[6, 5]",0.0,0.0,0.3642110824584961,3.573150873184204,0.6049334141078502,1.0,11.0,0.0
G,D,"[7, 5]",0.0,0.0,0.2745020389556885,1.7944409847259521,0.5161513979129435,1.0,12.0,0.0
R,U,"[6, 5]",0.0,0.0,0.4014620780944824,1.8215398788452148,0.4210724199494329,1.0,13.0,0.0
Y,R,"[6, 6]",0.0,0.0,0.421008825302124,1.755444049835205,0.34316268228884,1.0,14.0,0.0
B,L,"[6, 5]",0.0,0.0,0.47293877601623535,1.9590208530426025,0.4854194063489478,1.0,15.0,0.0
G,D,"[7, 5]",0.0,0.0,0.4221460819244385,1.8649239540100098,0.45025843968003904,1.0,16.0,0.0
R,U,"[6, 5]",0.0,0.0,0.34943699836730957,1.9427659511566162,0.5929496225081663,1.0,17.0,0.0
G,D,"[7, 5]",0.0,0.0,0.27608513832092285,1.920335054397583,0.6463653978672326,1.0,18.0,0.0
B,L,"[7, 4]",0.0,0.0,0.309938907623291,1.7031409740447998,0.3831588681286038,1.0,19.0,0.0
Y,R,"[7, 5]",0.0,0.0,0.5258009433746338,1.883937120437622,0.35047227909768425,1.0,20.0,0.0
,,"(6, 6)",,,,,,,,
R,U,"[5, 6]",1.0,1.0,0.333327054977417,14.736751079559326,0.5200089413978628,2.0,21.0,0.0
R,U,"[4, 6]",0.0,1.0,0.27294111251831055,1.6021380424499512,0.3223357551751228,2.0,22.0,0.0
B,L,"[4, 5]",0.0,1.0,0.3679358959197998,1.9335660934448242,0.572309169319829,2.0,23.0,0.0
G,D,"[5, 5]",0.0,1.0,0.27059292793273926,2.010688066482544,0.7494047405290862,2.0,24.0,0.0
Y,R,"[5, 6]",0.0,1.0,0.32093310356140137,2.027496814727783,0.7101069007001859,2.0,25.0,0.0
R,U,"[4, 6]",0.0,1.0,0.22218585014343262,1.742203950881958,0.5193255312030085,2.0,26.0,0.0
G,D,"[5, 6]",0.0,1.0,0.5292510986328125,1.9910328388214111,0.46020227535557495,2.0,27.0,0.0
B,L,"[5, 5]",0.0,1.0,0.28385400772094727,1.5895748138427734,0.31661942696965195,2.0,28.0,0.0
Y,R,"[5, 6]",0.0,1.0,0.43788695335388184,2.124089002609253,0.6736265776554557,2.0,29.0,0.0
R,U,"[4, 6]",0.0,1.0,0.2913029193878174,1.7300140857696533,0.43716518687690875,2.0,30.0,0.0
,,"(6, 6)",,,,,,,,
G,D,"[7, 6]",0.0,0.0,0.5966949462890625,11.656054973602295,0.7423194540385645,3.0,31.0,0.0
B,L,"[7, 5]",0.0,0.0,0.5850560665130615,1.8692140579223633,0.29521689357126285,3.0,32.0,0.0
Y,R,"[7, 6]",0.0,0.0,0.5821259021759033,1.8216450214385986,0.2502107802810431,3.0,33.0,0.0
Y,R,"[7, 7]",0.0,0.0,0.3188018798828125,2.013490915298462,0.6964205671690304,3.0,34.0,0.0
R,U,"[6, 7]",0.0,0.0,0.6096611022949219,1.992933988571167,0.3896349631360317,3.0,35.0,0.0
R,U,"[5, 7]",1.0,1.0,0.4247870445251465,2.0171890258789062,0.589836806866431,3.0,36.0,0.0
R,U,"[4, 7]",0.0,1.0,0.267042875289917,1.8206160068511963,0.5603702638967218,3.0,37.0,0.0
B,L,"[4, 6]",0.0,1.0,0.28031301498413086,1.8640120029449463,0.5910596780937607,3.0,38.0,0.0
G,D,"[5, 6]",1.0,2.0,0.35373711585998535,1.764233112335205,0.42198023514441135,3.0,39.0,0.0
Y,R,"[5, 7]",0.0,2.0,0.5289759635925293,2.272977113723755,0.7445068257287,3.0,40.0,0.0
,,"(6, 6)",,,,,,,,
G,D,"[7, 6]",0.0,0.0,0.7700388431549072,4.036900997161865,0.7483360391998849,4.0,41.0,0.0
R,U,"[6, 6]",0.0,0.0,0.32925891876220703,1.7948567867279053,0.45972416798790344,4.0,42.0,0.0
B,L,"[6, 5]",0.0,0.0,0.713097095489502,2.250786066055298,0.5436549517640403,4.0,43.0,0.0
Y,R,"[6, 6]",0.0,0.0,0.45293498039245605,2.166959047317505,0.727022064684538,4.0,44.0,0.0
G,D,"[7, 6]",0.0,0.0,0.4282848834991455,1.7982821464538574,0.3755400368239462,4.0,45.0,0.0
B,L,"[7, 5]",0.0,0.0,0.33963704109191895,1.7945239543914795,0.46983896327318664,4.0,46.0,0.0
R,U,"[6, 5]",0.0,0.0,0.6562988758087158,2.0194389820098877,0.3559923566815216,4.0,47.0,0.0
G,D,"[7, 5]",0.0,0.0,0.5346009731292725,1.9188570976257324,0.39152542653391975,4.0,48.0,0.0
Y,R,"[7, 6]",0.0,0.0,0.6971850395202637,2.196280002593994,0.5041838523407,4.0,49.0,0.0
B,L,"[7, 5]",0.0,0.0,0.7988319396972656,2.1878061294555664,0.39201743118016213,4.0,50.0,0.0
,,"(6, 6)",,,,,,,,
R,U,"[5, 6]",1.0,1.0,0.4128861427307129,3.1814160346984863,0.6231243999638367,5.0,51.0,0.0
G,D,"[6, 6]",0.0,1.0,0.5621140003204346,2.269537925720215,0.7091076766192432,5.0,52.0,0.0
Y,R,"[6, 7]",0.0,1.0,0.299393892288208,1.7009360790252686,0.4101666671792517,5.0,53.0,0.0
B,L,"[6, 6]",0.0,1.0,0.9346649646759033,2.421588897705078,0.49832400061518056,5.0,54.0,0.0
R,U,"[5, 6]",0.0,1.0,0.4571719169616699,1.9179000854492188,0.4495646023173253,5.0,55.0,0.0
R,U,"[4, 6]",0.0,1.0,0.4314119815826416,1.8990099430084229,0.46514355633528354,5.0,56.0,0.0
G,D,"[5, 6]",0.0,1.0,0.7074499130249023,2.4245529174804688,0.7059844374532139,5.0,57.0,0.0
B,L,"[5, 5]",0.0,1.0,0.7837247848510742,2.46657395362854,0.6892283968749735,5.0,58.0,0.0
B,L,"[5, 4]",0.0,1.0,0.5691111087799072,2.1828341484069824,0.6220186163012101,5.0,59.0,0.0
Y,R,"[5, 5]",0.0,1.0,0.611644983291626,2.2197370529174805,0.6083309687180729,5.0,60.0,0.0
,,"(6, 6)",,,,,,,,
R,U,"[5, 6]",1.0,1.0,0.5546159744262695,3.421171188354492,0.6293633762977878,6.0,61.0,0.0
R,U,"[4, 6]",0.0,1.0,0.7739431858062744,2.5102779865264893,0.722732789959049,6.0,62.0,0.0
G,D,"[5, 6]",0.0,1.0,0.7926788330078125,2.312530040740967,0.5187279483975851,6.0,63.0,0.0
G,D,"[6, 6]",-2.0,1.0,1.0110490322113037,2.3125500679016113,0.33140976587851223,6.0,64.0,0.0
B,L,"[6, 5]",0.0,1.0,0.37224411964416504,1.8538331985473633,0.46824698810960114,6.0,65.0,0.0
Y,R,"[6, 6]",0.0,1.0,0.4042470455169678,1.6611340045928955,0.2629582708082998,6.0,66.0,0.0
G,D,"[7, 6]",0.0,1.0,0.49361205101013184,2.014230966567993,0.5100915180569323,6.0,67.0,0.0
B,L,"[7, 5]",0.0,1.0,0.3705739974975586,2.0019891262054443,0.6453235115341163,6.0,68.0,0.0
R,U,"[6, 5]",0.0,1.0,0.49594807624816895,1.800753116607666,0.29635563989688934,6.0,69.0,0.0
G,D,"[7, 5]",0.0,1.0,0.4417879581451416,1.9617631435394287,0.5078274499000712,6.0,70.0,0.0
,,"(6, 6)",,,,,,,,
R,U,"[5, 6]",1.0,1.0,0.259523868560791,3.1283299922943115,0.25283543008885206,7.0,71.0,0.0
B,L,"[5, 5]",0.0,1.0,0.845513105392456,2.355583906173706,0.5082255774277495,7.0,72.0,0.0
Y,R,"[5, 6]",0.0,1.0,0.5025382041931152,1.9907419681549072,0.4987788497873977,7.0,73.0,0.0
G,D,"[6, 6]",0.0,1.0,0.6305060386657715,2.2884788513183594,0.6536669474251082,7.0,74.0,0.0
R,U,"[5, 6]",0.0,1.0,0.4816889762878418,2.0818350315093994,0.6026164448566746,7.0,75.0,0.0
R,U,"[4, 6]",0.0,1.0,0.41689300537109375,1.7777659893035889,0.36348157068175585,7.0,76.0,0.0
Y,R,"[4, 7]",0.0,1.0,0.5694057941436768,2.0705909729003906,0.5005800532539388,7.0,77.0,0.0
G,D,"[5, 7]",1.0,2.0,0.4421079158782959,1.8496999740600586,0.4003003888346798,7.0,78.0,0.0
G,D,"[6, 7]",0.0,2.0,0.8457779884338379,2.447199821472168,0.5971515766274167,7.0,79.0,0.0
B,L,"[6, 6]",0.0,2.0,0.33968305587768555,1.73362398147583,0.39761075505895577,7.0,80.0,0.0
,,"(6, 6)",,,,,,,,
R,U,"[5, 6]",1.0,1.0,0.38851499557495117,3.0697431564331055,0.5170976326234824,8.0,81.0,0.0
G,D,"[6, 6]",0.0,1.0,0.5486969947814941,2.1456902027130127,0.5959689732448841,8.0,82.0,0.0
R,U,"[5, 6]",0.0,1.0,0.35162901878356934,1.9276409149169922,0.5735874527300417,8.0,83.0,0.0
B,L,"[5, 5]",0.0,1.0,0.6620149612426758,2.1107380390167236,0.45104002267909343,8.0,84.0,0.0
Y,R,"[5, 6]",0.0,1.0,0.37027502059936523,2.1115620136260986,0.7455858396429736,8.0,85.0,0.0
G,D,"[6, 6]",0.0,1.0,0.5706298351287842,2.037353992462158,0.46645242446166396,8.0,86.0,0.0
G,D,"[7, 6]",0.0,1.0,0.3457670211791992,1.991575002670288,0.6410974059645471,8.0,87.0,0.0
B,L,"[7, 5]",0.0,1.0,0.3418910503387451,1.794400930404663,0.4523081834661101,8.0,88.0,0.0
G,D,"[8, 5]",0.0,1.0,0.3179450035095215,1.976806879043579,0.6621978074217222,8.0,89.0,0.0
G,D,"[9, 5]",0.0,1.0,0.5225720405578613,2.162003993988037,0.6239873048086528,8.0,90.0,0.0
,,"(6, 6)",,,,,,,,
R,U,"[5, 6]",1.0,1.0,0.3708980083465576,3.961946964263916,0.602656677824805,9.0,91.0,0.0
G,D,"[6, 6]",0.0,1.0,0.35687708854675293,1.8736538887023926,0.5095282475929985,9.0,92.0,0.0
B,L,"[6, 5]",0.0,1.0,0.4622020721435547,2.2005960941314697,0.7431972294383884,9.0,93.0,0.0
B,L,"[6, 4]",0.0,1.0,0.23725509643554688,1.9652190208435059,0.7417049562027089,9.0,94.0,0.0
Y,R,"[6, 5]",0.0,1.0,0.49352598190307617,1.7627599239349365,0.2715489006632068,9.0,95.0,0.0
B,L,"[6, 4]",0.0,1.0,0.6465568542480469,2.232851982116699,0.5872533534403859,9.0,96.0,0.0
G,D,"[7, 4]",0.0,1.0,0.29749107360839844,1.745361089706421,0.4493733307952764,9.0,97.0,0.0
R,U,"[6, 4]",0.0,1.0,0.44246411323547363,1.9122281074523926,0.4615268989125578,9.0,98.0,0.0
G,D,"[7, 4]",0.0,1.0,0.6504261493682861,2.262876033782959,0.6240790633631963,9.0,99.0,0.0
G,D,"[8, 4]",0.0,1.0,0.6368639469146729,2.166731834411621,0.5409201339481369,9.0,100.0,0.0
,,"(6, 6)",,,,,,,,
G,D,"[7, 6]",0.0,0.0,0.4682919979095459,3.101378917694092,0.6419494464540656,10.0,101.0,0.0
B,L,"[7, 5]",0.0,0.0,0.3809990882873535,1.9105069637298584,0.5359314124531396,10.0,102.0,0.0
Y,R,"[7, 6]",0.0,0.0,0.3443319797515869,1.620272159576416,0.27312724287201273,10.0,103.0,0.0
R,U,"[6, 6]",0.0,0.0,0.5237579345703125,1.967137098312378,0.43999114910792836,10.0,104.0,0.0
B,L,"[6, 5]",0.0,0.0,0.3500330448150635,2.047632932662964,0.704034116325622,10.0,105.0,0.0
G,D,"[7, 5]",0.0,0.0,0.34144115447998047,1.6847338676452637,0.33902534678764495,10.0,106.0,0.0
Y,R,"[7, 6]",0.0,0.0,0.8266551494598389,2.37631893157959,0.5484022025136686,10.0,107.0,0.0
B,L,"[7, 5]",0.0,0.0,0.2132740020751953,1.9420840740203857,0.7235617013653812,10.0,108.0,0.0
R,U,"[6, 5]",0.0,0.0,0.30597996711730957,1.6509239673614502,0.3414743670000241,10.0,109.0,0.0
G,D,"[7, 5]",0.0,0.0,0.5889689922332764,2.2011749744415283,0.6092858559537903,10.0,110.0,0.0
,,"(6, 6)",,,,,,,,
R,U,"[5, 6]",1.0,1.0,0.31035685539245605,3.2339389324188232,0.45958735088063724,11.0,111.0,0.0
R,U,"[4, 6]",0.0,1.0,0.37268996238708496,1.8406670093536377,0.4667598050103536,11.0,112.0,0.0
R,U,"[3, 6]",0.0,1.0,0.36350107192993164,1.8954179286956787,0.5288003568601551,11.0,113.0,0.0
B,L,"[3, 5]",0.0,1.0,0.22250914573669434,1.6153500080108643,0.3942260256913616,11.0,114.0,0.0
Y,R,"[3, 6]",0.0,1.0,0.708543062210083,2.2760820388793945,0.5700293698843343,11.0,115.0,0.0
G,D,"[4, 6]",0.0,1.0,0.334212064743042,1.7402780055999756,0.41034491081097646,11.0,116.0,0.0
B,L,"[4, 5]",0.0,1.0,0.21291303634643555,1.8358509540557861,0.6293800257365618,11.0,117.0,0.0
R,U,"[3, 5]",0.0,1.0,0.22424602508544922,1.604046106338501,0.38364035224619103,11.0,118.0,0.0
B,L,"[3, 4]",0.0,1.0,0.7188780307769775,2.3027470111846924,0.5860922712462,11.0,119.0,0.0
G,D,"[4, 4]",0.0,1.0,0.5097601413726807,1.9213459491729736,0.4074901094253625,11.0,120.0,0.0
,,"(6, 6)",,,,,,,,
Y,R,"[6, 7]",0.0,0.0,0.6188280582427979,3.1740918159484863,0.2982702612759351,12.0,121.0,0.0
B,L,"[6, 6]",0.0,0.0,0.6867849826812744,2.2844760417938232,0.5990813269014028,12.0,122.0,0.0
R,U,"[5, 6]",1.0,1.0,0.4877328872680664,2.2284841537475586,0.7440127753704988,12.0,123.0,0.0
R,U,"[4, 6]",0.0,1.0,0.26976799964904785,1.5135719776153564,0.25789423519637855,12.0,124.0,0.0
G,D,"[5, 6]",0.0,1.0,0.2870190143585205,1.5850939750671387,0.3096681928255934,12.0,125.0,0.0
G,D,"[6, 6]",0.0,1.0,0.3676280975341797,1.7176940441131592,0.3604335263483099,12.0,126.0,0.0
B,L,"[6, 5]",0.0,1.0,0.18822193145751953,1.8789939880371094,0.6891663398321506,12.0,127.0,0.0
B,L,"[6, 4]",0.0,1.0,0.28818702697753906,1.8232998847961426,0.5457884589690424,12.0,128.0,0.0
Y,R,"[6, 5]",0.0,1.0,0.2883791923522949,1.5399420261383057,0.25271868749576853,12.0,129.0,0.0
Y,R,"[6, 6]",0.0,1.0,0.6089918613433838,2.1317880153656006,0.5175188856709314,12.0,130.0,0.0
,,"(6, 6)",,,,,,,,
R,U,"[5, 6]",-1.0,0.0,0.08655190467834473,6.975541830062866,0.2596182623540803,13.0,131.0,0.0
R,U,"[4, 6]",0.0,0.0,0.7779719829559326,2.392406940460205,0.61837162277761,13.0,132.0,0.0
B,L,"[4, 5]",0.0,0.0,0.42891597747802734,1.755059003829956,0.3237059494889881,13.0,133.0,0.0
G,D,"[5, 5]",0.0,0.0,0.5719590187072754,2.306040048599243,0.7292124092369547,13.0,134.0,0.0
Y,R,"[5, 6]",0.0,0.0,0.3042149543762207,1.6169800758361816,0.29656802297892715,13.0,135.0,0.0
B,L,"[5, 5]",0.0,0.0,0.5355188846588135,2.1885859966278076,0.6513883920935906,13.0,136.0,0.0
R,U,"[4, 5]",0.0,0.0,0.25720715522766113,1.6221671104431152,0.35719425927703063,13.0,137.0,0.0
G,D,"[5, 5]",0.0,0.0,0.43379807472229004,2.141350030899048,0.7146680234467733,13.0,138.0,0.0
B,L,"[5, 4]",0.0,0.0,0.32475996017456055,1.9818251132965088,0.646584921460303,13.0,139.0,0.0
Y,R,"[5, 5]",0.0,0.0,0.44917917251586914,2.1610050201416016,0.7074655005174442,13.0,140.0,0.0
,,"(6, 6)",,,,,,,,
R,U,"[5, 6]",1.0,1.0,0.4290330410003662,3.2253658771514893,0.566188021127357,14.0,141.0,0.0
R,U,"[4, 6]",0.0,1.0,0.3527660369873047,2.096627950668335,0.7458133590887057,14.0,142.0,0.0
R,U,"[3, 6]",0.0,1.0,0.43492913246154785,1.7202560901641846,0.2831952888848884,14.0,143.0,0.0
R,U,"[2, 6]",0.0,1.0,0.45009398460388184,2.1928138732910156,0.7420789233439269,14.0,144.0,0.0
R,U,"[1, 6]",0.0,1.0,0.5691120624542236,2.2967329025268555,0.7391288298149384,14.0,145.0,0.0
B,L,"[1, 5]",-1.0,1.0,0.006265878677368164,5.702585935592651,0.6417122298284279,14.0,146.0,0.0
B,L,"[1, 4]",-2.0,1.0,1.0747020244598389,2.573975086212158,0.531990221490193,14.0,147.0,0.0
B,L,"[1, 3]",0.0,1.0,0.9633541107177734,2.256880044937134,0.2889492227555848,14.0,148.0,0.0
G,D,"[2, 3]",0.0,1.0,0.5922739505767822,2.0270750522613525,0.4325638765749901,14.0,149.0,0.0
R,U,"[1, 3]",0.0,1.0,0.5209801197052002,1.8059539794921875,0.28852169466522726,14.0,150.0,0.0
,,"(6, 6)",,,,,,,,
R,U,"[5, 6]",1.0,1.0,0.6104741096496582,3.0080368518829346,0.3465197591005008,15.0,151.0,0.0
G,D,"[6, 6]",0.0,1.0,0.8943657875061035,2.199589967727661,0.2960717766714818,15.0,152.0,0.0
B,L,"[6, 5]",0.0,1.0,0.8742730617523193,2.3321609497070312,0.44461229899542626,15.0,153.0,0.0
Y,R,"[6, 6]",0.0,1.0,0.5115349292755127,2.010915994644165,0.505330261084616,15.0,154.0,0.0
R,U,"[5, 6]",0.0,1.0,0.574880838394165,2.224375009536743,0.646267094402495,15.0,155.0,0.0
B,L,"[5, 5]",-1.0,1.0,0.08564305305480957,5.534224987030029,0.3805301540413592,15.0,156.0,0.0
B,L,"[5, 4]",0.0,1.0,0.3972008228302002,2.1190390586853027,0.7158269369465271,15.0,157.0,0.0
G,D,"[6, 4]",0.0,1.0,0.4768350124359131,1.8596768379211426,0.37580558117387275,15.0,158.0,0.0
Y,R,"[6, 5]",0.0,1.0,0.7805159091949463,2.443665027618408,0.6691670071571385,15.0,159.0,0.0
B,L,"[6, 4]",-2.0,1.0,1.1144969463348389,2.482058048248291,0.4013922560360736,15.0,160.0,0.0
,,"(6, 6)",,,,,,,,
R,U,"[5, 6]",1.0,1.0,0.27095699310302734,3.8145499229431152,0.7486867440560696,16.0,161.0,0.0
B,L,"[5, 5]",0.0,1.0,0.3394460678100586,1.7803809642791748,0.4293995555302193,16.0,162.0,0.0
G,D,"[6, 5]",0.0,1.0,0.4691028594970703,1.7719521522521973,0.3014792852399328,16.0,163.0,0.0
Y,R,"[6, 6]",0.0,1.0,0.6536991596221924,2.1374759674072266,0.4886992542942815,16.0,164.0,0.0
R,U,"[5, 6]",0.0,1.0,0.6830718517303467,2.069171905517578,0.3911496178933146,16.0,165.0,0.0
G,D,"[6, 6]",0.0,1.0,0.29136085510253906,1.8093249797821045,0.5172817280963522,16.0,166.0,0.0
B,L,"[6, 5]",0.0,1.0,0.30567097663879395,1.8475909233093262,0.5311084922180561,16.0,167.0,0.0
Y,R,"[6, 6]",0.0,1.0,0.300706148147583,1.6003029346466064,0.29838690300824106,16.0,168.0,0.0
B,L,"[6, 5]",0.0,1.0,0.4246690273284912,2.046065092086792,0.6107425253561494,16.0,169.0,0.0
Y,R,"[6, 6]",0.0,1.0,0.220656156539917,1.699193000793457,0.4933564944905923,16.0,170.0,0.0
,,"(6, 6)",,,,,,,,
R,U,"[5, 6]",1.0,1.0,0.277742862701416,3.0178699493408203,0.3278829816087645,17.0,171.0,0.0
R,U,"[4, 6]",0.0,1.0,0.16559100151062012,1.4960589408874512,0.34054671839031914,17.0,172.0,0.0
Y,R,"[4, 7]",0.0,1.0,0.49561095237731934,1.9217658042907715,0.4289552921315897,17.0,173.0,0.0
B,L,"[4, 6]",0.0,1.0,0.31627607345581055,1.975193977355957,0.6540776844703459,17.0,174.0,0.0
G,D,"[5, 6]",0.0,1.0,0.3645451068878174,1.737720012664795,0.37510096009857047,17.0,175.0,0.0
G,D,"[6, 6]",0.0,1.0,0.6172258853912354,2.130213975906372,0.5219631736227692,17.0,176.0,0.0
B,L,"[6, 5]",0.0,1.0,0.41695690155029297,1.7947289943695068,0.383250995968876,17.0,177.0,0.0
R,U,"[5, 5]",0.0,1.0,0.5939679145812988,2.0563979148864746,0.45617994035579773,17.0,178.0,0.0
Y,R,"[5, 6]",0.0,1.0,0.25385499000549316,1.7432708740234375,0.49931625451717304,17.0,179.0,0.0
B,L,"[5, 5]",0.0,1.0,0.37081003189086914,2.0641448497772217,0.6965643556447716,17.0,180.0,0.0
,,"(6, 6)",,,,,,,,
R,U,"[5, 6]",1.0,1.0,0.16963791847229004,3.0970728397369385,0.36045491425407045,18.0,181.0,0.0
R,U,"[4, 6]",0.0,1.0,0.3258330821990967,1.9991140365600586,0.6758418272156008,18.0,182.0,0.0
G,D,"[5, 6]",0.0,1.0,0.6928369998931885,2.3278720378875732,0.6370049249433527,18.0,183.0,0.0
B,L,"[5, 5]",0.0,1.0,0.44090700149536133,1.778540849685669,0.3492084456718322,18.0,184.0,0.0
Y,R,"[5, 6]",0.0,1.0,0.8491289615631104,2.500235080718994,0.6490420621589972,18.0,185.0,0.0
B,L,"[5, 5]",0.0,1.0,0.2590610980987549,1.9916160106658936,0.724300580691436,18.0,186.0,0.0
G,D,"[6, 5]",0.0,1.0,0.2808570861816406,2.020426034927368,0.7442219452063046,18.0,187.0,0.0
B,L,"[6, 4]",0.0,1.0,0.399061918258667,2.1049859523773193,0.7157617838393219,18.0,188.0,0.0
R,U,"[5, 4]",0.0,1.0,0.6633820533752441,2.2359490394592285,0.5688980318521664,18.0,189.0,0.0
G,D,"[6, 4]",0.0,1.0,0.6050610542297363,2.2197518348693848,0.6215323199325423,18.0,190.0,0.0
,,"(6, 6)",,,,,,,,
R,U,"[5, 6]",1.0,1.0,0.36994481086730957,3.2726569175720215,0.4941570047262951,19.0,191.0,0.0
R,U,"[4, 6]",0.0,1.0,0.3666529655456543,2.0570008754730225,0.7008148229812721,19.0,192.0,0.0
G,D,"[5, 6]",0.0,1.0,0.48496317863464355,1.740861177444458,0.2587281099906543,19.0,193.0,0.0
B,L,"[5, 5]",0.0,1.0,0.6215841770172119,1.892199993133545,0.28431288390722087,19.0,194.0,0.0
Y,R,"[5, 6]",-2.0,1.0,1.0086700916290283,2.5215799808502197,0.5388566474274362,19.0,195.0,0.0
Y,R,"[5, 7]",1.0,2.0,0.22095799446105957,1.6148059368133545,0.4037909671488481,19.0,196.0,0.0
Y,R,"[5, 8]",1.0,3.0,0.2955131530761719,1.9113290309906006,0.6147219983312253,19.0,197.0,0.0
Y,R,"[5, 9]",0.0,3.0,0.18662285804748535,1.5409550666809082,0.35601112977661514,19.0,198.0,0.0
Y,R,"[5, 10]",-1.0,3.0,0.027625083923339844,5.400357007980347,0.32289902342711796,19.0,199.0,0.0
B,L,"[5, 9]",0.0,3.0,0.8282079696655273,2.4235939979553223,0.5960814882703054,19.0,200.0,0.0
,,"(6, 6)",,,,,,,,
Y,R,"[6, 7]",0.0,0.0,0.5789370536804199,3.503679037094116,0.4165246273671583,20.0,201.0,0.0
R,U,"[5, 7]",1.0,1.0,0.5687949657440186,2.288137912750244,0.721419768181459,20.0,202.0,0.0
R,U,"[4, 7]",0.0,1.0,0.35436010360717773,1.842710018157959,0.48051483806631734,20.0,203.0,0.0
Y,R,"[4, 8]",0.0,1.0,0.7374489307403564,2.444450855255127,0.7080070631434034,20.0,204.0,0.0
G,D,"[5, 8]",1.0,2.0,0.37610507011413574,1.8592448234558105,0.48409637756162327,20.0,205.0,0.0
B,L,"[5, 7]",0.0,2.0,0.6854560375213623,2.385077953338623,0.7022094789424844,20.0,206.0,0.0
G,D,"[6, 7]",0.0,2.0,0.3450660705566406,1.829167127609253,0.48147332015711136,20.0,207.0,0.0
R,U,"[5, 7]",0.0,2.0,0.47276806831359863,1.768010139465332,0.28302392959199135,20.0,208.0,0.0
G,D,"[6, 7]",0.0,2.0,0.7210898399353027,2.35825514793396,0.6408573884185771,20.0,209.0,0.0
G,D,"[7, 7]",0.0,2.0,0.6430439949035645,2.1450610160827637,0.5026900683919147,20.0,210.0,0.0
,,"(6, 6)",,,,,,,,
G,D,"[7, 6]",-2.0,0.0,1.0718510150909424,3.601814031600952,0.2545108157952297,21.0,211.0,0.0
G,D,"[8, 6]",0.0,0.0,0.643153190612793,2.2686381340026855,0.622844279408484,21.0,212.0,0.0
R,U,"[7, 6]",0.0,0.0,0.29160594940185547,1.8435311317443848,0.549713933761866,21.0,213.0,0.0
Y,R,"[7, 7]",0.0,0.0,0.3362700939178467,2.0034611225128174,0.6696479974911165,21.0,214.0,0.0
B,L,"[7, 6]",0.0,0.0,0.3632800579071045,2.068092107772827,0.704340346119256,21.0,215.0,0.0
G,D,"[8, 6]",0.0,0.0,0.35882115364074707,1.7039270401000977,0.34189208411432936,21.0,216.0,0.0
R,U,"[7, 6]",0.0,0.0,0.6225922107696533,1.8875319957733154,0.26270596314272343,21.0,217.0,0.0
B,L,"[7, 5]",0.0,0.0,0.6525468826293945,2.375948905944824,0.7215815006230547,21.0,218.0,0.0
G,D,"[8, 5]",0.0,0.0,0.39304208755493164,1.6683058738708496,0.2735080036023334,21.0,219.0,0.0
B,L,"[8, 4]",0.0,0.0,0.5709691047668457,2.1194169521331787,0.5593175923561116,21.0,220.0,0.0
,,"(6, 6)",,,,,,,,
R,U,"[5, 6]",1.0,1.0,0.38756394386291504,3.764491081237793,0.35723361608897364,22.0,221.0,0.0
Y,R,"[5, 7]",1.0,2.0,0.5688889026641846,2.2886040210723877,0.7286147997355988,22.0,222.0,0.0
G,D,"[6, 7]",0.0,2.0,0.31082701683044434,1.9941799640655518,0.6729219581975558,22.0,223.0,0.0
Y,R,"[6, 8]",1.0,3.0,0.34441685676574707,1.663830041885376,0.3203688053582457,22.0,224.0,0.0
Y,R,"[6, 9]",1.0,4.0,0.34785914421081543,1.7710599899291992,0.424601993992976,22.0,225.0,0.0
Y,R,"[6, 10]",1.0,5.0,0.23912405967712402,1.5868799686431885,0.36141879792665765,22.0,226.0,0.0
Y,R,"[6, 11]",0.0,5.0,0.251755952835083,1.7978448867797852,0.5589911290051166,22.0,227.0,0.0
R,U,"[5, 11]",0.0,5.0,0.3358030319213867,1.6590931415557861,0.33508707497055185,22.0,228.0,0.0
B,L,"[5, 10]",1.0,6.0,0.235062837600708,1.907508134841919,0.6757631133028958,22.0,229.0,0.0
B,L,"[5, 9]",0.0,6.0,0.3210768699645996,1.5683999061584473,0.260732017620346,22.0,230.0,0.0
,,"(6, 6)",,,,,,,,
Y,R,"[6, 7]",0.0,0.0,0.5525219440460205,3.5332179069519043,0.32732809953669306,23.0,231.0,0.0
B,L,"[6, 6]",0.0,0.0,0.38507509231567383,2.099730968475342,0.727045263037875,23.0,232.0,0.0
G,D,"[7, 6]",0.0,0.0,0.22803592681884766,1.905452013015747,0.6820395935702875,23.0,233.0,0.0
R,U,"[6, 6]",0.0,0.0,0.2843620777130127,1.6658949851989746,0.38141370276281333,23.0,234.0,0.0
G,D,"[7, 6]",0.0,0.0,0.39313697814941406,1.8507359027862549,0.4487024257471683,23.0,235.0,0.0
B,L,"[7, 5]",0.0,0.0,0.2656841278076172,1.8554949760437012,0.5874380475967457,23.0,236.0,0.0
Y,R,"[7, 6]",0.0,0.0,0.3137381076812744,1.8271260261535645,0.5145206123000576,23.0,237.0,0.0
G,D,"[8, 6]",0.0,0.0,0.33835577964782715,1.5883572101593018,0.25317368074762553,23.0,238.0,0.0
B,L,"[8, 5]",0.0,0.0,0.5569620132446289,2.148226022720337,0.5842040020666032,23.0,239.0,0.0
R,U,"[7, 5]",0.0,0.0,0.11498904228210449,1.757446050643921,0.6416424350576551,23.0,240.0,0.0
,,"(6, 6)",,,,,,,,
G,D,"[7, 6]",0.0,0.0,0.32392096519470215,2.976658821105957,0.43511032133455696,24.0,241.0,0.0
Y,R,"[7, 7]",0.0,0.0,0.40461301803588867,1.7491998672485352,0.3510200342453987,24.0,242.0,0.0
B,L,"[7, 6]",0.0,0.0,0.7237730026245117,2.3362748622894287,0.6036037752025969,24.0,243.0,0.0
R,U,"[6, 6]",0.0,0.0,0.3063681125640869,1.6447060108184814,0.33187328818503115,24.0,244.0,0.0
G,D,"[7, 6]",0.0,0.0,0.8593850135803223,2.591707944869995,0.7231212938665604,24.0,245.0,0.0
B,L,"[7, 5]",-1.0,0.0,0.02743697166442871,5.8162548542022705,0.7393731689294154,24.0,246.0,0.0
B,L,"[7, 4]",0.0,0.0,0.2532339096069336,1.5828900337219238,0.339071104391316,24.0,247.0,0.0
Y,R,"[7, 5]",0.0,0.0,0.4302489757537842,1.8769431114196777,0.4491237891850674,24.0,248.0,0.0
B,L,"[7, 4]",0.0,0.0,0.3684420585632324,2.113158941268921,0.7452243293473162,24.0,249.0,0.0
G,D,"[8, 4]",0.0,0.0,0.5308151245117188,1.792267084121704,0.254670653652337,24.0,250.0,0.0
,,"(6, 6)",,,,,,,,
R,U,"[5, 6]",1.0,1.0,0.30512404441833496,3.951507091522217,0.2559689567346606,25.0,251.0,0.0
Y,R,"[5, 7]",1.0,2.0,0.5659310817718506,2.165347099304199,0.604237472418263,25.0,252.0,0.0
Y,R,"[5, 8]",1.0,3.0,0.31270909309387207,1.930729866027832,0.6182791124841127,25.0,253.0,0.0
Y,R,"[5, 9]",0.0,3.0,0.3323488235473633,2.033159017562866,0.7014179808177856,25.0,254.0,0.0
G,D,"[6, 9]",1.0,4.0,0.2800900936126709,1.7461860179901123,0.4643687961768512,25.0,255.0,0.0
B,L,"[6, 8]",1.0,5.0,0.3761317729949951,1.798511028289795,0.4129167821573277,25.0,256.0,0.0
G,D,"[7, 8]",0.0,5.0,0.4091911315917969,2.0824379920959473,0.6616153385896046,25.0,257.0,0.0
R,U,"[6, 8]",0.0,5.0,0.2429049015045166,1.6658592224121094,0.42775475372128324,25.0,258.0,0.0
Y,R,"[6, 9]",0.0,5.0,0.5206539630889893,2.1307830810546875,0.6249653392905636,25.0,259.0,0.0
Y,R,"[6, 10]",1.0,6.0,0.2633061408996582,1.982107162475586,0.7235004369710497,25.0,260.0,0.0
,,"(6, 6)",,,,,,,,
R,U,"[5, 6]",1.0,1.0,0.42159318923950195,3.677838087081909,0.2517159655114637,26.0,261.0,0.0
Y,R,"[5, 7]",1.0,2.0,0.5366401672363281,2.256066083908081,0.7239656817274627,26.0,262.0,0.0
Y,R,"[5, 8]",1.0,3.0,0.3195610046386719,1.8539459705352783,0.5447543670801309,26.0,263.0,0.0
G,D,"[6, 8]",1.0,4.0,0.3455941677093506,1.9447441101074219,0.6059542776347453,26.0,264.0,0.0
G,D,"[7, 8]",0.0,4.0,0.34376096725463867,1.7098610401153564,0.3660215791392822,26.0,265.0,0.0
B,L,"[7, 7]",0.0,4.0,0.3820209503173828,1.9718379974365234,0.5876421332669539,26.0,266.0,0.0
Y,R,"[7, 8]",0.0,4.0,0.5771479606628418,1.9561350345611572,0.37725340827949344,26.0,267.0,0.0
Y,R,"[7, 9]",0.0,4.0,0.5334410667419434,1.9486939907073975,0.4258993151958341,26.0,268.0,0.0
Y,R,"[7, 10]",0.0,4.0,0.3202478885650635,2.023339033126831,0.7155043937066765,26.0,269.0,0.0
Y,R,"[7, 11]",0.0,4.0,0.18882012367248535,1.6909480094909668,0.4898225253795581,26.0,270.0,0.0
,,"(6, 6)",,,,,,,,
R,U,"[5, 6]",1.0,1.0,0.28545093536376953,3.245272159576416,0.5517785086197616,27.0,271.0,0.0
Y,R,"[5, 7]",1.0,2.0,0.2944338321685791,1.880295991897583,0.5819418339865059,27.0,272.0,0.0
Y,R,"[5, 8]",1.0,3.0,0.32419395446777344,1.6962480545043945,0.3616660390226556,27.0,273.0,0.0
Y,R,"[5, 9]",0.0,3.0,0.37571287155151367,1.6543099880218506,0.2827266212057721,27.0,274.0,0.0
G,D,"[6, 9]",1.0,4.0,0.5301458835601807,2.1624109745025635,0.6280287693636382,27.0,275.0,0.0
B,L,"[6, 8]",1.0,5.0,0.30106186866760254,1.7665269374847412,0.4780199022695582,27.0,276.0,0.0
R,U,"[5, 8]",0.0,5.0,0.4598240852355957,2.1938259601593018,0.738590445297377,27.0,277.0,0.0
G,D,"[6, 8]",0.0,5.0,0.29036903381347656,1.8417811393737793,0.5634577781619283,27.0,278.0,0.0
Y,R,"[6, 9]",0.0,5.0,0.5094718933105469,2.167112112045288,0.6470682282635953,27.0,279.0,0.0
B,L,"[6, 8]",0.0,5.0,0.3436729907989502,2.0357000827789307,0.6825950171925774,27.0,280.0,0.0
,,"(6, 6)",,,,,,,,
R,U,"[5, 6]",1.0,1.0,0.3249959945678711,3.204806089401245,0.45425978200601497,28.0,281.0,0.0
Y,R,"[5, 7]",1.0,2.0,0.5153610706329346,1.82407808303833,0.3117954348298518,28.0,282.0,0.0
Y,R,"[5, 8]",1.0,3.0,0.41683197021484375,1.70833420753479,0.3034061226580173,28.0,283.0,0.0
Y,R,"[5, 9]",0.0,3.0,0.6479628086090088,1.9986670017242432,0.3519490284982207,28.0,284.0,0.0
G,D,"[6, 9]",1.0,4.0,0.5289430618286133,1.846024990081787,0.3146772914495232,28.0,285.0,0.0
B,L,"[6, 8]",1.0,5.0,0.4199650287628174,1.7593469619750977,0.3406025084058368,28.0,286.0,0.0
Y,R,"[6, 9]",0.0,5.0,0.6319661140441895,2.161045789718628,0.534744245788761,28.0,287.0,0.0
R,U,"[5, 9]",0.0,5.0,0.4162759780883789,1.8342719078063965,0.41904141666554334,28.0,288.0,0.0
G,D,"[6, 9]",0.0,5.0,0.26180195808410645,1.9432859420776367,0.6786285737754066,28.0,289.0,0.0
B,L,"[6, 8]",0.0,5.0,0.2968780994415283,1.8294808864593506,0.5249427002229926,28.0,290.0,0.0
,,"(6, 6)",,,,,,,,
R,U,"[5, 6]",1.0,1.0,0.36959099769592285,2.8174009323120117,0.3424455379643642,29.0,291.0,0.0
Y,R,"[5, 7]",1.0,2.0,0.623568058013916,2.159611940383911,0.5350489162887536,29.0,292.0,0.0
Y,R,"[5, 8]",-2.0,2.0,1.3068881034851074,2.810905933380127,0.5293056004206229,29.0,293.0,0.0
G,D,"[6, 8]",1.0,3.0,0.5211570262908936,2.2066659927368164,0.6856573508907718,29.0,294.0,0.0
G,D,"[7, 8]",0.0,3.0,0.3293118476867676,1.6276299953460693,0.29692167664798025,29.0,295.0,0.0
B,L,"[7, 7]",0.0,3.0,0.5877931118011475,2.1114730834960938,0.5248391507885259,29.0,296.0,0.0
B,L,"[7, 6]",0.0,3.0,0.2958381175994873,1.6879980564117432,0.396243371492603,29.0,297.0,0.0
Y,R,"[7, 7]",0.0,3.0,0.4197380542755127,1.8728480339050293,0.4523238465984293,29.0,298.0,0.0
Y,R,"[7, 8]",0.0,3.0,0.32715392112731934,2.0532329082489014,0.7220204335861691,29.0,299.0,0.0
G,D,"[8, 8]",0.0,3.0,0.25135183334350586,1.7604951858520508,0.5160753492425484,29.0,300.0,0.0
,,"(6, 6)",,,,,,,,
R,U,"[5, 6]",1.0,1.0,0.47824597358703613,3.003757953643799,0.48632317096697414,30.0,301.0,0.0
Y,R,"[5, 7]",1.0,2.0,0.3823678493499756,1.8651931285858154,0.4847860046354397,30.0,302.0,0.0
Y,R,"[5, 8]",1.0,3.0,0.4397399425506592,1.7581360340118408,0.30974356570557143,30.0,303.0,0.0
G,D,"[6, 8]",1.0,4.0,0.5277099609375,2.073852062225342,0.5498819423154018,30.0,304.0,0.0
G,D,"[7, 8]",0.0,4.0,0.21530699729919434,1.8064889907836914,0.5896917024473385,30.0,305.0,0.0
B,L,"[7, 7]",0.0,4.0,0.25043797492980957,1.735429048538208,0.4917227133803879,30.0,306.0,0.0
Y,R,"[7, 8]",0.0,4.0,0.3603029251098633,2.0338997840881348,0.6755277311755633,30.0,307.0,0.0
R,U,"[6, 8]",0.0,4.0,0.21060490608215332,1.7060749530792236,0.4983603722776178,30.0,308.0,0.0
G,D,"[7, 8]",0.0,4.0,0.326984167098999,1.9165198802947998,0.5814058555306996,30.0,309.0,0.0
B,L,"[7, 7]",0.0,4.0,0.19536995887756348,1.4798262119293213,0.27816990374893125,30.0,310.0,0.0
,,"(6, 6)",,,,,,,,
R,U,"[5, 6]",1.0,1.0,0.27648186683654785,3.535172939300537,0.413021380466765,31.0,311.0,0.0
Y,R,"[5, 7]",1.0,2.0,0.42670702934265137,2.081544876098633,0.6443441223845596,31.0,312.0,0.0
Y,R,"[5, 8]",1.0,3.0,0.37391209602355957,1.760697841644287,0.38861659153053585,31.0,313.0,0.0
G,D,"[6, 8]",1.0,4.0,0.743419885635376,2.296842098236084,0.551880317205413,31.0,314.0,0.0
B,L,"[6, 7]",0.0,4.0,0.3782222270965576,1.9785480499267578,0.5970033353777234,31.0,315.0,0.0
B,L,"[6, 6]",0.0,4.0,0.4439690113067627,1.859896183013916,0.40705298757192454,31.0,316.0,0.0
G,D,"[7, 6]",0.0,4.0,0.42928099632263184,2.1584200859069824,0.7316649700689533,31.0,317.0,0.0
R,U,"[6, 6]",0.0,4.0,0.28214597702026367,1.830935001373291,0.5461541894484951,31.0,318.0,0.0
Y,R,"[6, 7]",0.0,4.0,0.3937649726867676,2.039987802505493,0.6360079481087115,31.0,319.0,0.0
Y,R,"[6, 8]",0.0,4.0,0.2714040279388428,1.5832338333129883,0.3194956296477888,31.0,320.0,0.0
,,"(6, 6)",,,,,,,,
R,U,"[5, 6]",1.0,1.0,0.34268999099731445,3.183161973953247,0.5190629081173395,32.0,321.0,0.0
Y,R,"[5, 7]",1.0,2.0,0.33675694465637207,1.965069055557251,0.6339633717093816,32.0,322.0,0.0
Y,R,"[5, 8]",1.0,3.0,0.30408501625061035,1.6519231796264648,0.3526931987955264,32.0,323.0,0.0
Y,R,"[5, 9]",0.0,3.0,0.41611194610595703,1.6924958229064941,0.27861880519597654,32.0,324.0,0.0
G,D,"[6, 9]",1.0,4.0,0.5127711296081543,1.8734848499298096,0.36851233546096573,32.0,325.0,0.0
B,L,"[6, 8]",1.0,5.0,0.4483928680419922,2.0517148971557617,0.6033841127368422,32.0,326.0,0.0
B,L,"[6, 7]",0.0,5.0,0.4713470935821533,1.7715489864349365,0.3084645244195734,32.0,327.0,0.0
Y,R,"[6, 8]",0.0,5.0,0.6387050151824951,2.2623701095581055,0.6205086775012789,32.0,328.0,0.0
G,D,"[7, 8]",0.0,5.0,0.5540578365325928,1.8346099853515625,0.2886240403639195,32.0,329.0,0.0
R,U,"[6, 8]",0.0,5.0,0.7747159004211426,2.1884148120880127,0.41019176655830547,32.0,330.0,0.0
,,"(6, 6)",,,,,,,,
R,U,"[5, 6]",1.0,1.0,0.4408268928527832,2.9405999183654785,0.4674478930419539,33.0,331.0,0.0
Y,R,"[5, 7]",1.0,2.0,0.3753221035003662,1.9253699779510498,0.5427785842755652,33.0,332.0,0.0
Y,R,"[5, 8]",1.0,3.0,0.5440218448638916,2.2667880058288574,0.7259007005129812,33.0,333.0,0.0
G,D,"[6, 8]",1.0,4.0,0.49619603157043457,1.8017301559448242,0.3113328206393111,33.0,334.0,0.0
G,D,"[7, 8]",0.0,4.0,0.9709889888763428,2.509622097015381,0.5539587850837258,33.0,335.0,0.0
B,L,"[7, 7]",0.0,4.0,0.397381067276001,1.6743969917297363,0.27852030459440763,33.0,336.0,0.0
R,U,"[6, 7]",0.0,4.0,0.9603180885314941,2.5668718814849854,0.6116725073114408,33.0,337.0,0.0
G,D,"[7, 7]",0.0,4.0,0.2926359176635742,1.8127410411834717,0.5244968049819798,33.0,338.0,0.0
Y,R,"[7, 8]",0.0,4.0,0.24119901657104492,1.8491699695587158,0.6068460567914673,33.0,339.0,0.0
Y,R,"[7, 9]",0.0,4.0,0.3901481628417969,1.8673999309539795,0.4910101805139876,33.0,340.0,0.0
,,"(6, 6)",,,,,,,,
R,U,"[5, 6]",1.0,1.0,0.486767053604126,2.8800160884857178,0.3877526852038874,34.0,341.0,0.0
Y,R,"[5, 7]",1.0,2.0,0.4651210308074951,2.1230452060699463,0.660433652570884,34.0,342.0,0.0
Y,R,"[5, 8]",1.0,3.0,0.24151015281677246,1.5160291194915771,0.2766826445506445,34.0,343.0,0.0
G,D,"[6, 8]",1.0,4.0,0.6039209365844727,1.8613591194152832,0.2548064152593787,34.0,344.0,0.0
B,L,"[6, 7]",0.0,4.0,0.514915943145752,2.147696018218994,0.6352802824054231,34.0,345.0,0.0
B,L,"[6, 6]",0.0,4.0,0.28108716011047363,1.5695030689239502,0.28856103637374825,34.0,346.0,0.0
G,D,"[7, 6]",0.0,4.0,0.9094650745391846,2.659203052520752,0.7471635416475944,34.0,347.0,0.0
R,U,"[6, 6]",0.0,4.0,0.4937450885772705,2.1020069122314453,0.5993085086846517,34.0,348.0,0.0
R,U,"[5, 6]",0.0,4.0,0.6128160953521729,2.1983091831207275,0.5809405709379589,34.0,349.0,0.0
G,D,"[6, 6]",0.0,4.0,0.8587188720703125,2.1991491317749023,0.33011167181811096,34.0,350.0,0.0
,,"(6, 6)",,,,,,,,
R,U,"[5, 6]",1.0,1.0,0.35523414611816406,2.7386820316314697,0.3854496993350694,35.0,351.0,0.0
R,U,"[4, 6]",0.0,1.0,0.2533721923828125,1.979572057723999,0.7318137024218052,35.0,352.0,0.0
Y,R,"[4, 7]",0.0,1.0,0.278001070022583,2.0004160404205322,0.715016280280943,35.0,353.0,0.0
Y,R,"[4, 8]",0.0,1.0,0.29820799827575684,2.0356829166412354,0.7339635612717097,35.0,354.0,0.0
B,L,"[4, 7]",0.0,1.0,0.4696669578552246,1.947873830795288,0.48194658435993126,35.0,355.0,0.0
G,D,"[5, 7]",1.0,2.0,0.4476280212402344,1.7222769260406494,0.2710953783496221,35.0,356.0,0.0
G,D,"[6, 7]",0.0,2.0,0.6469869613647461,2.056041955947876,0.41019755384196893,35.0,357.0,0.0
Y,R,"[6, 8]",1.0,3.0,0.2754969596862793,1.9140920639038086,0.6407090888440949,35.0,358.0,0.0
Y,R,"[6, 9]",1.0,4.0,0.27027201652526855,1.7068870067596436,0.4478876977253356,35.0,359.0,0.0
Y,R,"[6, 10]",1.0,5.0,0.4035458564758301,1.8610570430755615,0.45880165767184466,35.0,360.0,0.0
,,"(6, 6)",,,,,,,,
R,U,"[5, 6]",1.0,1.0,0.5054690837860107,3.238922119140625,0.3977091797715877,36.0,361.0,0.0
Y,R,"[5, 7]",1.0,2.0,0.8028018474578857,2.365684986114502,0.56316760763621,36.0,362.0,0.0
Y,R,"[5, 8]",1.0,3.0,0.3709828853607178,1.9406440258026123,0.5703736524885454,36.0,363.0,0.0
Y,R,"[5, 9]",0.0,3.0,0.2624990940093994,1.6222941875457764,0.35957415179015245,36.0,364.0,0.0
G,D,"[6, 9]",1.0,4.0,0.6363749504089355,1.9350240230560303,0.31115643966815015,36.0,365.0,0.0
G,D,"[7, 9]",0.0,4.0,0.7447612285614014,2.4093191623687744,0.6701789589369007,36.0,366.0,0.0
B,L,"[7, 8]",-1.0,4.0,0.07387089729309082,5.409732103347778,0.2633366545258601,36.0,367.0,0.0
B,L,"[7, 7]",0.0,4.0,0.9720699787139893,2.5840189456939697,0.5969904857149644,36.0,368.0,0.0
G,D,"[8, 7]",0.0,4.0,0.22678112983703613,1.760232925415039,0.5238640230735514,36.0,369.0,0.0
Y,R,"[8, 8]",0.0,4.0,0.666801929473877,2.0380849838256836,0.3788277617889823,36.0,370.0,0.0
,,"(6, 6)",,,,,,,,
R,U,"[5, 6]",1.0,1.0,0.4406468868255615,3.210616111755371,0.6391015804438365,37.0,371.0,0.0
Y,R,"[5, 7]",1.0,2.0,0.45672607421875,1.841536045074463,0.3807290660888315,37.0,372.0,0.0
Y,R,"[5, 8]",1.0,3.0,0.7386810779571533,2.086029052734375,0.3502478985105602,37.0,373.0,0.0
Y,R,"[5, 9]",0.0,3.0,0.30431294441223145,1.9044380187988281,0.6043163351740203,37.0,374.0,0.0
G,D,"[6, 9]",1.0,4.0,0.37328290939331055,1.9323270320892334,0.5535058570179008,37.0,375.0,0.0
B,L,"[6, 8]",1.0,5.0,0.5512630939483643,2.281559944152832,0.7344954169078656,37.0,376.0,0.0
B,L,"[6, 7]",-1.0,5.0,0.03922295570373535,5.514257907867432,0.4156857401368752,37.0,377.0,0.0
B,L,"[6, 6]",0.0,5.0,0.38791680335998535,2.056488037109375,0.67194405827282,37.0,378.0,0.0
G,D,"[7, 6]",0.0,5.0,0.25593018531799316,1.6658527851104736,0.42126819142880817,37.0,379.0,0.0
Y,R,"[7, 7]",0.0,5.0,0.40714406967163086,1.8953020572662354,0.4997803188813203,37.0,380.0,0.0
,,"(6, 6)",,,,,,,,
R,U,"[5, 6]",1.0,1.0,0.5796091556549072,3.470108985900879,0.5031341179833575,38.0,381.0,0.0
Y,R,"[5, 7]",1.0,2.0,0.3815147876739502,1.8941519260406494,0.5138908973655179,38.0,382.0,0.0
Y,R,"[5, 8]",-1.0,2.0,0.006167888641357422,5.531020164489746,0.4614572303761049,38.0,383.0,0.0
Y,R,"[5, 9]",0.0,2.0,0.3128519058227539,1.85247802734375,0.5470539748508738,38.0,384.0,0.0
G,D,"[6, 9]",1.0,3.0,0.37118005752563477,1.755406141281128,0.36938438019642333,38.0,385.0,0.0
B,L,"[6, 8]",1.0,4.0,0.5641131401062012,2.092116117477417,0.5278485335997569,38.0,386.0,0.0
G,D,"[7, 8]",0.0,4.0,0.6360259056091309,2.2582199573516846,0.6359727205167365,38.0,387.0,0.0
R,U,"[6, 8]",0.0,4.0,0.29820704460144043,1.7005970478057861,0.40343159230125797,38.0,388.0,0.0
Y,R,"[6, 9]",0.0,4.0,0.4985079765319824,1.9020259380340576,0.4053218985472672,38.0,389.0,0.0
Y,R,"[6, 10]",1.0,5.0,0.17402005195617676,1.8549299240112305,0.6766532679454911,38.0,390.0,0.0
,,"(6, 6)",,,,,,,,
B,L,"[6, 5]",0.0,0.0,0.7568449974060059,4.21957802772522,0.6295156412009634,39.0,391.0,0.0
R,U,"[5, 5]",0.0,0.0,0.39273715019226074,1.7001569271087646,0.29663680860888814,39.0,392.0,0.0
G,D,"[6, 5]",0.0,0.0,0.34673404693603516,1.6965479850769043,0.3430267045964929,39.0,393.0,0.0
G,D,"[7, 5]",0.0,0.0,0.37639498710632324,1.7686340808868408,0.3948526277126895,39.0,394.0,0.0
G,D,"[8, 5]",0.0,0.0,0.4136080741882324,1.7932789325714111,0.3880990761606403,39.0,395.0,0.0
G,D,"[9, 5]",0.0,0.0,0.322584867477417,1.707240104675293,0.3786867923350556,39.0,396.0,0.0
Y,R,"[9, 6]",0.0,0.0,0.5842101573944092,2.1097071170806885,0.538156405223465,39.0,397.0,0.0
Y,R,"[9, 7]",0.0,0.0,0.24921417236328125,1.566391944885254,0.3214412183285173,39.0,398.0,0.0
Y,R,"[9, 8]",0.0,0.0,0.44404101371765137,1.800076961517334,0.3547369454888281,39.0,399.0,0.0
Y,R,"[9, 9]",0.0,0.0,0.2690260410308838,1.90519118309021,0.6430011511590518,39.0,400.0,0.0
,,"(6, 6)",,,,,,,,
R,U,"[5, 6]",1.0,1.0,0.4500000476837158,3.6616129875183105,0.6544748229452495,40.0,401.0,0.0
Y,R,"[5, 7]",1.0,2.0,0.36445116996765137,1.9799549579620361,0.6177852399560064,40.0,402.0,0.0
Y,R,"[5, 8]",1.0,3.0,0.2812509536743164,1.651026964187622,0.36905905404571465,40.0,403.0,0.0
G,D,"[6, 8]",1.0,4.0,0.4282691478729248,1.9574360847473145,0.5265046486480545,40.0,404.0,0.0
G,D,"[7, 8]",0.0,4.0,0.38320088386535645,2.0648491382598877,0.6907991484787723,40.0,405.0,0.0
B,L,"[7, 7]",0.0,4.0,0.25652098655700684,1.9857521057128906,0.7263767614488417,40.0,406.0,0.0
B,L,"[7, 6]",0.0,4.0,0.30736422538757324,1.5727460384368896,0.2662204535253577,40.0,407.0,0.0
G,D,"[8, 6]",0.0,4.0,0.48382091522216797,1.8567450046539307,0.37285811519255657,40.0,408.0,0.0
R,U,"[7, 6]",0.0,4.0,0.35082197189331055,1.643380880355835,0.29967981960580786,40.0,409.0,0.0
Y,R,"[7, 7]",0.0,4.0,0.2898399829864502,1.8248770236968994,0.540832844469294,40.0,410.0,0.0
,,"(6, 6)",,,,,,,,
R,U,"[5, 6]",1.0,1.0,0.3997311592102051,2.565603017807007,0.42321630921062564,41.0,411.0,0.0
Y,R,"[5, 7]",1.0,2.0,0.44243693351745605,2.1791529655456543,0.7353688766820614,41.0,412.0,0.0
Y,R,"[5, 8]",1.0,3.0,0.22108197212219238,1.7126059532165527,0.4981694304085546,41.0,413.0,0.0
G,D,"[6, 8]",1.0,4.0,0.311460018157959,1.794485092163086,0.475950919895663,41.0,414.0,0.0
B,L,"[6, 7]",0.0,4.0,0.6031639575958252,1.8990941047668457,0.3084947478156563,41.0,415.0,0.0
B,L,"[6, 6]",0.0,4.0,0.4396030902862549,1.9694740772247314,0.5276119304521705,41.0,416.0,0.0
G,D,"[7, 6]",0.0,4.0,0.2933940887451172,1.59505295753479,0.30613808127265146,41.0,417.0,0.0
Y,R,"[7, 7]",0.0,4.0,0.46642398834228516,1.934865951538086,0.47422908440495204,41.0,418.0,0.0
R,U,"[6, 7]",0.0,4.0,0.2630269527435303,1.8986029624938965,0.639189595397279,41.0,419.0,0.0
G,D,"[7, 7]",0.0,4.0,0.2970459461212158,1.9604229927062988,0.6663192680887016,41.0,420.0,0.0
,,"(6, 6)",,,,,,,,
R,U,"[5, 6]",1.0,1.0,0.2988128662109375,3.317250967025757,0.5835904079836736,42.0,421.0,0.0
Y,R,"[5, 7]",1.0,2.0,0.2498159408569336,1.806546926498413,0.5567544392377857,42.0,422.0,0.0
Y,R,"[5, 8]",1.0,3.0,0.5348248481750488,1.942331075668335,0.415807436823421,42.0,423.0,0.0
Y,R,"[5, 9]",0.0,3.0,0.5295810699462891,2.248243808746338,0.7137402873202194,42.0,424.0,0.0
G,D,"[6, 9]",1.0,4.0,0.49361419677734375,2.194437026977539,0.6917864908566411,42.0,425.0,0.0
B,L,"[6, 8]",1.0,5.0,0.27831387519836426,1.716961145401001,0.4419482721959217,42.0,426.0,0.0
Y,R,"[6, 9]",0.0,5.0,0.9535930156707764,2.612959146499634,0.6712471427638607,42.0,427.0,0.0
G,D,"[7, 9]",-2.0,5.0,1.0805490016937256,2.6561999320983887,0.6108368248320595,42.0,428.0,0.0
G,D,"[8, 9]",0.0,5.0,0.22543978691101074,1.6338660717010498,0.411487912684943,42.0,429.0,0.0
R,U,"[7, 9]",0.0,5.0,0.25862789154052734,1.712731122970581,0.45750223827479497,42.0,430.0,0.0
,,"(6, 6)",,,,,,,,
R,U,"[5, 6]",1.0,1.0,0.25075387954711914,3.6208231449127197,0.39496132589230637,43.0,431.0,0.0
Y,R,"[5, 7]",1.0,2.0,0.4831221103668213,2.1489450931549072,0.6768420452502898,43.0,432.0,0.0
Y,R,"[5, 8]",1.0,3.0,0.44016504287719727,1.8592278957366943,0.4195972950070751,43.0,433.0,0.0
Y,R,"[5, 9]",0.0,3.0,0.41680192947387695,1.9635519981384277,0.5496345655503588,43.0,434.0,0.0
G,D,"[6, 9]",1.0,4.0,0.33518385887145996,1.8385930061340332,0.5048082786537924,43.0,435.0,0.0
G,D,"[7, 9]",0.0,4.0,0.4224259853363037,1.994006872177124,0.5654676209422187,43.0,436.0,0.0
B,L,"[7, 8]",0.0,4.0,0.26239585876464844,1.7303428649902344,0.4625079717954627,43.0,437.0,0.0
B,L,"[7, 7]",0.0,4.0,0.2669699192047119,1.763110876083374,0.4922821509244821,43.0,438.0,0.0
B,L,"[7, 6]",0.0,4.0,0.27924180030822754,1.968648910522461,0.6940976647916843,43.0,439.0,0.0
Y,R,"[7, 7]",-1.0,4.0,0.014939069747924805,5.429964065551758,0.3573933417433704,43.0,440.0,0.0
,,"(6, 6)",,,,,,,,
R,U,"[5, 6]",1.0,1.0,0.34769296646118164,3.6019158363342285,0.6423258896727249,44.0,441.0,0.0
Y,R,"[5, 7]",1.0,2.0,0.6720590591430664,1.958817958831787,0.2847698890488912,44.0,442.0,0.0
Y,R,"[5, 8]",1.0,3.0,0.6143369674682617,2.354306936264038,0.7385818278447442,44.0,443.0,0.0
Y,R,"[5, 9]",0.0,3.0,0.3813140392303467,1.6916232109069824,0.31395916147005504,44.0,444.0,0.0
G,D,"[6, 9]",1.0,4.0,0.5034091472625732,1.7683069705963135,0.2654468782401366,44.0,445.0,0.0
B,L,"[6, 8]",1.0,5.0,0.42659902572631836,2.1765530109405518,0.7414673754592701,44.0,446.0,0.0
G,D,"[7, 8]",0.0,5.0,0.2709071636199951,1.9685471057891846,0.7100300099442899,44.0,447.0,0.0
R,U,"[6, 8]",0.0,5.0,0.3152151107788086,1.9924399852752686,0.6858274094430004,44.0,448.0,0.0
Y,R,"[6, 9]",0.0,5.0,0.3231348991394043,1.9977960586547852,0.6669174082777886,44.0,449.0,0.0
B,L,"[6, 8]",0.0,5.0,0.29172396659851074,1.6413660049438477,0.341812461621548,44.0,450.0,0.0
,,"(6, 6)",,,,,,,,
R,U,"[5, 6]",1.0,1.0,0.3453059196472168,3.530686140060425,0.6389257559640702,45.0,451.0,0.0
Y,R,"[5, 7]",1.0,2.0,0.3092310428619385,1.7387890815734863,0.4278084336886827,45.0,452.0,0.0
Y,R,"[5, 8]",1.0,3.0,0.3231539726257324,2.044782876968384,0.7223064245445077,45.0,453.0,0.0
Y,R,"[5, 9]",0.0,3.0,0.3361828327178955,2.003296136856079,0.6757018877476781,45.0,454.0,0.0
G,D,"[6, 9]",1.0,4.0,0.3611881732940674,1.7231471538543701,0.3655658675477571,45.0,455.0,0.0
B,L,"[6, 8]",1.0,5.0,0.611271858215332,1.9641940593719482,0.3464319632130987,45.0,456.0,0.0
R,U,"[5, 8]",0.0,5.0,0.33509302139282227,1.7974269390106201,0.4605219857889935,45.0,457.0,0.0
Y,R,"[5, 9]",0.0,5.0,0.2647109031677246,1.8479499816894531,0.5914248251036405,45.0,458.0,0.0
G,D,"[6, 9]",0.0,5.0,0.20604491233825684,1.531991958618164,0.32363322013346457,45.0,459.0,0.0
B,L,"[6, 8]",0.0,5.0,0.4225189685821533,2.1567540168762207,0.7299864591935089,45.0,460.0,0.0
,,"(6, 6)",,,,,,,,
R,U,"[5, 6]",1.0,1.0,0.2338249683380127,3.3907649517059326,0.6041567253468143,46.0,461.0,0.0
Y,R,"[5, 7]",1.0,2.0,0.2603452205657959,1.5817930698394775,0.3194540556756833,46.0,462.0,0.0
Y,R,"[5, 8]",1.0,3.0,0.508026123046875,2.0241551399230957,0.5100619518611612,46.0,463.0,0.0
B,L,"[5, 7]",0.0,3.0,0.3325679302215576,1.844871997833252,0.5215299352481235,46.0,464.0,0.0
G,D,"[6, 7]",0.0,3.0,0.4793241024017334,2.15396785736084,0.6755435899912497,46.0,465.0,0.0
R,U,"[5, 7]",0.0,3.0,0.4953141212463379,2.0940558910369873,0.6027274379877192,46.0,466.0,0.0
B,L,"[5, 6]",0.0,3.0,0.3403141498565674,2.0708630084991455,0.7233650679990669,46.0,467.0,0.0
Y,R,"[5, 7]",0.0,3.0,0.23363494873046875,1.707197904586792,0.4808409694322064,46.0,468.0,0.0
G,D,"[6, 7]",0.0,3.0,0.33156490325927734,1.7760519981384277,0.4402185683709943,46.0,469.0,0.0
B,L,"[6, 6]",0.0,3.0,0.4124770164489746,1.8502600193023682,0.44044363448243024,46.0,470.0,0.0
,,"(6, 6)",,,,,,,,
R,U,"[5, 6]",1.0,1.0,0.42267298698425293,3.6057701110839844,0.512734266227624,47.0,471.0,0.0
Y,R,"[5, 7]",1.0,2.0,0.4495358467102051,1.7457787990570068,0.2919014724279688,47.0,472.0,0.0
Y,R,"[5, 8]",1.0,3.0,0.3982241153717041,2.127523899078369,0.7356516247477953,47.0,473.0,0.0
Y,R,"[5, 9]",0.0,3.0,0.1861879825592041,1.5623078346252441,0.38163514299918383,47.0,474.0,0.0
G,D,"[6, 9]",1.0,4.0,0.4166219234466553,2.1049020290374756,0.6861207676409193,47.0,475.0,0.0
B,L,"[6, 8]",1.0,5.0,0.2251889705657959,1.5103399753570557,0.2801879194777277,47.0,476.0,0.0
Y,R,"[6, 9]",0.0,5.0,0.5815529823303223,2.3101580142974854,0.723217048719184,47.0,477.0,0.0
B,L,"[6, 8]",0.0,5.0,0.3714478015899658,1.7718451023101807,0.3952343162265874,47.0,478.0,0.0
R,U,"[5, 8]",0.0,5.0,0.5794730186462402,1.8422119617462158,0.27091941852705503,47.0,479.0,0.0
G,D,"[6, 8]",0.0,5.0,0.3588240146636963,1.994088888168335,0.6315339178092054,47.0,480.0,0.0
,,"(6, 6)",,,,,,,,
R,U,"[5, 6]",1.0,1.0,0.4824409484863281,2.9761269092559814,0.3908001744277185,48.0,481.0,0.0
Y,R,"[5, 7]",1.0,2.0,0.35413217544555664,2.049363851547241,0.7066817116968777,48.0,482.0,0.0
Y,R,"[5, 8]",1.0,3.0,0.386232852935791,2.007859945297241,0.6311214694450387,48.0,483.0,0.0
R,U,"[4, 8]",0.0,3.0,0.2954130172729492,1.6320672035217285,0.3300375116277768,48.0,484.0,0.0
G,D,"[5, 8]",0.0,3.0,0.4010601043701172,1.8292200565338135,0.4258959478535959,48.0,485.0,0.0
B,L,"[5, 7]",0.0,3.0,0.48436784744262695,2.1431210041046143,0.6686738248484805,48.0,486.0,0.0
Y,R,"[5, 8]",0.0,3.0,0.5923910140991211,2.090654134750366,0.4927226539190867,48.0,487.0,0.0
Y,R,"[5, 9]",0.0,3.0,0.4472689628601074,1.9583680629730225,0.5177141170531891,48.0,488.0,0.0
Y,R,"[5, 10]",1.0,4.0,0.8683440685272217,2.198918104171753,0.33342889140112103,48.0,489.0,0.0
Y,R,"[5, 11]",0.0,4.0,0.31833505630493164,1.7719149589538574,0.4552394203881729,48.0,490.0,0.0
,,"(6, 6)",,,,,,,,
R,U,"[5, 6]",1.0,1.0,0.4839320182800293,3.179792881011963,0.36833879043485457,49.0,491.0,0.0
Y,R,"[5, 7]",1.0,2.0,0.9143431186676025,2.567969799041748,0.652574031805909,49.0,492.0,0.0
Y,R,"[5, 8]",1.0,3.0,0.8277020454406738,2.5429670810699463,0.7120958072422412,49.0,493.0,0.0
Y,R,"[5, 9]",0.0,3.0,0.4266681671142578,1.844313144683838,0.40659577890690324,49.0,494.0,0.0
G,D,"[6, 9]",1.0,4.0,0.7622151374816895,2.410783052444458,0.6503969443916457,49.0,495.0,0.0
B,L,"[6, 8]",1.0,5.0,0.3007941246032715,1.90106201171875,0.6014301439755784,49.0,496.0,0.0
B,L,"[6, 7]",0.0,5.0,0.33658599853515625,1.8604848384857178,0.5286871530053496,49.0,497.0,0.0
G,D,"[7, 7]",0.0,5.0,0.4278678894042969,1.7421329021453857,0.3044252757874659,49.0,498.0,0.0
R,U,"[6, 7]",0.0,5.0,0.4449319839477539,2.081516981124878,0.6354901027409803,49.0,499.0,0.0
Y,R,"[6, 8]",0.0,5.0,0.6522300243377686,2.3729310035705566,0.7250369260967365,49.0,500.0,0.0
,,"(6, 6)",,,,,,,,
B,L,"[6, 5]",0.0,0.0,0.6674561500549316,3.2432940006256104,0.601637114909757,50.0,501.0,0.0
Y,R,"[6, 6]",0.0,0.0,0.3364889621734619,1.9904589653015137,0.6587498909538287,50.0,502.0,0.0
G,D,"[7, 6]",0.0,0.0,0.43523383140563965,2.08422589302063,0.659587242206779,50.0,503.0,0.0
R,U,"[6, 6]",0.0,0.0,0.7108039855957031,1.9692611694335938,0.2624779172623735,50.0,504.0,0.0
G,D,"[7, 6]",0.0,0.0,0.6104848384857178,1.8940401077270508,0.27326277881281313,50.0,505.0,0.0
B,L,"[7, 5]",0.0,0.0,0.3780970573425293,1.6771221160888672,0.30027944393865036,50.0,506.0,0.0
Y,R,"[7, 6]",0.0,0.0,0.45775413513183594,1.9526550769805908,0.4859483968628356,50.0,507.0,0.0
Y,R,"[7, 7]",0.0,0.0,0.5767390727996826,2.043337106704712,0.4627367974743482,50.0,508.0,0.0
B,L,"[7, 6]",0.0,0.0,0.3397040367126465,1.8332099914550781,0.47912990711021564,50.0,509.0,0.0
G,D,"[8, 6]",0.0,0.0,0.5763900279998779,2.004798173904419,0.41739489169660837,50.0,510.0,0.0
,,"(6, 6)",,,,,,,,
R,U,"[5, 6]",1.0,1.0,0.9800050258636475,3.666213035583496,0.3336029425750706,51.0,511.0,0.0
Y,R,"[5, 7]",1.0,2.0,0.6776862144470215,2.4270501136779785,0.7434888490423974,51.0,512.0,0.0
Y,R,"[5, 8]",1.0,3.0,0.3030109405517578,1.6222171783447266,0.3327986880630808,51.0,513.0,0.0
Y,R,"[5, 9]",0.0,3.0,0.5177052021026611,2.0348620414733887,0.5174812877880226,51.0,514.0,0.0
G,D,"[6, 9]",1.0,4.0,0.4193239212036133,1.8004231452941895,0.38458253916971863,51.0,515.0,0.0
B,L,"[6, 8]",1.0,5.0,0.4502720832824707,2.091948986053467,0.6429633783496183,51.0,516.0,0.0
B,L,"[6, 7]",0.0,5.0,0.34890007972717285,1.9451608657836914,0.604819439143029,51.0,517.0,0.0
B,L,"[6, 6]",0.0,5.0,0.4258549213409424,1.7548980712890625,0.3265352384055795,51.0,518.0,0.0
Y,R,"[6, 7]",0.0,5.0,0.39200901985168457,1.7650079727172852,0.37492740413542713,51.0,519.0,0.0
Y,R,"[6, 8]",0.0,5.0,0.29450321197509766,1.8914871215820312,0.5994625782434617,51.0,520.0,0.0
,,"(6, 6)",,,,,,,,
R,U,"[5, 6]",1.0,1.0,0.4134409427642822,4.449274063110352,0.6486710743302919,52.0,521.0,0.0
B,L,"[5, 5]",0.0,1.0,0.48119497299194336,1.9103939533233643,0.425736905352866,52.0,522.0,0.0
Y,R,"[5, 6]",0.0,1.0,0.36718297004699707,1.882803201675415,0.5251957719357332,52.0,523.0,0.0
Y,R,"[5, 7]",1.0,2.0,0.2948739528656006,1.8576300144195557,0.566072301407463,52.0,524.0,0.0
Y,R,"[5, 8]",1.0,3.0,0.2951478958129883,1.70346999168396,0.4029276948900232,52.0,525.0,0.0
Y,R,"[5, 9]",0.0,3.0,0.37616610527038574,2.062700033187866,0.6820855031512398,52.0,526.0,0.0
G,D,"[6, 9]",1.0,4.0,0.3285551071166992,1.6346709728240967,0.30036952284340307,52.0,527.0,0.0
G,D,"[7, 9]",0.0,4.0,0.5661017894744873,1.8768579959869385,0.3104672072481488,52.0,528.0,0.0
B,L,"[7, 8]",0.0,4.0,0.3093879222869873,1.7578260898590088,0.4515974420256627,52.0,529.0,0.0
Y,R,"[7, 9]",0.0,4.0,0.4211719036102295,1.8428831100463867,0.42778126246102505,52.0,530.0,0.0
,,"(6, 6)",,,,,,,,
R,U,"[5, 6]",1.0,1.0,0.49983692169189453,3.161898136138916,0.6727371152865183,53.0,531.0,0.0
B,L,"[5, 5]",0.0,1.0,0.3537440299987793,1.893686056137085,0.549857999052937,53.0,532.0,0.0
Y,R,"[5, 6]",0.0,1.0,0.3076601028442383,1.9847378730773926,0.6678437137488429,53.0,533.0,0.0
Y,R,"[5, 7]",1.0,2.0,0.3153970241546631,2.03096604347229,0.715233070766329,53.0,534.0,0.0
Y,R,"[5, 8]",1.0,3.0,0.39404916763305664,1.741905927658081,0.34075187382430633,53.0,535.0,0.0
Y,R,"[5, 9]",0.0,3.0,0.6336541175842285,1.9499900341033936,0.32415215642215806,53.0,536.0,0.0
G,D,"[6, 9]",1.0,4.0,0.6236870288848877,1.9180059432983398,0.29207099352125626,53.0,537.0,0.0
B,L,"[6, 8]",1.0,5.0,0.519995927810669,2.077875852584839,0.5697720389278566,53.0,538.0,0.0
Y,R,"[6, 9]",0.0,5.0,0.42382311820983887,2.019892930984497,0.5895785144897612,53.0,539.0,0.0
R,U,"[5, 9]",0.0,5.0,0.28194403648376465,1.5350019931793213,0.2582311575273019,53.0,540.0,0.0
,,"(6, 6)",,,,,,,,
R,U,"[5, 6]",1.0,1.0,0.22265005111694336,2.8664419651031494,0.524313322025449,54.0,541.0,0.0
B,L,"[5, 5]",0.0,1.0,0.4388890266418457,2.052595853805542,0.6100174298608834,54.0,542.0,0.0
B,L,"[5, 4]",0.0,1.0,0.37865686416625977,1.8110408782958984,0.43786704991006076,54.0,543.0,0.0
Y,R,"[5, 5]",0.0,1.0,0.42400288581848145,1.9173498153686523,0.48848829397914323,54.0,544.0,0.0
Y,R,"[5, 6]",0.0,1.0,0.3685169219970703,2.0138208866119385,0.6521492004014973,54.0,545.0,0.0
Y,R,"[5, 7]",1.0,2.0,0.36483192443847656,2.0007801055908203,0.6362605905709826,54.0,546.0,0.0
Y,R,"[5, 8]",1.0,3.0,0.26886701583862305,2.005556106567383,0.7417188723665379,54.0,547.0,0.0
Y,R,"[5, 9]",0.0,3.0,0.31082606315612793,1.6514151096343994,0.3434268579296609,54.0,548.0,0.0
G,D,"[6, 9]",1.0,4.0,0.5667519569396973,1.852241039276123,0.29566607873326545,54.0,549.0,0.0
G,D,"[7, 9]",0.0,4.0,0.35106897354125977,1.6190290451049805,0.2647523556967673,54.0,550.0,0.0
,,"(6, 6)",,,,,,,,
R,U,"[5, 6]",1.0,1.0,0.3998849391937256,3.155766010284424,0.4369233946389151,55.0,551.0,0.0
B,L,"[5, 5]",0.0,1.0,0.26343202590942383,1.523514986038208,0.2606447973620732,55.0,552.0,0.0
Y,R,"[5, 6]",0.0,1.0,0.43276286125183105,1.9165518283843994,0.4937408811569211,55.0,553.0,0.0
Y,R,"[5, 7]",1.0,2.0,0.48004722595214844,1.765989065170288,0.29313219874677504,55.0,554.0,0.0
Y,R,"[5, 8]",1.0,3.0,0.7114200592041016,2.3962621688842773,0.6889017037256449,55.0,555.0,0.0
R,U,"[4, 8]",0.0,3.0,0.5303521156311035,2.233971118927002,0.706298688207533,55.0,556.0,0.0
G,D,"[5, 8]",0.0,3.0,0.29031896591186523,1.6815378665924072,0.38804515240157106,55.0,557.0,0.0
B,L,"[5, 7]",0.0,3.0,0.7824850082397461,2.3579108715057373,0.5790252872540269,55.0,558.0,0.0
B,L,"[5, 6]",0.0,3.0,0.6006608009338379,2.1445858478546143,0.540253737104722,55.0,559.0,0.0
Y,R,"[5, 7]",0.0,3.0,0.4967360496520996,2.137507915496826,0.6443149724221866,55.0,560.0,0.0
,,"(6, 6)",,,,,,,,
R,U,"[5, 6]",1.0,1.0,0.2571899890899658,2.6685619354248047,0.3297533354109265,56.0,561.0,0.0
B,L,"[5, 5]",0.0,1.0,0.6188948154449463,2.079993963241577,0.45961746670144904,56.0,562.0,0.0
Y,R,"[5, 6]",0.0,1.0,0.7123210430145264,2.2158780097961426,0.5086418599221199,56.0,563.0,0.0
Y,R,"[5, 7]",1.0,2.0,0.39054393768310547,1.78432297706604,0.39315521335434167,56.0,564.0,0.0
Y,R,"[5, 8]",1.0,3.0,0.6052639484405518,2.2527670860290527,0.6622268146104229,56.0,565.0,0.0
Y,R,"[5, 9]",0.0,3.0,0.4506261348724365,2.17177414894104,0.717304454450808,56.0,566.0,0.0
G,D,"[6, 9]",1.0,4.0,0.34798407554626465,1.9368090629577637,0.5875257157900586,56.0,567.0,0.0
B,L,"[6, 8]",1.0,5.0,0.4525899887084961,1.9215919971466064,0.4759227657833139,56.0,568.0,0.0
R,U,"[5, 8]",0.0,5.0,0.46097302436828613,2.021505117416382,0.5638717601093084,56.0,569.0,0.0
G,D,"[6, 8]",0.0,5.0,0.35852885246276855,2.039318084716797,0.6698375508442826,56.0,570.0,0.0
,,"(6, 6)",,,,,,,,
R,U,"[5, 6]",1.0,1.0,0.2070760726928711,3.062082052230835,0.565143049457997,57.0,571.0,0.0
B,L,"[5, 5]",0.0,1.0,0.2986640930175781,1.8598217964172363,0.5583161620958726,57.0,572.0,0.0
B,L,"[5, 4]",0.0,1.0,0.5124568939208984,1.9550440311431885,0.44679507796918505,57.0,573.0,0.0
Y,R,"[5, 5]",0.0,1.0,0.5053620338439941,2.1051251888275146,0.5850561382178037,57.0,574.0,0.0
Y,R,"[5, 6]",0.0,1.0,0.26475000381469727,1.6135871410369873,0.3488209890445798,57.0,575.0,0.0
Y,R,"[5, 7]",1.0,2.0,0.5661239624023438,1.9594459533691406,0.3915343660940124,57.0,576.0,0.0
Y,R,"[5, 8]",1.0,3.0,0.593109130859375,1.9089360237121582,0.31716676803090876,57.0,577.0,0.0
Y,R,"[5, 9]",0.0,3.0,0.5853769779205322,1.9148099422454834,0.33184284304041317,57.0,578.0,0.0
G,D,"[6, 9]",1.0,4.0,0.5267050266265869,2.079653024673462,0.5446365686091431,57.0,579.0,0.0
G,D,"[7, 9]",0.0,4.0,0.3160250186920166,2.0260801315307617,0.7205564728627452,57.0,580.0,0.0
,,"(6, 6)",,,,,,,,
R,U,"[5, 6]",1.0,1.0,0.2777061462402344,2.7353761196136475,0.30629457303901064,58.0,581.0,0.0
B,L,"[5, 5]",0.0,1.0,0.5383799076080322,2.019803047180176,0.49244005623654,58.0,582.0,0.0
Y,R,"[5, 6]",0.0,1.0,0.5507040023803711,2.1228740215301514,0.5820040721418014,58.0,583.0,0.0
Y,R,"[5, 7]",1.0,2.0,0.34934306144714355,1.8963148593902588,0.5449157760655359,58.0,584.0,0.0
Y,R,"[5, 8]",1.0,3.0,0.41095995903015137,1.7060918807983398,0.3011476614438134,58.0,585.0,0.0
Y,R,"[5, 9]",0.0,3.0,0.9483139514923096,2.541484832763672,0.5923980868159398,58.0,586.0,0.0
G,D,"[6, 9]",1.0,4.0,0.3380591869354248,1.7117578983306885,0.37094930774585655,58.0,587.0,0.0
B,L,"[6, 8]",1.0,5.0,0.7912509441375732,2.462815999984741,0.6668296833069896,58.0,588.0,0.0
G,D,"[7, 8]",0.0,5.0,0.4586200714111328,1.8239319324493408,0.3576775415292162,58.0,589.0,0.0
G,D,"[8, 8]",0.0,5.0,0.6998910903930664,2.2957170009613037,0.60309980233934,58.0,590.0,0.0
,,"(6, 6)",,,,,,,,
R,U,"[5, 6]",1.0,1.0,0.28092312812805176,2.6985220909118652,0.5183788289676776,59.0,591.0,0.0
G,D,"[6, 6]",0.0,1.0,0.27201008796691895,1.757681131362915,0.47600632229243267,59.0,592.0,0.0
B,L,"[6, 5]",0.0,1.0,0.5399069786071777,2.145977020263672,0.6051602199394797,59.0,593.0,0.0
B,L,"[6, 4]",0.0,1.0,0.38984203338623047,1.8080179691314697,0.4132201651675085,59.0,594.0,0.0
Y,R,"[6, 5]",0.0,1.0,0.8251991271972656,2.376276969909668,0.5393795047494147,59.0,595.0,0.0
Y,R,"[6, 6]",0.0,1.0,0.44365406036376953,2.0745110511779785,0.6303908117085097,59.0,596.0,0.0
B,L,"[6, 5]",0.0,1.0,0.569133996963501,1.9473249912261963,0.3779937701017321,59.0,597.0,0.0
G,D,"[7, 5]",0.0,1.0,0.42475080490112305,1.8506009578704834,0.4285522557889719,59.0,598.0,0.0
R,U,"[6, 5]",0.0,1.0,0.38491106033325195,1.7386009693145752,0.3671719436159426,59.0,599.0,0.0
G,D,"[7, 5]",0.0,1.0,0.556847095489502,2.2759618759155273,0.7093962228507703,59.0,600.0,0.0
,,"(6, 6)",,,,,,,,
R,U,"[5, 6]",1.0,1.0,0.3337888717651367,2.5226049423217773,0.31561650102428807,60.0,601.0,0.0
B,L,"[5, 5]",0.0,1.0,0.5080769062042236,1.925671100616455,0.407796123550253,60.0,602.0,0.0
Y,R,"[5, 6]",0.0,1.0,0.48406195640563965,1.8118658065795898,0.33644160760839115,60.0,603.0,0.0
Y,R,"[5, 7]",1.0,2.0,0.41937994956970215,1.946655035018921,0.5327585568282314,60.0,604.0,0.0
Y,R,"[5, 8]",1.0,3.0,0.37744879722595215,1.7301321029663086,0.3465114763656446,60.0,605.0,0.0
Y,R,"[5, 9]",0.0,3.0,0.6980321407318115,2.201509952545166,0.49779588495631416,60.0,606.0,0.0
R,U,"[4, 9]",1.0,4.0,0.8190691471099854,2.0940968990325928,0.2753170385221724,60.0,607.0,0.0
G,D,"[5, 9]",0.0,4.0,0.4346470832824707,2.101533889770508,0.6765757486286721,60.0,608.0,0.0
B,L,"[5, 8]",0.0,4.0,0.25792598724365234,1.995011806488037,0.7381494542763618,60.0,609.0,0.0
R,U,"[4, 8]",0.0,4.0,0.31763315200805664,1.879810094833374,0.5680911399959351,60.0,610.0,0.0
,,"(6, 6)",,,,,,,,
G,D,"[7, 6]",0.0,0.0,0.5841128826141357,4.638745069503784,0.7398618079869113,61.0,611.0,0.0
R,U,"[6, 6]",0.0,0.0,0.2338728904724121,1.8379578590393066,0.611290813435065,61.0,612.0,0.0
B,L,"[6, 5]",0.0,0.0,0.7595770359039307,2.117035150527954,0.36181741759512176,61.0,613.0,0.0
Y,R,"[6, 6]",0.0,0.0,0.3598759174346924,1.8500871658325195,0.4949145766587058,61.0,614.0,0.0
B,L,"[6, 5]",0.0,0.0,0.393618106842041,1.8861339092254639,0.49778024449916985,61.0,615.0,0.0
G,D,"[7, 5]",0.0,0.0,0.37184906005859375,1.9037299156188965,0.5347272774599647,61.0,616.0,0.0
G,D,"[8, 5]",0.0,0.0,0.38485002517700195,2.0041751861572266,0.6221320870699898,61.0,617.0,0.0
G,D,"[9, 5]",0.0,0.0,0.27184486389160156,1.628274917602539,0.35069311892829746,61.0,618.0,0.0
R,U,"[8, 5]",0.0,0.0,0.16949105262756348,1.456083059310913,0.29013611933724065,61.0,619.0,0.0
G,D,"[9, 5]",0.0,0.0,0.899590015411377,2.543349027633667,0.6497807634665593,61.0,620.0,0.0
,,"(6, 6)",,,,,,,,
R,U,"[5, 6]",1.0,1.0,0.3485879898071289,8.074272871017456,0.5072680459801917,62.0,621.0,0.0
B,L,"[5, 5]",-2.0,1.0,1.1137299537658691,2.373034954071045,0.29717953944464764,62.0,622.0,0.0
Y,R,"[5, 6]",0.0,1.0,0.32260584831237793,1.8782939910888672,0.5418387413354268,62.0,623.0,0.0
Y,R,"[5, 7]",1.0,2.0,0.232802152633667,1.9662179946899414,0.7412159586142953,62.0,624.0,0.0
Y,R,"[5, 8]",1.0,3.0,0.18238306045532227,1.4475440979003906,0.27249622448939814,62.0,625.0,0.0
Y,R,"[5, 9]",0.0,3.0,0.4160630702972412,1.8824172019958496,0.4713778120168534,62.0,626.0,0.0
R,U,"[4, 9]",1.0,4.0,0.9145030975341797,2.547684907913208,0.6355183730868659,62.0,627.0,0.0
G,D,"[5, 9]",-1.0,4.0,0.091217041015625,5.533100843429565,0.36865926767461044,62.0,628.0,0.0
B,L,"[5, 8]",0.0,4.0,0.3303248882293701,1.8799381256103516,0.5484415610087378,62.0,629.0,0.0
Y,R,"[5, 9]",0.0,4.0,0.3799738883972168,1.6531860828399658,0.26858957134406436,62.0,630.0,0.0
,,"(6, 6)",,,,,,,,
R,U,"[5, 6]",1.0,1.0,0.36029481887817383,6.095983982086182,0.48094040150640893,63.0,631.0,0.0
B,L,"[5, 5]",0.0,1.0,0.4478719234466553,1.825852870941162,0.37345174680369403,63.0,632.0,0.0
Y,R,"[5, 6]",0.0,1.0,0.7816338539123535,2.0285580158233643,0.2520914582804715,63.0,633.0,0.0
Y,R,"[5, 7]",1.0,2.0,0.550023078918457,1.8038890361785889,0.2558703712190725,63.0,634.0,0.0
Y,R,"[5, 8]",1.0,3.0,0.9080910682678223,2.17643404006958,0.26570797457671386,63.0,635.0,0.0
Y,R,"[5, 9]",0.0,3.0,0.48645710945129395,1.8895940780639648,0.40510831314919554,63.0,636.0,0.0
G,D,"[6, 9]",1.0,4.0,0.3721470832824707,1.9800078868865967,0.6181812288356577,63.0,637.0,0.0
B,L,"[6, 8]",1.0,5.0,0.2637670040130615,1.71766996383667,0.45267098117044935,63.0,638.0,0.0
R,U,"[5, 8]",0.0,5.0,0.4021449089050293,1.6849019527435303,0.2876986751642935,63.0,639.0,0.0
Y,R,"[5, 9]",0.0,5.0,0.5569329261779785,2.2996878623962402,0.7371344712857992,63.0,640.0,0.0
,,"(6, 6)",,,,,,,,
R,U,"[5, 6]",1.0,1.0,0.7735569477081299,3.362886905670166,0.4167928197612848,64.0,641.0,0.0
B,L,"[5, 5]",0.0,1.0,0.7480771541595459,2.451097011566162,0.7007954296540233,64.0,642.0,0.0
Y,R,"[5, 6]",0.0,1.0,0.2990388870239258,1.9207401275634766,0.6215697414721928,64.0,643.0,0.0
Y,R,"[5, 7]",1.0,2.0,0.35660219192504883,1.8352360725402832,0.4734955199773026,64.0,644.0,0.0
Y,R,"[5, 8]",1.0,3.0,0.4100768566131592,2.0431671142578125,0.63321361780115,64.0,645.0,0.0
R,U,"[4, 8]",0.0,3.0,0.6640980243682861,2.2207789421081543,0.5540364015811093,64.0,646.0,0.0
G,D,"[5, 8]",0.0,3.0,0.13535594940185547,1.5973799228668213,0.4681386034567663,64.0,647.0,0.0
B,L,"[5, 7]",0.0,3.0,0.3058500289916992,1.7710371017456055,0.45574489909084853,64.0,648.0,0.0
Y,R,"[5, 8]",0.0,3.0,0.31662988662719727,1.9825258255004883,0.6715977893086609,64.0,649.0,0.0
Y,R,"[5, 9]",0.0,3.0,0.37032413482666016,1.8125460147857666,0.45083431751349384,64.0,650.0,0.0
,,"(6, 6)",,,,,,,,
R,U,"[5, 6]",1.0,1.0,0.4457221031188965,3.2893309593200684,0.4067974782767829,65.0,651.0,0.0
Y,R,"[5, 7]",1.0,2.0,0.6572999954223633,2.2690558433532715,0.60883634584844,65.0,652.0,0.0
Y,R,"[5, 8]",-1.0,2.0,0.0469059944152832,5.524075031280518,0.41637090451695813,65.0,653.0,0.0
Y,R,"[5, 9]",0.0,2.0,0.5473630428314209,2.285565137863159,0.7349469431655326,65.0,654.0,0.0
Y,R,"[5, 10]",1.0,3.0,0.4709041118621826,1.8910129070281982,0.42622089307190736,65.0,655.0,0.0
Y,R,"[5, 11]",0.0,3.0,0.7525649070739746,2.4725570678710938,0.7317354588172239,65.0,656.0,0.0
G,D,"[6, 11]",0.0,3.0,0.27119898796081543,1.8984229564666748,0.630297609751344,65.0,657.0,0.0
Y,R,"[5, 11]",-3.0,3.0,0.3824758529663086,1.971282958984375,0.5848672829708976,65.0,658.0,0.0
B,L,"[5, 10]",0.0,3.0,0.4024779796600342,1.8075580596923828,0.40920412458658817,65.0,659.0,0.0
Y,R,"[5, 11]",0.0,3.0,0.37846899032592773,1.9291801452636719,0.5547991409993663,65.0,660.0,0.0
,,"(6, 6)",,,,,,,,
R,U,"[5, 6]",1.0,1.0,0.3828909397125244,3.445587158203125,0.3838958754091067,66.0,661.0,0.0
Y,R,"[5, 7]",1.0,2.0,0.39506006240844727,1.8571510314941406,0.4575270412830404,66.0,662.0,0.0
Y,R,"[5, 8]",1.0,3.0,0.35308289527893066,2.0859367847442627,0.7432218214552506,66.0,663.0,0.0
Y,R,"[5, 9]",0.0,3.0,0.6731729507446289,2.1905949115753174,0.5173072943902204,66.0,664.0,0.0
G,D,"[6, 9]",1.0,4.0,0.4197549819946289,1.984583854675293,0.5684123538958092,66.0,665.0,0.0
B,L,"[6, 8]",1.0,5.0,0.3493950366973877,2.001368999481201,0.653071873203161,66.0,666.0,0.0
B,L,"[6, 7]",0.0,5.0,0.48096704483032227,1.8681399822235107,0.3882258097546852,66.0,667.0,0.0
Y,R,"[6, 8]",0.0,5.0,0.2824089527130127,1.6160759925842285,0.33754537822378383,66.0,668.0,0.0
Y,R,"[6, 9]",0.0,5.0,0.3529701232910156,2.0036909580230713,0.6574287561705963,66.0,669.0,0.0
Y,R,"[6, 10]",-1.0,5.0,0.0649878978729248,5.487893104553223,0.36224684726721856,66.0,670.0,0.0
,,"(6, 6)",,,,,,,,
R,U,"[5, 6]",1.0,1.0,0.3345170021057129,3.0996291637420654,0.5781662344225271,67.0,671.0,0.0
Y,R,"[5, 7]",1.0,2.0,0.322908878326416,2.0498201847076416,0.7445973533973657,67.0,672.0,0.0
Y,R,"[5, 8]",1.0,3.0,0.4116530418395996,1.7468600273132324,0.34182586019068856,67.0,673.0,0.0
G,D,"[6, 8]",1.0,4.0,0.5847949981689453,2.09372615814209,0.5184426091133931,67.0,674.0,0.0
R,U,"[5, 8]",0.0,4.0,0.4855339527130127,2.1026968955993652,0.6214982121543234,67.0,675.0,0.0
B,L,"[5, 7]",0.0,4.0,0.3572700023651123,1.8289310932159424,0.4667969567909494,67.0,676.0,0.0
G,D,"[6, 7]",0.0,4.0,0.8532218933105469,2.5988731384277344,0.7487765227646798,67.0,677.0,0.0
Y,R,"[6, 8]",0.0,4.0,0.11421513557434082,1.7660980224609375,0.6482530997691727,67.0,678.0,0.0
Y,R,"[6, 9]",1.0,5.0,0.3544950485229492,1.7172951698303223,0.3659359954917898,67.0,679.0,0.0
Y,R,"[6, 10]",1.0,6.0,0.3618330955505371,2.0506720542907715,0.6828103938477714,67.0,680.0,0.0
,,"(6, 6)",,,,,,,,
G,D,"[7, 6]",0.0,0.0,0.6723110675811768,5.362377882003784,0.5118631284442381,68.0,681.0,0.0
B,L,"[7, 5]",0.0,0.0,0.37041783332824707,1.6499178409576416,0.29519770874596396,68.0,682.0,0.0
R,U,"[6, 5]",0.0,0.0,0.3574700355529785,1.6957809925079346,0.3409920134828989,68.0,683.0,0.0
Y,R,"[6, 6]",0.0,0.0,0.9788260459899902,2.5028600692749023,0.5269288510566645,68.0,684.0,0.0
Y,R,"[6, 7]",0.0,0.0,0.5877170562744141,2.1885461807250977,0.6153695127589416,68.0,685.0,0.0
Y,R,"[6, 8]",1.0,1.0,0.2537219524383545,1.5490710735321045,0.29796557601282414,68.0,686.0,0.0
Y,R,"[6, 9]",1.0,2.0,0.3047211170196533,1.6133711338043213,0.31138857125294384,68.0,687.0,0.0
Y,R,"[6, 10]",1.0,3.0,0.4029381275177002,2.123744010925293,0.7347647897947607,68.0,688.0,0.0
Y,R,"[6, 11]",0.0,3.0,0.28434205055236816,1.8365049362182617,0.5546458939451921,68.0,689.0,0.0
Y,R,"[6, 10]",-3.0,3.0,0.27568697929382324,1.6886460781097412,0.40997137614068657,68.0,690.0,0.0
,,"(6, 6)",,,,,,,,
R,U,"[5, 6]",1.0,1.0,0.2314438819885254,2.855048179626465,0.41501941860506886,69.0,691.0,0.0
Y,R,"[5, 7]",1.0,2.0,0.2741119861602783,1.9261319637298584,0.6408783021808704,69.0,692.0,0.0
Y,R,"[5, 8]",1.0,3.0,0.3693060874938965,1.7589008808135986,0.4000120175429233,69.0,693.0,0.0
Y,R,"[5, 9]",0.0,3.0,0.5286509990692139,1.9651618003845215,0.4316780351499346,69.0,694.0,0.0
G,D,"[6, 9]",1.0,4.0,0.830949068069458,2.559575080871582,0.7243404008326456,69.0,695.0,0.0
B,L,"[6, 8]",1.0,5.0,0.3069620132446289,2.026042938232422,0.7172947782647541,69.0,696.0,0.0
Y,R,"[6, 9]",0.0,5.0,0.25978803634643555,1.9764020442962646,0.7101947478019393,69.0,697.0,0.0
Y,R,"[6, 10]",1.0,6.0,0.2608950138092041,1.92913818359375,0.6724346158947685,69.0,698.0,0.0
Y,R,"[6, 11]",0.0,6.0,0.2666151523590088,1.529675006866455,0.269172930106794,69.0,699.0,0.0
Y,R,"[6, 10]",-3.0,6.0,0.4144289493560791,2.0306739807128906,0.6162479819328555,69.0,700.0,0.0
,,"(6, 6)",,,,,,,,
R,U,"[5, 6]",1.0,1.0,0.296619176864624,4.613416910171509,0.696053390040146,70.0,701.0,0.0
Y,R,"[5, 7]",1.0,2.0,0.6952009201049805,2.1771769523620605,0.47343805226689667,70.0,702.0,0.0
Y,R,"[5, 8]",1.0,3.0,0.6194257736206055,1.909782886505127,0.3000047149701614,70.0,703.0,0.0
G,D,"[6, 8]",-2.0,3.0,1.0249300003051758,2.2619450092315674,0.2619753445949754,70.0,704.0,0.0
G,D,"[7, 8]",0.0,3.0,0.24763107299804688,1.7771780490875244,0.5387243803336481,70.0,705.0,0.0
B,L,"[7, 7]",0.0,3.0,0.6154448986053467,1.8871331214904785,0.27612679348042196,70.0,706.0,0.0
R,U,"[6, 7]",0.0,3.0,0.3760848045349121,1.7244720458984375,0.3504294598734396,70.0,707.0,0.0
Y,R,"[6, 8]",-2.0,3.0,1.2677240371704102,2.554563045501709,0.32173444679192703,70.0,708.0,0.0
Y,R,"[6, 9]",1.0,4.0,0.49268102645874023,2.0610499382019043,0.5658099580906231,70.0,709.0,0.0
Y,R,"[6, 10]",1.0,5.0,0.21407699584960938,1.5123097896575928,0.29493906670051034,70.0,710.0,0.0
,,"(6, 6)",,,,,,,,
R,U,"[5, 6]",-2.0,0.0,1.2164371013641357,3.6796751022338867,0.2913841142857542,71.0,711.0,0.0
Y,R,"[5, 7]",1.0,1.0,0.8067619800567627,2.056674003601074,0.2645735083995592,71.0,712.0,0.0
Y,R,"[5, 8]",1.0,2.0,0.46035194396972656,1.825071096420288,0.35623581339266136,71.0,713.0,0.0
Y,R,"[5, 9]",0.0,2.0,0.6733369827270508,2.0385961532592773,0.36148064203743047,71.0,714.0,0.0
G,D,"[6, 9]",1.0,3.0,0.5260310173034668,2.0071260929107666,0.48505686411296034,71.0,715.0,0.0
B,L,"[6, 8]",1.0,4.0,0.3677511215209961,1.7886121273040771,0.42358941922102206,71.0,716.0,0.0
R,U,"[5, 8]",0.0,4.0,0.286923885345459,1.9744269847869873,0.6976885183512501,71.0,717.0,0.0
Y,R,"[5, 9]",0.0,4.0,0.2215900421142578,1.6408870220184326,0.4223076789858676,71.0,718.0,0.0
Y,R,"[5, 10]",1.0,5.0,0.3632619380950928,1.8967649936676025,0.5355521036081557,71.0,719.0,0.0
Y,R,"[5, 11]",0.0,5.0,0.32869791984558105,1.7751851081848145,0.4440402540929935,71.0,720.0,0.0
,,"(6, 6)",,,,,,,,
R,U,"[5, 6]",1.0,1.0,0.5487370491027832,3.5520079135894775,0.6962852442373237,72.0,721.0,0.0
Y,R,"[5, 7]",1.0,2.0,0.3693070411682129,1.7738101482391357,0.40320529273881545,72.0,722.0,0.0
G,D,"[6, 7]",0.0,2.0,0.36557793617248535,1.936819076538086,0.5730359520855439,72.0,723.0,0.0
G,D,"[7, 7]",0.0,2.0,0.17588114738464355,1.4434401988983154,0.26681609159552877,72.0,724.0,0.0
G,D,"[8, 7]",0.0,2.0,0.33179807662963867,1.9352390766143799,0.601607644243354,72.0,725.0,0.0
G,D,"[9, 7]",-1.0,2.0,0.06650996208190918,5.830315113067627,0.6984706354913863,72.0,726.0,0.0
G,D,"[10, 7]",0.0,2.0,0.23672008514404297,1.665898084640503,0.431144956032801,72.0,727.0,0.0
B,L,"[10, 6]",0.0,2.0,0.27744317054748535,1.6979360580444336,0.4125093372097639,72.0,728.0,0.0
B,L,"[10, 5]",0.0,2.0,0.2428278923034668,1.5144879817962646,0.26039460976827117,72.0,729.0,0.0
B,L,"[10, 4]",0.0,2.0,0.3134911060333252,1.8381738662719727,0.5316445597545649,72.0,730.0,0.0
,,"(6, 6)",,,,,,,,
R,U,"[5, 6]",1.0,1.0,0.325894832611084,3.8345069885253906,0.6659128787046265,73.0,731.0,0.0
Y,R,"[5, 7]",-2.0,1.0,1.0413360595703125,2.554795980453491,0.537359502041308,73.0,732.0,0.0
Y,R,"[5, 8]",1.0,2.0,0.3430500030517578,1.6472139358520508,0.3015300514889484,73.0,733.0,0.0
Y,R,"[5, 9]",0.0,2.0,0.6642100811004639,2.1340808868408203,0.46866393235525683,73.0,734.0,0.0
G,D,"[6, 9]",1.0,3.0,0.3888261318206787,1.8036179542541504,0.4056538909278798,73.0,735.0,0.0
B,L,"[6, 8]",1.0,4.0,0.662708044052124,1.9411001205444336,0.2803087506126132,73.0,736.0,0.0
G,D,"[7, 8]",0.0,4.0,0.7527508735656738,2.2776029109954834,0.5242445136075575,73.0,737.0,0.0
Y,R,"[7, 9]",0.0,4.0,0.35500597953796387,1.8525290489196777,0.49331781624237964,73.0,738.0,0.0
Y,R,"[7, 10]",0.0,4.0,0.3284029960632324,1.7226080894470215,0.3994167203318118,73.0,739.0,0.0
Y,R,"[7, 11]",0.0,4.0,0.29585790634155273,1.6163740158081055,0.3158284943697522,73.0,740.0,0.0
,,"(6, 6)",,,,,,,,
R,U,"[5, 6]",1.0,1.0,0.19911408424377441,2.939549207687378,0.4052245378762038,74.0,741.0,0.0
Y,R,"[5, 7]",1.0,2.0,0.7315700054168701,2.2722411155700684,0.54392039349646,74.0,742.0,0.0
Y,R,"[5, 8]",1.0,3.0,0.3379380702972412,1.8674681186676025,0.5447109249758979,74.0,743.0,0.0
G,D,"[6, 8]",1.0,4.0,0.5005278587341309,1.9964680671691895,0.5078166666220383,74.0,744.0,0.0
G,D,"[7, 8]",0.0,4.0,0.6133129596710205,2.0327610969543457,0.42389388063897565,74.0,745.0,0.0
B,L,"[7, 7]",0.0,4.0,0.42696690559387207,2.014284133911133,0.5881405476287467,74.0,746.0,0.0
Y,R,"[7, 8]",0.0,4.0,0.33917999267578125,2.0844199657440186,0.7389525973463823,74.0,747.0,0.0
Y,R,"[7, 9]",0.0,4.0,0.23779988288879395,1.6195018291473389,0.39197752091111815,74.0,748.0,0.0
Y,R,"[7, 10]",0.0,4.0,0.40213799476623535,2.055346965789795,0.6637916124897325,74.0,749.0,0.0
Y,R,"[7, 11]",0.0,4.0,0.30446505546569824,2.0152788162231445,0.6956419608579179,74.0,750.0,0.0
,,"(6, 6)",,,,,,,,
R,U,"[5, 6]",1.0,1.0,0.30083298683166504,2.655979871749878,0.3852289278029149,75.0,751.0,0.0
Y,R,"[5, 7]",1.0,2.0,0.3158290386199951,1.7395169734954834,0.4245821749791876,75.0,752.0,0.0
Y,R,"[5, 8]",1.0,3.0,0.3723909854888916,1.9393022060394287,0.5637993085765376,75.0,753.0,0.0
R,U,"[4, 8]",0.0,3.0,0.4236140251159668,1.718616008758545,0.2826738789552315,75.0,754.0,0.0
G,D,"[5, 8]",0.0,3.0,0.4137871265411377,1.9070639610290527,0.48950418536797363,75.0,755.0,0.0
B,L,"[5, 7]",0.0,3.0,0.2977018356323242,1.7471721172332764,0.45326389083670293,75.0,756.0,0.0
Y,R,"[5, 8]",0.0,3.0,0.41873693466186523,1.7216451168060303,0.3083204526567324,75.0,757.0,0.0
Y,R,"[5, 9]",0.0,3.0,0.33914804458618164,2.0312070846557617,0.705725155471933,75.0,758.0,0.0
B,L,"[5, 8]",0.0,3.0,0.2286970615386963,1.6602180004119873,0.4329425867675681,75.0,759.0,0.0
G,D,"[6, 8]",1.0,4.0,0.22399210929870605,1.8092999458312988,0.5756272109783471,75.0,760.0,0.0
,,"(6, 6)",,,,,,,,
R,U,"[5, 6]",1.0,1.0,0.32198500633239746,3.278931140899658,0.6540809529650267,76.0,761.0,0.0
Y,R,"[5, 7]",1.0,2.0,0.33565497398376465,1.7907521724700928,0.4615976864090813,76.0,762.0,0.0
Y,R,"[5, 8]",1.0,3.0,0.31032896041870117,1.7702970504760742,0.4652646872846685,76.0,763.0,0.0
Y,R,"[5, 9]",0.0,3.0,0.671011209487915,2.189669132232666,0.5215162105487618,76.0,764.0,0.0
G,D,"[6, 9]",1.0,4.0,0.36261796951293945,1.7588739395141602,0.3971274463893794,76.0,765.0,0.0
B,L,"[6, 8]",1.0,5.0,0.4699430465698242,2.2012569904327393,0.731733753059949,76.0,766.0,0.0
Y,R,"[6, 9]",0.0,5.0,0.6722300052642822,2.2874250411987305,0.602162049256513,76.0,767.0,0.0
Y,R,"[6, 10]",1.0,6.0,0.34454798698425293,1.6861507892608643,0.33862414331293544,76.0,768.0,0.0
R,U,"[5, 10]",1.0,7.0,0.36820316314697266,2.0412209033966064,0.6794282029877194,76.0,769.0,0.0
Y,R,"[5, 11]",0.0,7.0,0.8172411918640137,2.5297789573669434,0.7090375750850868,76.0,770.0,0.0
,,"(6, 6)",,,,,,,,
R,U,"[5, 6]",1.0,1.0,0.20247197151184082,4.851168155670166,0.7433591994806681,77.0,771.0,0.0
Y,R,"[5, 7]",1.0,2.0,0.3095271587371826,2.0285751819610596,0.7219102318383158,77.0,772.0,0.0
Y,R,"[5, 8]",1.0,3.0,0.7501108646392822,2.4818789958953857,0.737697082142251,77.0,773.0,0.0
Y,R,"[5, 9]",0.0,3.0,0.7468090057373047,2.238353967666626,0.49236597800201554,77.0,774.0,0.0
G,D,"[6, 9]",1.0,4.0,0.9530670642852783,2.2112791538238525,0.2704433996461738,77.0,775.0,0.0
B,L,"[6, 8]",1.0,5.0,0.7467939853668213,2.2534830570220947,0.5070266687079891,77.0,776.0,0.0
Y,R,"[6, 9]",0.0,5.0,0.40175509452819824,2.0517079830169678,0.6585355947865845,77.0,777.0,0.0
Y,R,"[6, 10]",1.0,6.0,0.21773886680603027,1.9437789916992188,0.7355588517471681,77.0,778.0,0.0
R,U,"[5, 10]",1.0,7.0,0.33072614669799805,1.8791100978851318,0.5481509942610938,77.0,779.0,0.0
R,U,"[4, 10]",1.0,8.0,0.30275416374206543,1.7472529411315918,0.44541704648040475,77.0,780.0,0.0
,,"(6, 6)",,,,,,,,
R,U,"[5, 6]",-2.0,0.0,1.2813830375671387,4.559818983078003,0.4218492126212787,78.0,781.0,0.0
Y,R,"[5, 7]",1.0,1.0,0.2022709846496582,1.6051368713378906,0.4103057703018267,78.0,782.0,0.0
Y,R,"[5, 8]",1.0,2.0,0.4903230667114258,2.2126238346099854,0.7224437121115094,78.0,783.0,0.0
G,D,"[6, 8]",1.0,3.0,0.6866490840911865,2.040910005569458,0.36378211426717116,78.0,784.0,0.0
R,U,"[5, 8]",0.0,3.0,0.3986208438873291,1.6783912181854248,0.2755546510896269,78.0,785.0,0.0
B,L,"[5, 7]",0.0,3.0,0.6379299163818359,2.0331220626831055,0.40836596391660673,78.0,786.0,0.0
Y,R,"[5, 8]",0.0,3.0,0.26659393310546875,1.537492036819458,0.2794549119951408,78.0,787.0,0.0
B,L,"[5, 7]",0.0,3.0,0.2885880470275879,1.7504010200500488,0.4628037498124206,78.0,788.0,0.0
G,D,"[6, 7]",0.0,3.0,0.43362903594970703,2.1850290298461914,0.747535870904632,78.0,789.0,0.0
R,U,"[5, 7]",0.0,3.0,0.3272368907928467,1.9588871002197266,0.6232201640206606,78.0,790.0,0.0
,,"(6, 6)",,,,,,,,
R,U,"[5, 6]",1.0,1.0,0.31250715255737305,2.939812183380127,0.42979417852402374,79.0,791.0,0.0
Y,R,"[5, 7]",1.0,2.0,0.26723194122314453,1.9505670070648193,0.6800531399895811,79.0,792.0,0.0
Y,R,"[5, 8]",1.0,3.0,0.4773139953613281,1.9236080646514893,0.43719460684785866,79.0,793.0,0.0
G,D,"[6, 8]",1.0,4.0,0.41251301765441895,1.7040338516235352,0.2914530721851749,79.0,794.0,0.0
Y,R,"[6, 9]",1.0,5.0,0.5694611072540283,2.1483020782470703,0.5893656349928829,79.0,795.0,0.0
B,L,"[6, 8]",0.0,5.0,0.978654146194458,2.6640939712524414,0.6866020551830774,79.0,796.0,0.0
Y,R,"[6, 9]",0.0,5.0,0.3788108825683594,1.8996601104736328,0.5197958457080162,79.0,797.0,0.0
Y,R,"[6, 10]",1.0,6.0,0.4217979907989502,1.8068571090698242,0.3933565359635701,79.0,798.0,0.0
R,U,"[5, 10]",1.0,7.0,0.5248641967773438,1.9113411903381348,0.38797965306688686,79.0,799.0,0.0
R,U,"[4, 10]",1.0,8.0,0.449739933013916,2.157957077026367,0.7121535727390734,79.0,800.0,0.0
,,"(6, 6)",,,,,,,,
Y,R,"[6, 7]",-1.0,0.0,0.018409013748168945,15.76853609085083,0.39734933826450286,80.0,801.0,0.0
Y,R,"[6, 8]",1.0,1.0,0.5341691970825195,1.8082778453826904,0.2724490058931022,80.0,802.0,0.0
Y,R,"[6, 9]",1.0,2.0,0.3776071071624756,1.9430720806121826,0.5651016286203507,80.0,803.0,0.0
G,D,"[7, 9]",0.0,2.0,0.4325881004333496,1.9045469760894775,0.4696694265486579,80.0,804.0,0.0
G,D,"[8, 9]",0.0,2.0,0.17408180236816406,1.4617199897766113,0.2816504974679552,80.0,805.0,0.0
B,L,"[8, 8]",0.0,2.0,0.29190492630004883,1.6473069190979004,0.34541537571548114,80.0,806.0,0.0
R,U,"[7, 8]",0.0,2.0,0.3180069923400879,1.5754411220550537,0.2543175758305167,80.0,807.0,0.0
Y,R,"[7, 9]",0.0,2.0,0.11823010444641113,1.5106890201568604,0.39818322496138714,80.0,808.0,0.0
Y,R,"[7, 10]",0.0,2.0,0.26835012435913086,1.862401008605957,0.5936852134682947,80.0,809.0,0.0
Y,R,"[7, 11]",0.0,2.0,0.3315870761871338,1.945213794708252,0.6221795083818519,80.0,810.0,0.0
,,"(6, 6)",,,,,,,,
R,U,"[5, 6]",1.0,1.0,0.8434381484985352,4.979663848876953,0.6352741775699395,81.0,811.0,0.0
Y,R,"[5, 7]",1.0,2.0,0.3603811264038086,1.9120299816131592,0.5471200883230966,81.0,812.0,0.0
Y,R,"[5, 8]",1.0,3.0,0.35652995109558105,2.07271409034729,0.7029612194023038,81.0,813.0,0.0
Y,R,"[5, 9]",0.0,3.0,0.2928149700164795,1.8870439529418945,0.5900527173864138,81.0,814.0,0.0
G,D,"[6, 9]",1.0,4.0,0.2944159507751465,1.97890305519104,0.6854072557584673,81.0,815.0,0.0
B,L,"[6, 8]",1.0,5.0,0.3481149673461914,2.046701192855835,0.6988236299188318,81.0,816.0,0.0
R,U,"[5, 8]",0.0,5.0,0.4762289524078369,1.9461569786071777,0.4618072657599021,81.0,817.0,0.0
Y,R,"[5, 9]",0.0,5.0,0.3525428771972656,1.997485876083374,0.6590913553467586,81.0,818.0,0.0
Y,R,"[5, 10]",1.0,6.0,0.2787458896636963,1.8731310367584229,0.5987777818434105,81.0,819.0,0.0
R,U,"[4, 10]",1.0,7.0,0.3933839797973633,1.701859951019287,0.3010219542705425,81.0,820.0,0.0
,,"(6, 6)",,,,,,,,
R,U,"[5, 6]",1.0,1.0,0.4957089424133301,4.839462995529175,0.44022976012521464,82.0,821.0,0.0
Y,R,"[5, 7]",1.0,2.0,0.4360620975494385,2.1524658203125,0.7262084218596425,82.0,822.0,0.0
Y,R,"[5, 8]",-1.0,2.0,0.046331167221069336,5.666337966918945,0.5586736518366469,82.0,823.0,0.0
Y,R,"[5, 9]",0.0,2.0,0.3514218330383301,1.9502007961273193,0.6091994340770177,82.0,824.0,0.0
G,D,"[6, 9]",1.0,3.0,0.307279109954834,1.5900390148162842,0.2825112058634176,82.0,825.0,0.0
B,L,"[6, 8]",1.0,4.0,0.6952700614929199,2.013906955718994,0.31297852552079913,82.0,826.0,0.0
R,U,"[5, 8]",0.0,4.0,0.5437710285186768,1.9595880508422852,0.4058009810966087,82.0,827.0,0.0
Y,R,"[5, 9]",0.0,4.0,0.38059115409851074,1.9220459461212158,0.5442488567827777,82.0,828.0,0.0
Y,R,"[5, 10]",1.0,5.0,0.23188996315002441,1.961681842803955,0.7391036783938117,82.0,829.0,0.0
R,U,"[4, 10]",-1.0,5.0,0.0266571044921875,5.486314058303833,0.40877821407599485,82.0,830.0,0.0
,,"(6, 6)",,,,,,,,
R,U,"[5, 6]",1.0,1.0,0.44381189346313477,6.245021104812622,0.6702157346162987,83.0,831.0,0.0
Y,R,"[5, 7]",1.0,2.0,0.6218171119689941,1.8681471347808838,0.2554109607125678,83.0,832.0,0.0
Y,R,"[5, 8]",-2.0,2.0,1.3871421813964844,2.7737009525299072,0.428841749663955,83.0,833.0,0.0
Y,R,"[5, 9]",0.0,2.0,0.4059760570526123,2.071363925933838,0.6665971317181418,83.0,834.0,0.0
G,D,"[6, 9]",1.0,3.0,0.7750990390777588,2.067056894302368,0.28400515519950076,83.0,835.0,0.0
B,L,"[6, 8]",1.0,4.0,0.4004228115081787,1.8319780826568604,0.432444529118845,83.0,836.0,0.0
Y,R,"[6, 9]",0.0,4.0,0.3460211753845215,1.6210949420928955,0.27031117545102423,83.0,837.0,0.0
Y,R,"[6, 10]",1.0,5.0,0.3213460445404053,1.9375550746917725,0.6075260432562448,83.0,838.0,0.0
R,U,"[5, 10]",1.0,6.0,0.11396098136901855,1.7819468975067139,0.6729263991699316,83.0,839.0,0.0
R,U,"[4, 10]",1.0,7.0,0.36966991424560547,1.7380619049072266,0.3776504396200242,83.0,840.0,0.0
,,"(6, 6)",,,,,,,,
R,U,"[5, 6]",1.0,1.0,0.6737020015716553,4.6791911125183105,0.3734161332885791,84.0,841.0,0.0
Y,R,"[5, 7]",1.0,2.0,0.6250050067901611,2.21110200881958,0.5843897710726434,84.0,842.0,0.0
Y,R,"[5, 8]",1.0,3.0,0.41028594970703125,1.8735949993133545,0.45793239256431306,84.0,843.0,0.0
Y,R,"[5, 9]",0.0,3.0,0.7656669616699219,2.146752119064331,0.3880551923306276,84.0,844.0,0.0
G,D,"[6, 9]",1.0,4.0,0.41938114166259766,2.1192409992218018,0.7068921896903737,84.0,845.0,0.0
B,L,"[6, 8]",1.0,5.0,0.2529289722442627,1.8407578468322754,0.5979655678434839,84.0,846.0,0.0
Y,R,"[6, 9]",0.0,5.0,0.47186803817749023,1.7794928550720215,0.3108192124357139,84.0,847.0,0.0
Y,R,"[6, 10]",1.0,6.0,0.3697469234466553,1.8855810165405273,0.5293572924987096,84.0,848.0,0.0
Y,R,"[6, 11]",0.0,6.0,0.18085694313049316,1.6178600788116455,0.4305748078507072,84.0,849.0,0.0
R,U,"[5, 11]",0.0,6.0,0.6015708446502686,2.3124940395355225,0.7096042246278548,84.0,850.0,0.0
,,"(6, 6)",,,,,,,,
R,U,"[5, 6]",1.0,1.0,0.4214940071105957,3.042742967605591,0.5023098595014188,85.0,851.0,0.0
Y,R,"[5, 7]",1.0,2.0,0.9045679569244385,2.196103096008301,0.2986304995455472,85.0,852.0,0.0
Y,R,"[5, 8]",1.0,3.0,0.9344809055328369,2.203368902206421,0.2686144360605731,85.0,853.0,0.0
G,D,"[6, 8]",1.0,4.0,0.45847201347351074,1.7602941989898682,0.2955664638309702,85.0,854.0,0.0
G,D,"[7, 8]",0.0,4.0,0.5277719497680664,1.8615670204162598,0.3237487276610109,85.0,855.0,0.0
B,L,"[7, 7]",0.0,4.0,0.5049610137939453,2.2436227798461914,0.7335778991931297,85.0,856.0,0.0
Y,R,"[7, 8]",-1.0,4.0,0.011277914047241211,5.753294944763184,0.6701173601270376,85.0,857.0,0.0
Y,R,"[7, 9]",0.0,4.0,0.38576412200927734,1.8645679950714111,0.4848259406119533,85.0,858.0,0.0
Y,R,"[7, 10]",0.0,4.0,0.689018964767456,2.166275978088379,0.4843689548583706,85.0,859.0,0.0
R,U,"[6, 10]",1.0,5.0,0.537484884262085,2.0334789752960205,0.4844797019419036,85.0,860.0,0.0
,,"(6, 6)",,,,,,,,
R,U,"[5, 6]",1.0,1.0,0.5761380195617676,3.992192029953003,0.6597777145362234,86.0,861.0,0.0
Y,R,"[5, 7]",-2.0,1.0,1.0726289749145508,2.5209481716156006,0.48071724763447293,86.0,862.0,0.0
Y,R,"[5, 8]",1.0,2.0,0.28627490997314453,1.585602045059204,0.2998949757941853,86.0,863.0,0.0
Y,R,"[5, 9]",0.0,2.0,0.35796499252319336,2.0678741931915283,0.7006693401751893,86.0,864.0,0.0
G,D,"[6, 9]",1.0,3.0,0.3872849941253662,1.8749120235443115,0.4923039415665454,86.0,865.0,0.0
B,L,"[6, 8]",1.0,4.0,0.25257205963134766,1.7258150577545166,0.4848729045492043,86.0,866.0,0.0
Y,R,"[6, 9]",0.0,4.0,0.38724398612976074,2.053637981414795,0.6714967104241978,86.0,867.0,0.0
Y,R,"[6, 10]",1.0,5.0,0.2165229320526123,1.5080630779266357,0.2965671134308645,86.0,868.0,0.0
R,U,"[5, 10]",1.0,6.0,0.6150341033935547,2.0120959281921387,0.39187680943068504,86.0,869.0,0.0
R,U,"[4, 10]",1.0,7.0,0.35452795028686523,1.9515869617462158,0.6098671514060341,86.0,870.0,0.0
,,"(6, 6)",,,,,,,,
R,U,"[5, 6]",1.0,1.0,0.34798502922058105,2.6143741607666016,0.3578100528679761,87.0,871.0,0.0
Y,R,"[5, 7]",1.0,2.0,0.9029040336608887,2.3090980052948,0.4168202756758744,87.0,872.0,0.0
Y,R,"[5, 8]",1.0,3.0,0.6102550029754639,1.949106216430664,0.332620942490071,87.0,873.0,0.0
Y,R,"[5, 9]",0.0,3.0,0.5102291107177734,1.976762056350708,0.45923837680353125,87.0,874.0,0.0
G,D,"[6, 9]",1.0,4.0,0.45253896713256836,2.18807315826416,0.7469231210983465,87.0,875.0,0.0
B,L,"[6, 8]",-1.0,4.0,0.07882905006408691,5.834841012954712,0.6816398646171409,87.0,876.0,0.0
Y,R,"[6, 9]",-2.0,4.0,1.034585952758789,2.492910146713257,0.49142339985788547,87.0,877.0,0.0
Y,R,"[6, 10]",1.0,5.0,0.3331339359283447,1.5821919441223145,0.25707049890510003,87.0,878.0,0.0
R,U,"[5, 10]",1.0,6.0,0.33248209953308105,1.8456249237060547,0.5191101772183608,87.0,879.0,0.0
R,U,"[4, 10]",1.0,7.0,0.28779006004333496,1.5748159885406494,0.2940261584410254,87.0,880.0,0.0
,,"(6, 6)",,,,,,,,
R,U,"[5, 6]",1.0,1.0,0.3679680824279785,3.993352174758911,0.6037294141962064,88.0,881.0,0.0
Y,R,"[5, 7]",1.0,2.0,0.3309791088104248,2.071470022201538,0.7415502237886804,88.0,882.0,0.0
Y,R,"[5, 8]",1.0,3.0,0.3159511089324951,1.7994651794433594,0.49129750531112676,88.0,883.0,0.0
B,L,"[5, 7]",0.0,3.0,0.9832022190093994,2.3705360889434814,0.3952836442246381,88.0,884.0,0.0
R,U,"[4, 7]",0.0,3.0,0.33418703079223633,1.6534709930419922,0.33204261359288845,88.0,885.0,0.0
G,D,"[5, 7]",0.0,3.0,0.3016390800476074,1.864621877670288,0.5633450756604874,88.0,886.0,0.0
G,D,"[6, 7]",0.0,3.0,0.22321009635925293,1.900155782699585,0.6798200380574501,88.0,887.0,0.0
Y,R,"[6, 8]",1.0,4.0,0.5984652042388916,2.018367052078247,0.41503787986188667,88.0,888.0,0.0
R,U,"[5, 8]",0.0,4.0,0.501258134841919,2.2242929935455322,0.7222461976078114,88.0,889.0,0.0
Y,R,"[5, 9]",0.0,4.0,0.37564611434936523,1.7229809761047363,0.3456395330125341,88.0,890.0,0.0
,,"(6, 6)",,,,,,,,
R,U,"[5, 6]",1.0,1.0,0.25005292892456055,3.0653598308563232,0.7271123209010395,89.0,891.0,0.0
Y,R,"[5, 7]",1.0,2.0,0.4031651020050049,1.9574708938598633,0.5681026825113273,89.0,892.0,0.0
Y,R,"[5, 8]",1.0,3.0,0.27864813804626465,1.9948480129241943,0.7129210045839784,89.0,893.0,0.0
R,U,"[4, 8]",0.0,3.0,0.2824821472167969,1.7510619163513184,0.4640540044545478,89.0,894.0,0.0
G,D,"[5, 8]",0.0,3.0,0.30945706367492676,1.944309949874878,0.6248383357685787,89.0,895.0,0.0
B,L,"[5, 7]",0.0,3.0,0.24018001556396484,1.9462201595306396,0.7042506692014144,89.0,896.0,0.0
Y,R,"[5, 8]",0.0,3.0,0.4630110263824463,1.7715740203857422,0.3094925477801067,89.0,897.0,0.0
R,U,"[4, 8]",0.0,3.0,0.49143099784851074,2.1372830867767334,0.6468151275968892,89.0,898.0,0.0
Y,R,"[4, 9]",1.0,4.0,0.2904479503631592,1.984818935394287,0.6811716140016356,89.0,899.0,0.0
R,U,"[3, 9]",1.0,5.0,0.30930495262145996,1.6948440074920654,0.37625606546099977,89.0,900.0,0.0
,,"(6, 6)",,,,,,,,
R,U,"[5, 6]",1.0,1.0,0.34797000885009766,5.3696839809417725,0.745416144885884,90.0,901.0,0.0
Y,R,"[5, 7]",1.0,2.0,0.360429048538208,1.9123268127441406,0.5411357383695735,90.0,902.0,0.0
Y,R,"[5, 8]",1.0,3.0,0.2623138427734375,1.5858628749847412,0.3273456184326559,90.0,903.0,0.0
Y,R,"[5, 9]",0.0,3.0,0.33005404472351074,1.7391879558563232,0.4164501945066479,90.0,904.0,0.0
G,D,"[6, 9]",1.0,4.0,0.25299811363220215,1.7581229209899902,0.5077104667618928,90.0,905.0,0.0
B,L,"[6, 8]",1.0,5.0,0.30296897888183594,1.6777911186218262,0.3855583662531512,90.0,906.0,0.0
Y,R,"[6, 9]",0.0,5.0,0.3986837863922119,1.679434061050415,0.2816201478695093,90.0,907.0,0.0
Y,R,"[6, 10]",1.0,6.0,0.5022711753845215,2.0356338024139404,0.5337424629228538,90.0,908.0,0.0
R,U,"[5, 10]",-1.0,6.0,0.022426128387451172,5.674773931503296,0.5916698760434158,90.0,909.0,0.0
R,U,"[4, 10]",1.0,7.0,0.6502618789672852,2.1582181453704834,0.5165427738035321,90.0,910.0,0.0
,,"(6, 6)",,,,,,,,
R,U,"[5, 6]",1.0,1.0,0.3458220958709717,6.74297308921814,0.7257592077864088,91.0,911.0,0.0
Y,R,"[5, 7]",1.0,2.0,0.37720322608947754,1.8348181247711182,0.4608498477826064,91.0,912.0,0.0
Y,R,"[5, 8]",1.0,3.0,0.3938758373260498,2.060106039047241,0.6706466909891227,91.0,913.0,0.0
G,D,"[6, 8]",1.0,4.0,0.3773641586303711,1.9495549201965332,0.5703252152030552,91.0,914.0,0.0
G,D,"[7, 8]",0.0,4.0,0.576153039932251,1.9113960266113281,0.33178422958851955,91.0,915.0,0.0
B,L,"[7, 7]",0.0,4.0,0.3364899158477783,1.752943992614746,0.41803135822849097,91.0,916.0,0.0
Y,R,"[7, 8]",0.0,4.0,0.5725200176239014,2.057435989379883,0.47541060042775585,91.0,917.0,0.0
Y,R,"[7, 9]",-1.0,4.0,0.08409309387207031,5.472440004348755,0.3310583566197467,91.0,918.0,0.0
Y,R,"[7, 10]",0.0,4.0,0.34612107276916504,1.92523193359375,0.5726627455362934,91.0,919.0,0.0
R,U,"[6, 10]",1.0,5.0,0.43361711502075195,1.6791369915008545,0.2521914222686638,91.0,920.0,0.0
,,"(6, 6)",,,,,,,,
R,U,"[5, 6]",1.0,1.0,0.29887890815734863,4.329432964324951,0.6810429811525025,92.0,921.0,0.0
Y,R,"[5, 7]",1.0,2.0,0.28369712829589844,1.5531179904937744,0.2679914114999754,92.0,922.0,0.0
Y,R,"[5, 8]",1.0,3.0,0.7047507762908936,2.207786798477173,0.5087422961647224,92.0,923.0,0.0
Y,R,"[5, 9]",0.0,3.0,0.294619083404541,1.7750630378723145,0.48379384374505935,92.0,924.0,0.0
G,D,"[6, 9]",1.0,4.0,0.19831299781799316,1.5082590579986572,0.3088229895974114,92.0,925.0,0.0
B,L,"[6, 8]",1.0,5.0,0.3670339584350586,1.9915649890899658,0.6334099446244217,92.0,926.0,0.0
Y,R,"[6, 9]",-2.0,5.0,1.064258098602295,2.550920009613037,0.5176949188298364,92.0,927.0,0.0
Y,R,"[6, 10]",1.0,6.0,0.2782778739929199,2.0189361572265625,0.736386082697322,92.0,928.0,0.0
R,U,"[5, 10]",1.0,7.0,0.24161911010742188,1.8658061027526855,0.6189101298611612,92.0,929.0,0.0
R,U,"[4, 10]",1.0,8.0,0.2119581699371338,1.941641092300415,0.7270980862981102,92.0,930.0,0.0
,,"(6, 6)",,,,,,,,
R,U,"[5, 6]",1.0,1.0,0.42732787132263184,3.415163040161133,0.45904486938367056,93.0,931.0,0.0
Y,R,"[5, 7]",1.0,2.0,0.4559519290924072,2.132775068283081,0.6749417630565484,93.0,932.0,0.0
Y,R,"[5, 8]",1.0,3.0,0.5576820373535156,2.0909979343414307,0.5326546454890339,93.0,933.0,0.0
G,D,"[6, 8]",1.0,4.0,0.3825700283050537,1.9723560810089111,0.588291068128001,93.0,934.0,0.0
Y,R,"[6, 9]",1.0,5.0,0.24103498458862305,1.745258092880249,0.500175898371763,93.0,935.0,0.0
B,L,"[6, 8]",0.0,5.0,0.28488993644714355,1.8781301975250244,0.5948976099209018,93.0,936.0,0.0
Y,R,"[6, 9]",0.0,5.0,0.27042102813720703,1.6242711544036865,0.3693756130434066,93.0,937.0,0.0
Y,R,"[6, 10]",1.0,6.0,0.3311450481414795,1.6026999950408936,0.27211641445674084,93.0,938.0,0.0
R,U,"[5, 10]",1.0,7.0,0.47481584548950195,1.9307060241699219,0.4526137770406188,93.0,939.0,0.0
R,U,"[4, 10]",1.0,8.0,0.28243088722229004,1.613677978515625,0.33302113447490955,93.0,940.0,0.0
,,"(6, 6)",,,,,,,,
R,U,"[5, 6]",1.0,1.0,0.24098992347717285,2.686053991317749,0.4855443833168609,94.0,941.0,0.0
Y,R,"[5, 7]",1.0,2.0,0.28042006492614746,1.7992668151855469,0.518044315719759,94.0,942.0,0.0
Y,R,"[5, 8]",1.0,3.0,0.22661614418029785,1.7239410877227783,0.49189770435094154,94.0,943.0,0.0
G,D,"[6, 8]",1.0,4.0,0.5379610061645508,1.954045057296753,0.42925421383226964,94.0,944.0,0.0
Y,R,"[6, 9]",1.0,5.0,0.42305994033813477,1.7878811359405518,0.3506130598556003,94.0,945.0,0.0
R,U,"[5, 9]",0.0,5.0,0.6096818447113037,1.9916391372680664,0.3755138982869786,94.0,946.0,0.0
B,L,"[5, 8]",0.0,5.0,0.38034486770629883,1.9165189266204834,0.541733002650403,94.0,947.0,0.0
Y,R,"[5, 9]",0.0,5.0,0.19969987869262695,1.7432868480682373,0.5517068438883999,94.0,948.0,0.0
Y,R,"[5, 10]",1.0,6.0,0.1520709991455078,1.421267032623291,0.2732514940516543,94.0,949.0,0.0
R,U,"[4, 10]",1.0,7.0,0.37497901916503906,1.7247450351715088,0.3477671741210756,94.0,950.0,0.0
,,"(6, 6)",,,,,,,,
R,U,"[5, 6]",1.0,1.0,0.3615241050720215,2.79885196685791,0.563142343003654,95.0,951.0,0.0
Y,R,"[5, 7]",1.0,2.0,0.42465901374816895,1.7878751754760742,0.3511676078130444,95.0,952.0,0.0
Y,R,"[5, 8]",1.0,3.0,0.4664771556854248,1.7468819618225098,0.2813948095245176,95.0,953.0,0.0
G,D,"[6, 8]",1.0,4.0,0.44536280632019043,1.9387109279632568,0.4866014334971441,95.0,954.0,0.0
Y,R,"[6, 9]",1.0,5.0,0.30796313285827637,1.8423829078674316,0.5288109343113465,95.0,955.0,0.0
G,D,"[7, 9]",0.0,5.0,0.29489707946777344,1.6317451000213623,0.32740744005074496,95.0,956.0,0.0
B,L,"[7, 8]",0.0,5.0,0.22034597396850586,1.6547331809997559,0.44862958680133413,95.0,957.0,0.0
Y,R,"[7, 9]",0.0,5.0,0.14859914779663086,1.8734829425811768,0.7218323012027328,95.0,958.0,0.0
Y,R,"[7, 10]",0.0,5.0,0.479935884475708,2.0597879886627197,0.581716675778597,95.0,959.0,0.0
R,U,"[6, 10]",1.0,6.0,0.3544759750366211,1.6897740364074707,0.33836678382812047,95.0,960.0,0.0
,,"(6, 6)",,,,,,,,
R,U,"[5, 6]",1.0,1.0,0.2645699977874756,2.7221570014953613,0.7436018657024335,96.0,961.0,0.0
Y,R,"[5, 7]",1.0,2.0,0.24314117431640625,1.8347299098968506,0.5948548344596627,96.0,962.0,0.0
Y,R,"[5, 8]",1.0,3.0,0.3639099597930908,2.098093032836914,0.7426713606551754,96.0,963.0,0.0
G,D,"[6, 8]",1.0,4.0,0.16175007820129395,1.8225610256195068,0.6652407082923172,96.0,964.0,0.0
Y,R,"[6, 9]",1.0,5.0,0.2577090263366699,1.7046878337860107,0.43690286478817647,96.0,965.0,0.0
R,U,"[5, 9]",0.0,5.0,0.4134409427642822,1.6694250106811523,0.2565003920633282,96.0,966.0,0.0
B,L,"[5, 8]",0.0,5.0,0.668830156326294,2.2202961444854736,0.5598854938918139,96.0,967.0,0.0
Y,R,"[5, 9]",0.0,5.0,0.23513293266296387,1.5095341205596924,0.28616763368999015,96.0,968.0,0.0
Y,R,"[5, 10]",1.0,6.0,0.3158729076385498,1.7740070819854736,0.4598294348688285,96.0,969.0,0.0
R,U,"[4, 10]",1.0,7.0,0.30973291397094727,2.0027570724487305,0.6962511193845919,96.0,970.0,0.0
,,"(6, 6)",,,,,,,,
R,U,"[5, 6]",1.0,1.0,0.2860419750213623,2.917663097381592,0.38033740096033525,97.0,971.0,0.0
Y,R,"[5, 7]",1.0,2.0,0.49530696868896484,2.2225050926208496,0.7190570261368672,97.0,972.0,0.0
Y,R,"[5, 8]",1.0,3.0,0.22880101203918457,1.5518760681152344,0.3213476197090262,97.0,973.0,0.0
Y,R,"[5, 9]",0.0,3.0,0.49154210090637207,2.008112907409668,0.5125167955953427,97.0,974.0,0.0
G,D,"[6, 9]",1.0,4.0,0.28397297859191895,1.7052948474884033,0.4179235031696694,97.0,975.0,0.0
B,L,"[6, 8]",1.0,5.0,0.46111202239990234,1.927046775817871,0.461591143355702,97.0,976.0,0.0
Y,R,"[6, 9]",0.0,5.0,0.533552885055542,1.9540259838104248,0.4322305788995496,97.0,977.0,0.0
Y,R,"[6, 10]",1.0,6.0,0.38960909843444824,2.1192948818206787,0.7181810938783868,97.0,978.0,0.0
R,U,"[5, 10]",1.0,7.0,0.33292698860168457,1.896982192993164,0.5649330429672004,97.0,979.0,0.0
R,U,"[4, 10]",1.0,8.0,0.2549569606781006,1.6364481449127197,0.38479949156221566,97.0,980.0,0.0
,,"(6, 6)",,,,,,,,
R,U,"[5, 6]",1.0,1.0,0.6712908744812012,2.6485469341278076,0.49981848674627594,98.0,981.0,0.0
Y,R,"[5, 7]",1.0,2.0,0.48392486572265625,2.0931971073150635,0.6095113000816359,98.0,982.0,0.0
Y,R,"[5, 8]",1.0,3.0,0.43225979804992676,1.7793920040130615,0.3558749812275669,98.0,983.0,0.0
R,U,"[4, 8]",0.0,3.0,0.2789318561553955,1.6534929275512695,0.3759959745912959,98.0,984.0,0.0
Y,R,"[4, 9]",1.0,4.0,0.46402502059936523,1.7422540187835693,0.28482864805916824,98.0,985.0,0.0
Y,R,"[4, 10]",1.0,5.0,0.5854308605194092,1.9611589908599854,0.37918277404458883,98.0,986.0,0.0
Y,R,"[4, 11]",0.0,5.0,0.4893980026245117,2.2331230640411377,0.7288750001640006,98.0,987.0,0.0
B,L,"[4, 10]",0.0,5.0,0.1327958106994629,1.7981622219085693,0.6601359097460433,98.0,988.0,0.0
G,D,"[5, 10]",1.0,6.0,0.20949912071228027,1.8638670444488525,0.6572915548953788,98.0,989.0,0.0
G,D,"[6, 10]",1.0,7.0,0.299774169921875,1.6447029113769531,0.3523474819795091,98.0,990.0,0.0
,,"(6, 6)",,,,,,,,
R,U,"[5, 6]",1.0,1.0,0.6534090042114258,3.750072956085205,0.6020548464531259,99.0,991.0,0.0
Y,R,"[5, 7]",1.0,2.0,0.4457879066467285,2.111011028289795,0.6629437478646335,99.0,992.0,0.0
Y,R,"[5, 8]",1.0,3.0,0.16823387145996094,1.708648920059204,0.5383522743571558,99.0,993.0,0.0
G,D,"[6, 8]",1.0,4.0,0.32701706886291504,1.9355058670043945,0.60704297478523,99.0,994.0,0.0
Y,R,"[6, 9]",1.0,5.0,0.28968310356140137,1.7214930057525635,0.42871314743639255,99.0,995.0,0.0
Y,R,"[6, 10]",1.0,6.0,0.4125518798828125,2.13338303565979,0.7284144500673799,99.0,996.0,0.0
R,U,"[5, 10]",1.0,7.0,0.12438702583312988,1.4591689109802246,0.32130933300137066,99.0,997.0,0.0
G,D,"[6, 10]",0.0,7.0,0.47094011306762695,2.049484968185425,0.5871163949046753,99.0,998.0,0.0
Y,R,"[6, 11]",0.0,7.0,0.542961835861206,2.0721569061279297,0.5258522091084366,99.0,999.0,0.0
B,L,"[6, 10]",0.0,7.0,0.7533798217773438,2.3003389835357666,0.559461699107977,99.0,1000.0,0.0
