button_choice,action_choice,coordinate_choice,reward,cumulative_reward,rt,total_trial_time,iti,block_n,trial_n,trial_type
R,U,"[5, 6]",1.0,1.0,0.9688489437103271,2.4411041736602783,0.4586859903400142,0.0,1.0,0.0
Y,R,"[5, 7]",1.0,2.0,0.30437588691711426,1.6175580024719238,0.3097333284207337,0.0,2.0,0.0
Y,R,"[5, 8]",1.0,3.0,0.2507328987121582,1.7218351364135742,0.4812515965050915,0.0,3.0,0.0
G,D,"[6, 8]",1.0,4.0,0.2654459476470947,1.7571589946746826,0.48848211986550677,0.0,4.0,0.0
Y,R,"[6, 9]",1.0,5.0,0.2338111400604248,1.676926851272583,0.44876064582959924,0.0,5.0,0.0
Y,R,"[6, 10]",1.0,6.0,0.2552359104156494,1.8002068996429443,0.5321360542395439,0.0,6.0,0.0
R,U,"[5, 10]",1.0,7.0,0.2519969940185547,1.6770858764648438,0.42597191631083675,0.0,7.0,0.0
R,U,"[4, 10]",1.0,8.0,0.3215298652648926,1.8210229873657227,0.5135441386198566,0.0,8.0,0.0
B,L,"[4, 9]",1.0,9.0,0.18408513069152832,1.8626139163970947,0.6759290164092394,0.0,9.0,0.0
G,D,"[5, 9]",0.0,9.0,0.2443990707397461,1.9797589778900146,0.7389450960019401,0.0,10.0,0.0
,,"(6, 6)",,,,,,,,
R,U,"[5, 6]",1.0,1.0,0.7841670513153076,3.771193027496338,0.660117203234166,1.0,11.0,0.0
Y,R,"[5, 7]",1.0,2.0,0.25708699226379395,1.7124359607696533,0.45614422612123684,1.0,12.0,0.0
Y,R,"[5, 8]",1.0,3.0,0.259260892868042,1.8835971355438232,0.6227966095082758,1.0,13.0,0.0
G,D,"[6, 8]",1.0,4.0,0.5429160594940186,2.0674870014190674,0.5238301266569352,1.0,14.0,0.0
Y,R,"[6, 9]",1.0,5.0,0.27321505546569824,1.6217279434204102,0.345518034464888,1.0,15.0,0.0
Y,R,"[6, 10]",1.0,6.0,0.26786303520202637,1.8108041286468506,0.539451747197524,1.0,16.0,0.0
R,U,"[5, 10]",1.0,7.0,0.3780500888824463,1.9182610511779785,0.5409967681002441,1.0,17.0,0.0
Y,R,"[5, 11]",0.0,7.0,0.3923609256744385,1.8287220001220703,0.43633452824205365,1.0,18.0,0.0
R,U,"[4, 11]",0.0,7.0,0.8321352005004883,2.1445090770721436,0.3143230917699613,1.0,19.0,0.0
R,U,"[3, 11]",0.0,7.0,0.31380200386047363,1.7805190086364746,0.4613597563887576,1.0,20.0,0.0
,,"(6, 6)",,,,,,,,
R,U,"[5, 6]",1.0,1.0,0.640125036239624,3.5610580444335938,0.6054621759860486,2.0,21.0,0.0
Y,R,"[5, 7]",1.0,2.0,0.28043198585510254,1.5718989372253418,0.29436684880165787,2.0,22.0,0.0
Y,R,"[5, 8]",1.0,3.0,0.25777602195739746,1.9166450500488281,0.6773019914384262,2.0,23.0,0.0
G,D,"[6, 8]",1.0,4.0,0.989124059677124,2.405327081680298,0.4160830555677751,2.0,24.0,0.0
Y,R,"[6, 9]",1.0,5.0,0.5533719062805176,2.111564874649048,0.5608467549252263,2.0,25.0,0.0
R,U,"[5, 9]",0.0,5.0,0.3293769359588623,1.884225845336914,0.5616275190764685,2.0,26.0,0.0
R,U,"[4, 9]",1.0,6.0,0.3130319118499756,1.9068429470062256,0.6017689612873831,2.0,27.0,0.0
Y,R,"[4, 10]",1.0,7.0,0.2875950336456299,1.8436570167541504,0.5620484091009393,2.0,28.0,0.0
Y,R,"[4, 11]",-2.0,7.0,1.157416820526123,2.553773880004883,0.4158450794657267,2.0,29.0,0.0
Y,R,"[4, 10]",-3.0,7.0,0.2243669033050537,1.6672749519348145,0.433144295558682,2.0,30.0,0.0
,,"(6, 6)",,,,,,,,
R,U,"[5, 6]",1.0,1.0,0.7233240604400635,4.422928810119629,0.6558219207092144,3.0,31.0,0.0
Y,R,"[5, 7]",1.0,2.0,0.25400590896606445,1.5512499809265137,0.307388624585825,3.0,32.0,0.0
Y,R,"[5, 8]",1.0,3.0,0.4539189338684082,1.866075038909912,0.4232008275556795,3.0,33.0,0.0
G,D,"[6, 8]",1.0,4.0,0.36922597885131836,1.7686049938201904,0.40839449744179984,3.0,34.0,0.0
Y,R,"[6, 9]",1.0,5.0,0.34862804412841797,1.6242260932922363,0.28272068252224775,3.0,35.0,0.0
Y,R,"[6, 10]",1.0,6.0,0.3717620372772217,1.9055299758911133,0.5214501783176397,3.0,36.0,0.0
R,U,"[5, 10]",1.0,7.0,0.31345605850219727,1.7371230125427246,0.4252836047721941,3.0,37.0,0.0
R,U,"[4, 10]",1.0,8.0,0.2560420036315918,1.7107501029968262,0.46924355909065396,3.0,38.0,0.0
G,D,"[5, 10]",0.0,8.0,0.825279951095581,2.264899969100952,0.4341555093433145,3.0,39.0,0.0
G,D,"[6, 10]",0.0,8.0,0.8735270500183105,2.5870468616485596,0.7209080203713321,3.0,40.0,0.0
,,"(6, 6)",,,,,,,,
R,U,"[5, 6]",1.0,1.0,0.6212658882141113,3.408716917037964,0.7295175074328424,4.0,41.0,0.0
Y,R,"[5, 7]",1.0,2.0,0.2424759864807129,1.7950379848480225,0.5413561047564959,4.0,42.0,0.0
Y,R,"[5, 8]",1.0,3.0,0.2531599998474121,1.7458629608154297,0.5037880540496618,4.0,43.0,0.0
G,D,"[6, 8]",1.0,4.0,0.27015209197998047,1.683682918548584,0.4208491618176183,4.0,44.0,0.0
Y,R,"[6, 9]",1.0,5.0,0.25193190574645996,1.9127349853515625,0.6666488134656172,4.0,45.0,0.0
Y,R,"[6, 10]",1.0,6.0,0.16507315635681152,1.5125470161437988,0.346104375057603,4.0,46.0,0.0
R,U,"[5, 10]",1.0,7.0,0.8085060119628906,2.404812812805176,0.5840793885309874,4.0,47.0,0.0
R,U,"[4, 10]",1.0,8.0,0.6085882186889648,2.1648988723754883,0.5489710964627399,4.0,48.0,0.0
B,L,"[4, 9]",1.0,9.0,0.8477451801300049,2.29702091217041,0.44605579667980405,4.0,49.0,0.0
R,U,"[3, 9]",1.0,10.0,0.5407631397247314,2.173203945159912,0.6190348713016547,4.0,50.0,0.0
,,"(6, 6)",,,,,,,,
R,U,"[5, 6]",1.0,1.0,0.6395881175994873,3.375631809234619,0.5279777524608518,5.0,51.0,0.0
Y,R,"[5, 7]",1.0,2.0,0.2863118648529053,1.9579188823699951,0.6857208151283171,5.0,52.0,0.0
Y,R,"[5, 8]",1.0,3.0,0.2506880760192871,1.871161937713623,0.6235768148171899,5.0,53.0,0.0
G,D,"[6, 8]",1.0,4.0,0.34195709228515625,1.6318740844726562,0.2891031585740777,5.0,54.0,0.0
B,L,"[6, 7]",0.0,4.0,0.5876259803771973,2.1700189113616943,0.5920380233689208,5.0,55.0,0.0
Y,R,"[6, 8]",0.0,4.0,0.24989700317382812,1.7017872333526611,0.46058955952119796,5.0,56.0,0.0
Y,R,"[6, 9]",1.0,5.0,0.32300305366516113,2.0193629264831543,0.6962564220786817,5.0,57.0,0.0
R,U,"[5, 9]",0.0,5.0,0.2705800533294678,1.889359951019287,0.6191640057441734,5.0,58.0,0.0
R,U,"[4, 9]",1.0,6.0,0.5282590389251709,2.023461103439331,0.49266538564775925,5.0,59.0,0.0
B,L,"[4, 8]",0.0,6.0,0.3315098285675049,1.9272549152374268,0.6030148995103228,5.0,60.0,0.0
,,"(6, 6)",,,,,,,,
R,U,"[5, 6]",1.0,1.0,0.9397180080413818,3.6589291095733643,0.3954179720072858,6.0,61.0,0.0
Y,R,"[5, 7]",-1.0,1.0,0.0941469669342041,5.705654144287109,0.5341895470429464,6.0,62.0,0.0
Y,R,"[5, 8]",1.0,2.0,0.27750706672668457,2.0000569820404053,0.7173601457238127,6.0,63.0,0.0
Y,R,"[5, 9]",0.0,2.0,0.27149295806884766,1.5797932147979736,0.31419133514368275,6.0,64.0,0.0
G,D,"[6, 9]",1.0,3.0,0.5632758140563965,2.066744089126587,0.49740082685906856,6.0,65.0,0.0
Y,R,"[6, 10]",1.0,4.0,0.30286288261413574,1.8416268825531006,0.5388882746779584,6.0,66.0,0.0
Y,R,"[6, 11]",0.0,4.0,0.38110899925231934,1.8650798797607422,0.48739104977067876,6.0,67.0,0.0
R,U,"[5, 11]",0.0,4.0,0.3935739994049072,2.035032033920288,0.6388142900238002,6.0,68.0,0.0
R,U,"[4, 11]",0.0,4.0,0.38403797149658203,1.936974048614502,0.5591917355151403,6.0,69.0,0.0
B,L,"[4, 10]",1.0,5.0,0.4297499656677246,1.6825098991394043,0.258648710260936,6.0,70.0,0.0
,,"(6, 6)",,,,,,,,
R,U,"[5, 6]",1.0,1.0,0.636415958404541,4.116768836975098,0.7083630666838121,7.0,71.0,0.0
Y,R,"[5, 7]",1.0,2.0,0.4207429885864258,1.8318729400634766,0.4236660939102819,7.0,72.0,0.0
Y,R,"[5, 8]",1.0,3.0,0.43934178352355957,2.013139009475708,0.5698686993716175,7.0,73.0,0.0
G,D,"[6, 8]",1.0,4.0,0.5466890335083008,2.0411269664764404,0.49435450223184374,7.0,74.0,0.0
Y,R,"[6, 9]",1.0,5.0,0.5933370590209961,2.0345449447631836,0.4456078502167482,7.0,75.0,0.0
R,U,"[5, 9]",0.0,5.0,0.11750102043151855,1.8432409763336182,0.7218365503396391,7.0,76.0,0.0
R,U,"[4, 9]",1.0,6.0,0.454974889755249,2.085789203643799,0.6243768351011907,7.0,77.0,0.0
R,U,"[3, 9]",1.0,7.0,0.5886600017547607,1.8589940071105957,0.2670167465536488,7.0,78.0,0.0
B,L,"[3, 8]",0.0,7.0,0.5150330066680908,1.945655107498169,0.42908855708457105,7.0,79.0,0.0
R,U,"[2, 8]",0.0,7.0,0.3543970584869385,2.008852005004883,0.6544089544735181,7.0,80.0,0.0
,,"(6, 6)",,,,,,,,
R,U,"[5, 6]",1.0,1.0,0.7939229011535645,3.0583081245422363,0.3794564593690814,8.0,81.0,0.0
Y,R,"[5, 7]",1.0,2.0,0.3662848472595215,1.9718809127807617,0.6015797262057112,8.0,82.0,0.0
Y,R,"[5, 8]",1.0,3.0,0.4296889305114746,2.0138230323791504,0.5816539876205096,8.0,83.0,0.0
G,D,"[6, 8]",1.0,4.0,0.3658747673034668,1.7774558067321777,0.4092249452904919,8.0,84.0,0.0
Y,R,"[6, 9]",1.0,5.0,0.607248067855835,2.163712978363037,0.5561299917567641,8.0,85.0,0.0
Y,R,"[6, 10]",1.0,6.0,0.3175320625305176,1.622779130935669,0.3124143670888368,8.0,86.0,0.0
R,U,"[5, 10]",1.0,7.0,0.46927499771118164,1.9306859970092773,0.459610312765485,8.0,87.0,0.0
R,U,"[4, 10]",1.0,8.0,0.3004570007324219,1.6769750118255615,0.38650267234235963,8.0,88.0,0.0
B,L,"[4, 9]",1.0,9.0,0.3972649574279785,1.8363268375396729,0.4393928076716832,8.0,89.0,0.0
R,U,"[3, 9]",1.0,10.0,0.354809045791626,1.6535768508911133,0.309833712921466,8.0,90.0,0.0
,,"(6, 6)",,,,,,,,
R,U,"[5, 6]",1.0,1.0,0.45205116271972656,3.0498790740966797,0.6425636536887689,9.0,91.0,0.0
Y,R,"[5, 7]",1.0,2.0,0.2487649917602539,1.6386029720306396,0.39807340588765455,9.0,92.0,0.0
Y,R,"[5, 8]",1.0,3.0,0.3597428798675537,2.0122790336608887,0.6434030787116825,9.0,93.0,0.0
G,D,"[6, 8]",1.0,4.0,0.3407881259918213,1.991772174835205,0.6517704267498163,9.0,94.0,0.0
Y,R,"[6, 9]",1.0,5.0,0.296738862991333,1.6974849700927734,0.3994335946982388,9.0,95.0,0.0
Y,R,"[6, 10]",1.0,6.0,0.27872610092163086,1.6410670280456543,0.35717590310491454,9.0,96.0,0.0
R,U,"[5, 10]",1.0,7.0,0.46343994140625,2.000682830810547,0.5409560221891023,9.0,97.0,0.0
R,U,"[4, 10]",1.0,8.0,0.42742204666137695,2.030916929244995,0.6050620402323812,9.0,98.0,0.0
B,L,"[4, 9]",1.0,9.0,0.2620089054107666,1.5650618076324463,0.3037448757565743,9.0,99.0,0.0
G,D,"[5, 9]",0.0,9.0,0.3723170757293701,2.096381902694702,0.7162005315219697,9.0,100.0,0.0
,,"(6, 6)",,,,,,,,
R,U,"[5, 6]",1.0,1.0,0.7143151760101318,3.3830618858337402,0.5162822666529252,10.0,101.0,0.0
Y,R,"[5, 7]",1.0,2.0,0.31098294258117676,1.7316739559173584,0.41448224793116933,10.0,102.0,0.0
Y,R,"[5, 8]",1.0,3.0,0.3266470432281494,1.813533067703247,0.477799968179075,10.0,103.0,0.0
G,D,"[6, 8]",1.0,4.0,0.32161903381347656,1.6336629390716553,0.32831211210391953,10.0,104.0,0.0
Y,R,"[6, 9]",1.0,5.0,0.44924497604370117,1.8994290828704834,0.4609657342740029,10.0,105.0,0.0
Y,R,"[6, 10]",1.0,6.0,0.48929405212402344,1.7935731410980225,0.3212191283376236,10.0,106.0,0.0
R,U,"[5, 10]",1.0,7.0,0.5052061080932617,1.9195070266723633,0.4072733094412072,10.0,107.0,0.0
R,U,"[4, 10]",1.0,8.0,0.5897300243377686,2.0564918518066406,0.4802966820700332,10.0,108.0,0.0
B,L,"[4, 9]",1.0,9.0,0.8639709949493408,2.1245689392089844,0.25503957634595154,10.0,109.0,0.0
R,U,"[3, 9]",1.0,10.0,0.4842491149902344,2.0765860080718994,0.5977702258278281,10.0,110.0,0.0
,,"(6, 6)",,,,,,,,
R,U,"[5, 6]",1.0,1.0,0.3256361484527588,3.2805168628692627,0.7446975243200276,11.0,111.0,0.0
Y,R,"[5, 7]",1.0,2.0,0.2945230007171631,1.5525379180908203,0.2643416397568361,11.0,112.0,0.0
Y,R,"[5, 8]",1.0,3.0,0.30147290229797363,1.651177167892456,0.3488217804484855,11.0,113.0,0.0
G,D,"[6, 8]",1.0,4.0,0.3086888790130615,1.8895680904388428,0.5713211960894675,11.0,114.0,0.0
Y,R,"[6, 9]",1.0,5.0,0.28210997581481934,1.8609380722045898,0.5822830109228295,11.0,115.0,0.0
Y,R,"[6, 10]",1.0,6.0,0.3164680004119873,2.0021538734436035,0.6842693409952244,11.0,116.0,0.0
R,U,"[5, 10]",1.0,7.0,0.3354201316833496,1.598268985748291,0.26624516923590635,11.0,117.0,0.0
R,U,"[4, 10]",1.0,8.0,0.6574180126190186,2.0118520259857178,0.34453779575257454,11.0,118.0,0.0
B,L,"[4, 9]",1.0,9.0,0.4704551696777344,2.2029659748077393,0.7304008936109074,11.0,119.0,0.0
R,U,"[3, 9]",1.0,10.0,0.10280179977416992,1.6087579727172852,0.5060662355840015,11.0,120.0,0.0
,,"(6, 6)",,,,,,,,
R,U,"[5, 6]",1.0,1.0,0.4476020336151123,2.844221830368042,0.6169808205619863,12.0,121.0,0.0
Y,R,"[5, 7]",1.0,2.0,0.3088700771331787,1.6469099521636963,0.3305317169641452,12.0,122.0,0.0
Y,R,"[5, 8]",1.0,3.0,0.30573010444641113,1.8127331733703613,0.4931311913290831,12.0,123.0,0.0
G,D,"[6, 8]",1.0,4.0,0.42962002754211426,2.090954065322876,0.6670811380228223,12.0,124.0,0.0
Y,R,"[6, 9]",1.0,5.0,0.2587709426879883,1.8226971626281738,0.5565864394650923,12.0,125.0,0.0
Y,R,"[6, 10]",1.0,6.0,0.2500779628753662,1.831226110458374,0.5876958478620613,12.0,126.0,0.0
R,U,"[5, 10]",1.0,7.0,0.28046417236328125,1.8629310131072998,0.583833657471718,12.0,127.0,0.0
R,U,"[4, 10]",-1.0,7.0,0.018590927124023438,5.722814083099365,0.6398321867010854,12.0,128.0,0.0
R,U,"[3, 10]",0.0,7.0,0.3973500728607178,1.982435941696167,0.5889516444500775,12.0,129.0,0.0
B,L,"[3, 9]",1.0,8.0,0.4758920669555664,2.0278971195220947,0.5501106921278496,12.0,130.0,0.0
,,"(6, 6)",,,,,,,,
R,U,"[5, 6]",1.0,1.0,0.575098991394043,4.199838161468506,0.6164417332575463,13.0,131.0,0.0
Y,R,"[5, 7]",1.0,2.0,0.3466451168060303,1.8274719715118408,0.4774427841093388,13.0,132.0,0.0
Y,R,"[5, 8]",1.0,3.0,0.3668358325958252,2.039091110229492,0.6827634046327026,13.0,133.0,0.0
G,D,"[6, 8]",1.0,4.0,0.44486188888549805,1.954944133758545,0.5045420640349207,13.0,134.0,0.0
Y,R,"[6, 9]",1.0,5.0,0.38956189155578613,1.8492250442504883,0.45375575944288316,13.0,135.0,0.0
Y,R,"[6, 10]",1.0,6.0,0.493988037109375,2.105212926864624,0.6090885571616762,13.0,136.0,0.0
R,U,"[5, 10]",1.0,7.0,0.36884593963623047,1.9154179096221924,0.5574834712302685,13.0,137.0,0.0
R,U,"[4, 10]",1.0,8.0,0.39816880226135254,2.1206281185150146,0.7279247765224424,13.0,138.0,0.0
B,L,"[4, 9]",1.0,9.0,0.44142699241638184,1.9056260585784912,0.4671108059894039,13.0,139.0,0.0
R,U,"[3, 9]",1.0,10.0,0.492764949798584,2.187725067138672,0.6878442604221997,13.0,140.0,0.0
,,"(6, 6)",,,,,,,,
R,U,"[5, 6]",1.0,1.0,0.5199100971221924,2.539346933364868,0.31073636441145197,14.0,141.0,0.0
Y,R,"[5, 7]",1.0,2.0,0.3200571537017822,1.8828999996185303,0.5767173591043384,14.0,142.0,0.0
Y,R,"[5, 8]",1.0,3.0,0.34073805809020996,1.9009950160980225,0.5610048019232934,14.0,143.0,0.0
G,D,"[6, 8]",1.0,4.0,0.40375614166259766,1.7853748798370361,0.39638425770966246,14.0,144.0,0.0
Y,R,"[6, 9]",1.0,5.0,0.5746691226959229,2.32755184173584,0.7407133660747611,14.0,145.0,0.0
Y,R,"[6, 10]",1.0,6.0,0.28350305557250977,1.945267915725708,0.6689030496268842,14.0,146.0,0.0
R,U,"[5, 10]",1.0,7.0,0.30018115043640137,1.806459903717041,0.5088243204047489,14.0,147.0,0.0
R,U,"[4, 10]",1.0,8.0,0.33200502395629883,1.8343172073364258,0.5098292692988302,14.0,148.0,0.0
B,L,"[4, 9]",1.0,9.0,0.5142002105712891,2.256783962249756,0.7495775646837195,14.0,149.0,0.0
R,U,"[3, 9]",1.0,10.0,0.22702693939208984,1.6185879707336426,0.38500755268169445,14.0,150.0,0.0
,,"(6, 6)",,,,,,,,
R,U,"[5, 6]",1.0,1.0,0.6568968296051025,6.740638017654419,0.25886879285516706,15.0,151.0,0.0
Y,R,"[5, 7]",1.0,2.0,0.4120750427246094,1.979923963546753,0.5718808966339103,15.0,152.0,0.0
Y,R,"[5, 8]",1.0,3.0,0.3075120449066162,1.8573579788208008,0.5624539460448604,15.0,153.0,0.0
G,D,"[6, 8]",1.0,4.0,0.4168589115142822,2.031672954559326,0.6107661397188169,15.0,154.0,0.0
Y,R,"[6, 9]",1.0,5.0,0.3246190547943115,1.7238328456878662,0.40140139292959925,15.0,155.0,0.0
Y,R,"[6, 10]",1.0,6.0,0.5067651271820068,2.1117868423461914,0.6129411516284773,15.0,156.0,0.0
R,U,"[5, 10]",1.0,7.0,0.4893639087677002,1.8032948970794678,0.2996875066300033,15.0,157.0,0.0
R,U,"[4, 10]",1.0,8.0,0.44318509101867676,2.101928949356079,0.651335847898209,15.0,158.0,0.0
B,L,"[4, 9]",1.0,9.0,0.29729509353637695,1.8989291191101074,0.6002684154273751,15.0,159.0,0.0
R,U,"[3, 9]",1.0,10.0,0.4353020191192627,1.9544410705566406,0.5214226897402303,15.0,160.0,0.0
,,"(6, 6)",,,,,,,,
R,U,"[5, 6]",1.0,1.0,0.8985841274261475,3.3639700412750244,0.6019497735179341,16.0,161.0,0.0
Y,R,"[5, 7]",1.0,2.0,0.33453893661499023,1.6033320426940918,0.272145084458659,16.0,162.0,0.0
Y,R,"[5, 8]",1.0,3.0,0.5954060554504395,2.0466599464416504,0.4517782035314137,16.0,163.0,0.0
G,D,"[6, 8]",1.0,4.0,0.41242384910583496,2.1635239124298096,0.7483685353394083,16.0,164.0,0.0
Y,R,"[6, 9]",1.0,5.0,0.24677300453186035,1.5893747806549072,0.33811340929378014,16.0,165.0,0.0
Y,R,"[6, 10]",1.0,6.0,0.5141489505767822,2.0469679832458496,0.5348023508189352,16.0,166.0,0.0
R,U,"[5, 10]",1.0,7.0,0.41339111328125,1.9880211353302002,0.5727515592896673,16.0,167.0,0.0
R,U,"[4, 10]",1.0,8.0,0.28001904487609863,2.017191171646118,0.7397073067944151,16.0,168.0,0.0
B,L,"[4, 9]",1.0,9.0,0.3865218162536621,1.8767180442810059,0.4998443638605034,16.0,169.0,0.0
R,U,"[3, 9]",1.0,10.0,0.490947961807251,1.9041359424591064,0.404006992890871,16.0,170.0,0.0
,,"(6, 6)",,,,,,,,
R,U,"[5, 6]",1.0,1.0,0.708806037902832,3.2293450832366943,0.4333705132900924,17.0,171.0,0.0
Y,R,"[5, 7]",1.0,2.0,0.4546499252319336,2.050503969192505,0.6001935700287035,17.0,172.0,0.0
Y,R,"[5, 8]",1.0,3.0,0.32171201705932617,1.9190349578857422,0.5859548054356054,17.0,173.0,0.0
G,D,"[6, 8]",1.0,4.0,0.36493992805480957,1.91972017288208,0.5555677085077608,17.0,174.0,0.0
Y,R,"[6, 9]",1.0,5.0,0.5162630081176758,2.034698963165283,0.5236372064563755,17.0,175.0,0.0
Y,R,"[6, 10]",1.0,6.0,0.5319299697875977,2.194314956665039,0.6680564578954757,17.0,176.0,0.0
R,U,"[5, 10]",1.0,7.0,0.4172070026397705,2.074634075164795,0.6589204051579245,17.0,177.0,0.0
R,U,"[4, 10]",1.0,8.0,0.2942519187927246,1.9785141944885254,0.6875007944804103,17.0,178.0,0.0
B,L,"[4, 9]",1.0,9.0,0.3119189739227295,1.7840120792388916,0.47156170159369687,17.0,179.0,0.0
R,U,"[3, 9]",1.0,10.0,0.39647793769836426,1.9044029712677002,0.5092714937614955,17.0,180.0,0.0
,,"(6, 6)",,,,,,,,
R,U,"[5, 6]",1.0,1.0,0.5979058742523193,3.5100650787353516,0.7022794079734049,18.0,181.0,0.0
Y,R,"[5, 7]",1.0,2.0,0.3288419246673584,1.8349850177764893,0.5041360360786411,18.0,182.0,0.0
Y,R,"[5, 8]",1.0,3.0,0.42546701431274414,1.6837360858917236,0.25476392635194905,18.0,183.0,0.0
G,D,"[6, 8]",1.0,4.0,0.6039690971374512,2.0337510108947754,0.43812105507838933,18.0,184.0,0.0
Y,R,"[6, 9]",1.0,5.0,0.3679490089416504,1.8876008987426758,0.5256430562565477,18.0,185.0,0.0
Y,R,"[6, 10]",1.0,6.0,0.3794519901275635,2.041409969329834,0.6669301180442947,18.0,186.0,0.0
R,U,"[5, 10]",1.0,7.0,0.2935750484466553,1.7775390148162842,0.47794212620929605,18.0,187.0,0.0
R,U,"[4, 10]",1.0,8.0,0.35575199127197266,1.9322459697723389,0.5933637232257334,18.0,188.0,0.0
B,L,"[4, 9]",1.0,9.0,0.6164929866790771,1.9719531536102295,0.36546373777928415,18.0,189.0,0.0
R,U,"[3, 9]",1.0,10.0,0.42707204818725586,1.8816051483154297,0.4469157808125603,18.0,190.0,0.0
,,"(6, 6)",,,,,,,,
R,U,"[5, 6]",1.0,1.0,0.7831580638885498,3.2765610218048096,0.45669193648688783,19.0,191.0,0.0
Y,R,"[5, 7]",1.0,2.0,0.315993070602417,1.9964570999145508,0.6862153705775249,19.0,192.0,0.0
Y,R,"[5, 8]",1.0,3.0,0.7161791324615479,2.3501601219177246,0.636333427639064,19.0,193.0,0.0
G,D,"[6, 8]",1.0,4.0,0.4920191764831543,2.065150022506714,0.5681740972320182,19.0,194.0,0.0
Y,R,"[6, 9]",1.0,5.0,0.49728918075561523,1.9601290225982666,0.4616969936757512,19.0,195.0,0.0
Y,R,"[6, 10]",1.0,6.0,0.5102701187133789,2.238987922668457,0.7335983356751159,19.0,196.0,0.0
R,U,"[5, 10]",1.0,7.0,0.31035494804382324,1.9338078498840332,0.6175344522274937,19.0,197.0,0.0
R,U,"[4, 10]",1.0,8.0,0.2739989757537842,1.5567889213562012,0.27452159582131896,19.0,198.0,0.0
B,L,"[4, 9]",1.0,9.0,0.7539949417114258,2.4823501110076904,0.7398173264123924,19.0,199.0,0.0
R,U,"[3, 9]",1.0,10.0,0.22461915016174316,1.5569138526916504,0.33040804748448416,19.0,200.0,0.0
,,"(6, 6)",,,,,,,,
R,U,"[5, 6]",1.0,1.0,0.6981868743896484,3.8909378051757812,0.2712778893722441,20.0,201.0,0.0
Y,R,"[5, 7]",1.0,2.0,0.2793760299682617,1.877439022064209,0.5983184476169779,20.0,202.0,0.0
Y,R,"[5, 8]",1.0,3.0,0.3121809959411621,2.055180072784424,0.736659760329092,20.0,203.0,0.0
G,D,"[6, 8]",1.0,4.0,0.38640403747558594,1.6337459087371826,0.2541261354941461,20.0,204.0,0.0
Y,R,"[6, 9]",1.0,5.0,0.4568290710449219,1.9385428428649902,0.4924128293771124,20.0,205.0,0.0
Y,R,"[6, 10]",1.0,6.0,0.3395230770111084,1.6832940578460693,0.34251347268923965,20.0,206.0,0.0
R,U,"[5, 10]",1.0,7.0,0.561204195022583,2.0768520832061768,0.51909638522424,20.0,207.0,0.0
R,U,"[4, 10]",1.0,8.0,0.5628430843353271,1.9231700897216797,0.35902942266905263,20.0,208.0,0.0
B,L,"[4, 9]",1.0,9.0,0.499114990234375,1.8450441360473633,0.3540392617063707,20.0,209.0,0.0
R,U,"[3, 9]",1.0,10.0,0.42611098289489746,2.0456900596618652,0.6161055204091797,20.0,210.0,0.0
,,"(6, 6)",,,,,,,,
R,U,"[5, 6]",1.0,1.0,0.7559950351715088,3.792479991912842,0.3919960565628012,21.0,211.0,0.0
Y,R,"[5, 7]",1.0,2.0,0.23467588424682617,1.6583240032196045,0.4334766358819297,21.0,212.0,0.0
Y,R,"[5, 8]",1.0,3.0,0.274507999420166,1.9781560897827148,0.6947531958436145,21.0,213.0,0.0
G,D,"[6, 8]",1.0,4.0,0.3514370918273926,1.871182918548584,0.5326190789085583,21.0,214.0,0.0
Y,R,"[6, 9]",1.0,5.0,0.25708699226379395,1.8064520359039307,0.539149305165143,21.0,215.0,0.0
Y,R,"[6, 10]",1.0,6.0,0.24108099937438965,1.897914171218872,0.6534253347504511,21.0,216.0,0.0
R,U,"[5, 10]",1.0,7.0,0.3150501251220703,1.6568751335144043,0.34397804283810623,21.0,217.0,0.0
R,U,"[4, 10]",1.0,8.0,0.3780088424682617,1.7531449794769287,0.38036808874518674,21.0,218.0,0.0
B,L,"[4, 9]",1.0,9.0,0.5293159484863281,2.1017258167266846,0.5651380330749591,21.0,219.0,0.0
R,U,"[3, 9]",1.0,10.0,0.32731103897094727,1.9881370067596436,0.6531505786221283,21.0,220.0,0.0
,,"(6, 6)",,,,,,,,
R,U,"[5, 6]",1.0,1.0,0.8427340984344482,4.032132148742676,0.6352997146089681,22.0,221.0,0.0
Y,R,"[5, 7]",1.0,2.0,0.279649019241333,1.9455580711364746,0.664071540407399,22.0,222.0,0.0
Y,R,"[5, 8]",1.0,3.0,0.22658419609069824,1.8010549545288086,0.565117456614574,22.0,223.0,0.0
G,D,"[6, 8]",1.0,4.0,0.2848339080810547,1.7068719863891602,0.42213439495840266,22.0,224.0,0.0
Y,R,"[6, 9]",1.0,5.0,0.49060487747192383,2.193897008895874,0.6989110521804967,22.0,225.0,0.0
Y,R,"[6, 10]",1.0,6.0,0.2835719585418701,1.8050799369812012,0.5208633092671605,22.0,226.0,0.0
R,U,"[5, 10]",1.0,7.0,0.2995150089263916,1.568249225616455,0.27266287272841877,22.0,227.0,0.0
R,U,"[4, 10]",1.0,8.0,0.3438758850097656,1.8806800842285156,0.5363359870012823,22.0,228.0,0.0
B,L,"[4, 9]",1.0,9.0,0.3074369430541992,1.9776649475097656,0.6637639699162232,22.0,229.0,0.0
R,U,"[3, 9]",1.0,10.0,0.2131810188293457,1.7120170593261719,0.49259636119600997,22.0,230.0,0.0
,,"(6, 6)",,,,,,,,
R,U,"[5, 6]",1.0,1.0,0.48688220977783203,11.998198986053467,0.7239591520519268,23.0,231.0,0.0
Y,R,"[5, 7]",1.0,2.0,0.2880871295928955,1.5635578632354736,0.28752218388886164,23.0,232.0,0.0
Y,R,"[5, 8]",1.0,3.0,0.2566380500793457,1.777890920639038,0.5152378340207076,23.0,233.0,0.0
G,D,"[6, 8]",1.0,4.0,0.24920201301574707,1.6125218868255615,0.36101959643999015,23.0,234.0,0.0
Y,R,"[6, 9]",1.0,5.0,0.1880030632019043,1.8332300186157227,0.6609852117725443,23.0,235.0,0.0
Y,R,"[6, 10]",1.0,6.0,0.22793197631835938,1.595149040222168,0.3727303821300106,23.0,236.0,0.0
R,U,"[5, 10]",1.0,7.0,0.357698917388916,1.638375997543335,0.27770097289658374,23.0,237.0,0.0
R,U,"[4, 10]",1.0,8.0,0.43447184562683105,1.8742220401763916,0.451821749287254,23.0,238.0,0.0
B,L,"[4, 9]",1.0,9.0,0.34701108932495117,1.6212520599365234,0.27316594516903075,23.0,239.0,0.0
R,U,"[3, 9]",1.0,10.0,0.44249701499938965,1.9978578090667725,0.5539603854969708,23.0,240.0,0.0
,,"(6, 6)",,,,,,,,
R,U,"[5, 6]",1.0,1.0,0.605064868927002,2.6593730449676514,0.28027369913070577,24.0,241.0,0.0
Y,R,"[5, 7]",1.0,2.0,0.5706400871276855,2.247157096862793,0.6770033712382142,24.0,242.0,0.0
Y,R,"[5, 8]",1.0,3.0,0.3245420455932617,1.7665910720825195,0.443682570510095,24.0,243.0,0.0
G,D,"[6, 8]",1.0,4.0,0.408599853515625,2.119670867919922,0.7131360562949318,24.0,244.0,0.0
Y,R,"[6, 9]",-1.0,4.0,0.04486703872680664,5.770442008972168,0.6501955214155181,24.0,245.0,0.0
Y,R,"[6, 10]",1.0,5.0,0.3685641288757324,1.6598989963531494,0.29369188758412357,24.0,246.0,0.0
Y,R,"[6, 11]",0.0,5.0,0.4605879783630371,2.0460569858551025,0.589431440348728,24.0,247.0,0.0
R,U,"[5, 11]",0.0,5.0,0.27654600143432617,1.9330430030822754,0.6556601250172052,24.0,248.0,0.0
R,U,"[4, 11]",0.0,5.0,0.3071880340576172,1.8032751083374023,0.4923885235614278,24.0,249.0,0.0
B,L,"[4, 10]",1.0,6.0,0.536113977432251,2.0678820610046387,0.5434662076516583,24.0,250.0,0.0
,,"(6, 6)",,,,,,,,
R,U,"[5, 6]",1.0,1.0,0.5928859710693359,5.724542140960693,0.5012468444379847,25.0,251.0,0.0
Y,R,"[5, 7]",1.0,2.0,0.4301331043243408,1.8990449905395508,0.4668805944031841,25.0,252.0,0.0
Y,R,"[5, 8]",1.0,3.0,0.5632731914520264,2.2681479454040527,0.7014119614066976,25.0,253.0,0.0
G,D,"[6, 8]",1.0,4.0,0.5534250736236572,1.9082891941070557,0.3601859881587331,25.0,254.0,0.0
Y,R,"[6, 9]",1.0,5.0,0.5516130924224854,2.228877067565918,0.6884552957413232,25.0,255.0,0.0
Y,R,"[6, 10]",1.0,6.0,0.38004088401794434,2.05253005027771,0.6743347144126433,25.0,256.0,0.0
R,U,"[5, 10]",1.0,7.0,0.8290209770202637,2.2150230407714844,0.3894694538012901,25.0,257.0,0.0
R,U,"[4, 10]",1.0,8.0,0.7113831043243408,2.1460108757019043,0.435403108544493,25.0,258.0,0.0
B,L,"[4, 9]",1.0,9.0,0.5654339790344238,1.883227825164795,0.31864257475535385,25.0,259.0,0.0
R,U,"[3, 9]",1.0,10.0,0.4528999328613281,1.8662497997283936,0.418223164783598,25.0,260.0,0.0
,,"(6, 6)",,,,,,,,
R,U,"[5, 6]",1.0,1.0,0.8373138904571533,3.8357908725738525,0.27069400332550936,26.0,261.0,0.0
Y,R,"[5, 7]",1.0,2.0,0.3719940185546875,1.66703200340271,0.3041659922230956,26.0,262.0,0.0
Y,R,"[5, 8]",1.0,3.0,0.33429908752441406,1.8532960414886475,0.5240040603186111,26.0,263.0,0.0
G,D,"[6, 8]",1.0,4.0,0.478269100189209,2.0404980182647705,0.5644463360165529,26.0,264.0,0.0
Y,R,"[6, 9]",1.0,5.0,0.4622771739959717,1.96685791015625,0.49794420267190825,26.0,265.0,0.0
Y,R,"[6, 10]",1.0,6.0,0.38361406326293945,2.047037124633789,0.6614307695969702,26.0,266.0,0.0
R,U,"[5, 10]",-1.0,6.0,0.09680414199829102,5.555262088775635,0.40003622216091694,26.0,267.0,0.0
R,U,"[4, 10]",1.0,7.0,0.4966270923614502,1.8508079051971436,0.3509378505023468,26.0,268.0,0.0
R,U,"[3, 10]",0.0,7.0,0.4874730110168457,2.004354953765869,0.5217220320302973,26.0,269.0,0.0
B,L,"[3, 9]",1.0,8.0,0.3045010566711426,1.9071550369262695,0.6125364615944784,26.0,270.0,0.0
,,"(6, 6)",,,,,,,,
R,U,"[5, 6]",1.0,1.0,0.5576400756835938,8.011099100112915,0.6728275664918155,27.0,271.0,0.0
Y,R,"[5, 7]",1.0,2.0,0.8357651233673096,2.5502960681915283,0.7229938758323096,27.0,272.0,0.0
Y,R,"[5, 8]",1.0,3.0,0.4107799530029297,1.8389050960540771,0.42889698618369937,27.0,273.0,0.0
G,D,"[6, 8]",1.0,4.0,0.715919017791748,2.0980520248413086,0.37692947697976725,27.0,274.0,0.0
Y,R,"[6, 9]",1.0,5.0,0.707597017288208,2.17639422416687,0.4698342377620036,27.0,275.0,0.0
Y,R,"[6, 10]",1.0,6.0,0.6940999031066895,2.143807888031006,0.44695856050074645,27.0,276.0,0.0
R,U,"[5, 10]",1.0,7.0,0.5420620441436768,2.295132875442505,0.7417389325804373,27.0,277.0,0.0
R,U,"[4, 10]",-2.0,7.0,1.0498480796813965,2.384613037109375,0.35989188508249736,27.0,278.0,0.0
R,U,"[3, 10]",0.0,7.0,0.41857194900512695,1.7749841213226318,0.36817031671620315,27.0,279.0,0.0
B,L,"[3, 9]",1.0,8.0,0.5040059089660645,1.9175269603729248,0.41891321912858154,27.0,280.0,0.0
,,"(6, 6)",,,,,,,,
R,U,"[5, 6]",1.0,1.0,0.5080349445343018,2.7525830268859863,0.43818372380850856,28.0,281.0,0.0
Y,R,"[5, 7]",1.0,2.0,0.358335018157959,1.835766077041626,0.47385411626000534,28.0,282.0,0.0
Y,R,"[5, 8]",1.0,3.0,0.404386043548584,1.9590659141540527,0.5660930580326118,28.0,283.0,0.0
G,D,"[6, 8]",1.0,4.0,0.44730210304260254,1.7213292121887207,0.2710087791577329,28.0,284.0,0.0
Y,R,"[6, 9]",1.0,5.0,0.3866250514984131,1.9176759719848633,0.5382639242062133,28.0,285.0,0.0
Y,R,"[6, 10]",1.0,6.0,0.3219759464263916,1.8203928470611572,0.49209766873414523,28.0,286.0,0.0
R,U,"[5, 10]",1.0,7.0,0.4002089500427246,1.8208050727844238,0.42951591473473805,28.0,287.0,0.0
R,U,"[4, 10]",1.0,8.0,0.3600790500640869,1.8360989093780518,0.46553836771350554,28.0,288.0,0.0
B,L,"[4, 9]",1.0,9.0,0.6765449047088623,2.146845817565918,0.4623941734167075,28.0,289.0,0.0
R,U,"[3, 9]",1.0,10.0,0.35152602195739746,2.010103940963745,0.6555815032094452,28.0,290.0,0.0
,,"(6, 6)",,,,,,,,
R,U,"[5, 6]",1.0,1.0,0.8276691436767578,4.735534906387329,0.6575466012525613,29.0,291.0,0.0
Y,R,"[5, 7]",1.0,2.0,0.2901449203491211,1.6526901721954346,0.36059499206022416,29.0,292.0,0.0
Y,R,"[5, 8]",1.0,3.0,0.43117594718933105,1.941349983215332,0.5183917217016063,29.0,293.0,0.0
G,D,"[6, 8]",1.0,4.0,0.5261311531066895,2.087402820587158,0.555688686178244,29.0,294.0,0.0
Y,R,"[6, 9]",1.0,5.0,0.31780004501342773,1.737290859222412,0.42638701971481163,29.0,295.0,0.0
Y,R,"[6, 10]",1.0,6.0,0.34242701530456543,1.8980638980865479,0.5576087678986579,29.0,296.0,0.0
R,U,"[5, 10]",1.0,7.0,0.1495060920715332,1.670785903930664,0.5283326312082688,29.0,297.0,0.0
R,U,"[4, 10]",1.0,8.0,0.266510009765625,1.6989760398864746,0.4440605241005758,29.0,298.0,0.0
B,L,"[4, 9]",-2.0,8.0,1.1688470840454102,2.787385940551758,0.6643849281105042,29.0,299.0,0.0
B,L,"[4, 8]",0.0,8.0,0.25169801712036133,1.7944209575653076,0.542265145194629,29.0,300.0,0.0
,,"(6, 6)",,,,,,,,
R,U,"[5, 6]",1.0,1.0,0.7431588172912598,3.3859050273895264,0.4282322360728163,30.0,301.0,0.0
Y,R,"[5, 7]",1.0,2.0,0.3280010223388672,1.8950929641723633,0.5732087438239138,30.0,302.0,0.0
Y,R,"[5, 8]",1.0,3.0,0.2479560375213623,1.789391040802002,0.54590129201018,30.0,303.0,0.0
G,D,"[6, 8]",1.0,4.0,0.35002708435058594,1.8624799251556396,0.508337656511887,30.0,304.0,0.0
Y,R,"[6, 9]",1.0,5.0,0.3749849796295166,1.7801849842071533,0.40522047966753927,30.0,305.0,0.0
Y,R,"[6, 10]",1.0,6.0,0.2509429454803467,1.6673879623413086,0.42251680878848186,30.0,306.0,0.0
R,U,"[5, 10]",1.0,7.0,0.4411430358886719,1.8914082050323486,0.4472446621846004,30.0,307.0,0.0
R,U,"[4, 10]",1.0,8.0,0.3011009693145752,1.7645001411437988,0.46157258659781214,30.0,308.0,0.0
B,L,"[4, 9]",1.0,9.0,0.4739091396331787,2.091081142425537,0.6191273642691222,30.0,309.0,0.0
R,U,"[3, 9]",1.0,10.0,0.39089393615722656,2.131762981414795,0.7341615517710852,30.0,310.0,0.0
,,"(6, 6)",,,,,,,,
R,U,"[5, 6]",1.0,1.0,0.6078529357910156,3.007073163986206,0.524545010499512,31.0,311.0,0.0
Y,R,"[5, 7]",1.0,2.0,0.25457191467285156,1.940364122390747,0.6985479562549289,31.0,312.0,0.0
Y,R,"[5, 8]",1.0,3.0,0.3385169506072998,1.9498159885406494,0.6146302474790792,31.0,313.0,0.0
G,D,"[6, 8]",1.0,4.0,0.5655181407928467,1.874695062637329,0.30628243803492267,31.0,314.0,0.0
Y,R,"[6, 9]",1.0,5.0,0.41583991050720215,1.8919529914855957,0.4812400007058886,31.0,315.0,0.0
Y,R,"[6, 10]",1.0,6.0,0.5330550670623779,1.9925007820129395,0.45715824782523595,31.0,316.0,0.0
R,U,"[5, 10]",1.0,7.0,0.6234920024871826,1.9203100204467773,0.29420289501952746,31.0,317.0,0.0
R,U,"[4, 10]",1.0,8.0,0.4298980236053467,1.7302520275115967,0.30767878924896636,31.0,318.0,0.0
B,L,"[4, 9]",1.0,9.0,0.544471025466919,1.9407029151916504,0.3982526587954333,31.0,319.0,0.0
R,U,"[3, 9]",1.0,10.0,0.37744808197021484,1.9760618209838867,0.5907163207362205,31.0,320.0,0.0
,,"(6, 6)",,,,,,,,
R,U,"[5, 6]",1.0,1.0,0.49506211280822754,4.811215877532959,0.5519090216799876,32.0,321.0,0.0
Y,R,"[5, 7]",1.0,2.0,0.30624890327453613,1.8697409629821777,0.5549440669488221,32.0,322.0,0.0
Y,R,"[5, 8]",1.0,3.0,0.3644068241119385,2.0435118675231934,0.6815377260074216,32.0,323.0,0.0
G,D,"[6, 8]",1.0,4.0,0.43835997581481934,1.774219036102295,0.3393820683553257,32.0,324.0,0.0
Y,R,"[6, 9]",1.0,5.0,0.4307739734649658,1.9618511199951172,0.534276458841676,32.0,325.0,0.0
Y,R,"[6, 10]",1.0,6.0,0.30699992179870605,1.8874289989471436,0.5716502305468348,32.0,326.0,0.0
R,U,"[5, 10]",1.0,7.0,0.3446941375732422,1.8536550998687744,0.5087861760586398,32.0,327.0,0.0
R,U,"[4, 10]",1.0,8.0,0.4246711730957031,1.7850110530853271,0.3604396141855849,32.0,328.0,0.0
B,L,"[4, 9]",1.0,9.0,0.46729493141174316,1.9581999778747559,0.5019101820554797,32.0,329.0,0.0
R,U,"[3, 9]",1.0,10.0,0.5589048862457275,2.1700668334960938,0.6050820547854084,32.0,330.0,0.0
,,"(6, 6)",,,,,,,,
R,U,"[5, 6]",1.0,1.0,0.5257449150085449,3.6951820850372314,0.4169255498464631,33.0,331.0,0.0
Y,R,"[5, 7]",1.0,2.0,0.32990002632141113,2.080368995666504,0.7470109018565612,33.0,332.0,0.0
Y,R,"[5, 8]",1.0,3.0,0.6225540637969971,1.9244439601898193,0.28854173575803693,33.0,333.0,0.0
G,D,"[6, 8]",1.0,4.0,0.6609129905700684,2.2264750003814697,0.5647102790925362,33.0,334.0,0.0
Y,R,"[6, 9]",1.0,5.0,0.38956689834594727,2.0250720977783203,0.6229687783318345,33.0,335.0,0.0
Y,R,"[6, 10]",1.0,6.0,0.45789003372192383,2.0870230197906494,0.6269083302159414,33.0,336.0,0.0
R,U,"[5, 10]",1.0,7.0,0.40346193313598633,1.640009880065918,0.2502409467508227,33.0,337.0,0.0
R,U,"[4, 10]",1.0,8.0,0.6149358749389648,2.3605802059173584,0.7436471837929274,33.0,338.0,0.0
B,L,"[4, 9]",1.0,9.0,0.55253005027771,1.9599730968475342,0.4205961639537939,33.0,339.0,0.0
R,U,"[3, 9]",1.0,10.0,0.48908019065856934,2.093580961227417,0.5972256193325904,33.0,340.0,0.0
,,"(6, 6)",,,,,,,,
R,U,"[5, 6]",1.0,1.0,0.4529540538787842,4.178302049636841,0.7424778532300373,34.0,341.0,0.0
Y,R,"[5, 7]",1.0,2.0,0.27469396591186523,1.8404109477996826,0.5658468313223194,34.0,342.0,0.0
Y,R,"[5, 8]",1.0,3.0,0.41312313079833984,1.9353141784667969,0.5180627744584181,34.0,343.0,0.0
G,D,"[6, 8]",1.0,4.0,0.6959569454193115,1.9690830707550049,0.270312078847002,34.0,344.0,0.0
Y,R,"[6, 9]",1.0,5.0,0.6151320934295654,2.148991107940674,0.535766782740726,34.0,345.0,0.0
Y,R,"[6, 10]",1.0,6.0,0.31006908416748047,1.7755241394042969,0.4612671482816255,34.0,346.0,0.0
R,U,"[5, 10]",1.0,7.0,0.7394030094146729,2.047589063644409,0.30891410588914475,34.0,347.0,0.0
R,U,"[4, 10]",1.0,8.0,0.37343311309814453,1.647881031036377,0.2734651308733015,34.0,348.0,0.0
B,L,"[4, 9]",1.0,9.0,0.5954108238220215,1.9999370574951172,0.40659563531644155,34.0,349.0,0.0
R,U,"[3, 9]",1.0,10.0,0.41736292839050293,1.849769115447998,0.43966766345641906,34.0,350.0,0.0
,,"(6, 6)",,,,,,,,
R,U,"[5, 6]",1.0,1.0,0.5255379676818848,4.716300964355469,0.4558527854482572,35.0,351.0,0.0
Y,R,"[5, 7]",1.0,2.0,0.3016531467437744,1.903601884841919,0.6091440359228428,35.0,352.0,0.0
Y,R,"[5, 8]",1.0,3.0,0.29064297676086426,1.7723510265350342,0.4815863210132917,35.0,353.0,0.0
G,D,"[6, 8]",1.0,4.0,0.3752880096435547,1.730971097946167,0.34605852936207393,35.0,354.0,0.0
Y,R,"[6, 9]",1.0,5.0,0.37990689277648926,1.8751111030578613,0.4876475835145262,35.0,355.0,0.0
Y,R,"[6, 10]",1.0,6.0,0.3092501163482666,1.6585111618041992,0.34622874049385033,35.0,356.0,0.0
R,U,"[5, 10]",1.0,7.0,0.43560099601745605,1.8925321102142334,0.45527136211438646,35.0,357.0,0.0
R,U,"[4, 10]",1.0,8.0,0.3824341297149658,1.6317319869995117,0.25373532689705575,35.0,358.0,0.0
B,L,"[4, 9]",1.0,9.0,0.4458901882171631,1.739434003829956,0.29311131488640263,35.0,359.0,0.0
R,U,"[3, 9]",1.0,10.0,0.34804487228393555,1.647118091583252,0.3067457920459903,35.0,360.0,0.0
,,"(6, 6)",,,,,,,,
R,U,"[5, 6]",1.0,1.0,0.5868299007415771,3.5130951404571533,0.5196816528154151,36.0,361.0,0.0
Y,R,"[5, 7]",1.0,2.0,0.3149600028991699,2.040018081665039,0.7261216077457049,36.0,362.0,0.0
Y,R,"[5, 8]",1.0,3.0,0.27054715156555176,1.6644041538238525,0.4074334719050626,36.0,363.0,0.0
G,D,"[6, 8]",1.0,4.0,0.5117778778076172,1.8425259590148926,0.3333410197494822,36.0,364.0,0.0
Y,R,"[6, 9]",1.0,5.0,0.46300792694091797,1.7985279560089111,0.331837626652474,36.0,365.0,0.0
Y,R,"[6, 10]",1.0,6.0,0.518779993057251,1.98850417137146,0.47002067305565337,36.0,366.0,0.0
R,U,"[5, 10]",1.0,7.0,0.37844014167785645,1.9776959419250488,0.5977027471992782,36.0,367.0,0.0
B,L,"[5, 9]",0.0,7.0,0.334230899810791,1.6737868785858154,0.33832465484542334,36.0,368.0,0.0
B,L,"[5, 8]",0.0,7.0,0.9474670886993408,2.2177960872650146,0.2727339837867001,36.0,369.0,0.0
R,U,"[4, 8]",0.0,7.0,0.41691112518310547,1.8183889389038086,0.40772545725207704,36.0,370.0,0.0
,,"(6, 6)",,,,,,,,
R,U,"[5, 6]",1.0,1.0,0.5865700244903564,3.297765016555786,0.2887035218689425,37.0,371.0,0.0
Y,R,"[5, 7]",1.0,2.0,0.5761141777038574,1.8864209651947021,0.308481070681716,37.0,372.0,0.0
Y,R,"[5, 8]",1.0,3.0,0.6336560249328613,1.895035982131958,0.2701470482535817,37.0,373.0,0.0
G,D,"[6, 8]",1.0,4.0,0.787708044052124,2.268296003341675,0.48818572256179693,37.0,374.0,0.0
Y,R,"[6, 9]",1.0,5.0,0.42133498191833496,1.961042881011963,0.5491593688388927,37.0,375.0,0.0
Y,R,"[6, 10]",1.0,6.0,0.3675651550292969,2.074023962020874,0.7062957228406095,37.0,376.0,0.0
R,U,"[5, 10]",1.0,7.0,0.2918519973754883,1.945932149887085,0.6522664162222198,37.0,377.0,0.0
R,U,"[4, 10]",1.0,8.0,0.4181370735168457,1.7955689430236816,0.38135134485249444,37.0,378.0,0.0
B,L,"[4, 9]",1.0,9.0,0.6148829460144043,2.2309730052948,0.6120952913201355,37.0,379.0,0.0
R,U,"[3, 9]",1.0,10.0,0.36063098907470703,1.7496731281280518,0.37858167449061636,37.0,380.0,0.0
,,"(6, 6)",,,,,,,,
R,U,"[5, 6]",1.0,1.0,0.48427891731262207,3.4858670234680176,0.48102656629779866,38.0,381.0,0.0
Y,R,"[5, 7]",1.0,2.0,0.22191119194030762,1.6435739994049072,0.4244989150766215,38.0,382.0,0.0
Y,R,"[5, 8]",1.0,3.0,0.2766129970550537,1.8909480571746826,0.615140259404638,38.0,383.0,0.0
G,D,"[6, 8]",1.0,4.0,0.3965470790863037,2.0190482139587402,0.6175233742092231,38.0,384.0,0.0
Y,R,"[6, 9]",1.0,5.0,0.2539050579071045,1.7210180759429932,0.4720130830797966,38.0,385.0,0.0
Y,R,"[6, 10]",1.0,6.0,0.2552070617675781,1.5442790985107422,0.28305054193272505,38.0,386.0,0.0
R,U,"[5, 10]",1.0,7.0,0.47214317321777344,2.1217620372772217,0.6544494718664285,38.0,387.0,0.0
R,U,"[4, 10]",1.0,8.0,0.28224897384643555,1.6716217994689941,0.39290472598363146,38.0,388.0,0.0
B,L,"[4, 9]",1.0,9.0,0.5580410957336426,1.96464204788208,0.4075293329699163,38.0,389.0,0.0
R,U,"[3, 9]",1.0,10.0,0.6511189937591553,2.1769769191741943,0.5343421155499467,38.0,390.0,0.0
,,"(6, 6)",,,,,,,,
R,U,"[5, 6]",1.0,1.0,0.48380112648010254,4.581298828125,0.515473001722871,39.0,391.0,0.0
Y,R,"[5, 7]",1.0,2.0,0.22646093368530273,1.6821630001068115,0.4476044527936323,39.0,392.0,0.0
Y,R,"[5, 8]",1.0,3.0,0.27813005447387695,1.8822238445281982,0.5963733026690401,39.0,393.0,0.0
G,D,"[6, 8]",1.0,4.0,0.35698986053466797,2.0559518337249756,0.6855411529583441,39.0,394.0,0.0
Y,R,"[6, 9]",1.0,5.0,0.10866594314575195,1.7798399925231934,0.6653136001526722,39.0,395.0,0.0
Y,R,"[6, 10]",1.0,6.0,0.26737093925476074,2.0103371143341064,0.7424463331757718,39.0,396.0,0.0
R,U,"[5, 10]",1.0,7.0,0.32336997985839844,1.7568039894104004,0.4325098774294642,39.0,397.0,0.0
R,U,"[4, 10]",1.0,8.0,0.5306971073150635,1.9340178966522217,0.399965044276862,39.0,398.0,0.0
B,L,"[4, 9]",1.0,9.0,0.300368070602417,1.7690129280090332,0.46888088939613204,39.0,399.0,0.0
R,U,"[3, 9]",1.0,10.0,0.30671000480651855,1.8348028659820557,0.5202154741572999,39.0,400.0,0.0
,,"(6, 6)",,,,,,,,
R,U,"[5, 6]",1.0,1.0,0.6134850978851318,3.2501778602600098,0.3870354699872249,40.0,401.0,0.0
Y,R,"[5, 7]",1.0,2.0,0.32932591438293457,1.749809980392456,0.4202301880363872,40.0,402.0,0.0
Y,R,"[5, 8]",1.0,3.0,0.39330601692199707,2.071315050125122,0.6744349204477618,40.0,403.0,0.0
G,D,"[6, 8]",1.0,4.0,0.37961697578430176,1.8515708446502686,0.4762555455477709,40.0,404.0,0.0
Y,R,"[6, 9]",1.0,5.0,0.30591893196105957,1.5786559581756592,0.2884307695558153,40.0,405.0,0.0
Y,R,"[6, 10]",1.0,6.0,0.5662660598754883,2.1924331188201904,0.6303008995540087,40.0,406.0,0.0
R,U,"[5, 10]",1.0,7.0,0.5103278160095215,1.9990949630737305,0.4796254210462733,40.0,407.0,0.0
R,U,"[4, 10]",1.0,8.0,0.643265962600708,2.204645872116089,0.5508267474202109,40.0,408.0,0.0
B,L,"[4, 9]",1.0,9.0,0.542227029800415,2.2061619758605957,0.6568155703968399,40.0,409.0,0.0
R,U,"[3, 9]",1.0,10.0,0.2832059860229492,1.647475004196167,0.3712439048664047,40.0,410.0,0.0
,,"(6, 6)",,,,,,,,
R,U,"[5, 6]",1.0,1.0,0.8189749717712402,2.977565050125122,0.38203360971291606,41.0,411.0,0.0
Y,R,"[5, 7]",1.0,2.0,0.5268850326538086,2.0253710746765137,0.4905628133325707,41.0,412.0,0.0
Y,R,"[5, 8]",1.0,3.0,0.4492778778076172,1.8820979595184326,0.4393181700904812,41.0,413.0,0.0
G,D,"[6, 8]",1.0,4.0,0.5388929843902588,2.198103904724121,0.6704922128286563,41.0,414.0,0.0
Y,R,"[6, 9]",1.0,5.0,0.5257670879364014,2.0962538719177246,0.5667682980064286,41.0,415.0,0.0
Y,R,"[6, 10]",1.0,6.0,0.30579185485839844,1.5718848705291748,0.2555642989784485,41.0,416.0,0.0
R,U,"[5, 10]",1.0,7.0,0.8420100212097168,2.2349419593811035,0.39032041890137376,41.0,417.0,0.0
R,U,"[4, 10]",1.0,8.0,0.5537369251251221,2.283748149871826,0.7406259543396235,41.0,418.0,0.0
B,L,"[4, 9]",1.0,9.0,0.3464229106903076,1.678225040435791,0.3356036728141718,41.0,419.0,0.0
R,U,"[3, 9]",1.0,10.0,0.8520510196685791,2.5030667781829834,0.6548771558871094,41.0,420.0,0.0
,,"(6, 6)",,,,,,,,
R,U,"[5, 6]",1.0,1.0,0.6635029315948486,2.7543649673461914,0.7091365530444766,42.0,421.0,0.0
Y,R,"[5, 7]",1.0,2.0,0.4660630226135254,1.7569670677185059,0.29988716218891864,42.0,422.0,0.0
Y,R,"[5, 8]",1.0,3.0,0.4814751148223877,2.0694961547851562,0.5856734495019307,42.0,423.0,0.0
G,D,"[6, 8]",1.0,4.0,0.32372212409973145,1.9258649349212646,0.6113938745032572,42.0,424.0,0.0
Y,R,"[6, 9]",1.0,5.0,0.34697985649108887,1.678617000579834,0.3403114850113763,42.0,425.0,0.0
Y,R,"[6, 10]",1.0,6.0,0.4966549873352051,2.2354021072387695,0.7419413090661341,42.0,426.0,0.0
R,U,"[5, 10]",1.0,7.0,0.264240026473999,1.8362481594085693,0.5786602422558307,42.0,427.0,0.0
R,U,"[4, 10]",1.0,8.0,0.2729189395904541,1.7112910747528076,0.4396735444725611,42.0,428.0,0.0
B,L,"[4, 9]",1.0,9.0,0.44778990745544434,1.8356611728668213,0.39194950380254306,42.0,429.0,0.0
R,U,"[3, 9]",1.0,10.0,0.3592190742492676,1.8604950904846191,0.5024059684330033,42.0,430.0,0.0
,,"(6, 6)",,,,,,,,
R,U,"[5, 6]",1.0,1.0,0.5730760097503662,4.033905029296875,0.26974041359788736,43.0,431.0,0.0
Y,R,"[5, 7]",1.0,2.0,0.48810696601867676,1.8877527713775635,0.40723280549654106,43.0,432.0,0.0
Y,R,"[5, 8]",1.0,3.0,0.48596715927124023,2.0604970455169678,0.5842421443438115,43.0,433.0,0.0
G,D,"[6, 8]",1.0,4.0,0.4509239196777344,1.7179839611053467,0.26917932265912276,43.0,434.0,0.0
Y,R,"[6, 9]",1.0,5.0,0.5992069244384766,2.2842910289764404,0.6862941684114076,43.0,435.0,0.0
Y,R,"[6, 10]",1.0,6.0,0.226837158203125,1.7721080780029297,0.5421295592971663,43.0,436.0,0.0
R,U,"[5, 10]",1.0,7.0,0.42109107971191406,2.153087854385376,0.7447050555051561,43.0,437.0,0.0
R,U,"[4, 10]",1.0,8.0,0.2881169319152832,1.732146978378296,0.4604047950369778,43.0,438.0,0.0
B,L,"[4, 9]",1.0,9.0,0.3612208366394043,1.916304111480713,0.5598373459860327,43.0,439.0,0.0
R,U,"[3, 9]",1.0,10.0,0.24917292594909668,1.5683369636535645,0.32827136086137443,43.0,440.0,0.0
,,"(6, 6)",,,,,,,,
R,U,"[5, 6]",1.0,1.0,0.6247150897979736,3.110436201095581,0.4719192061332296,44.0,441.0,0.0
Y,R,"[5, 7]",1.0,2.0,0.30174803733825684,1.8487639427185059,0.5539224785440798,44.0,442.0,0.0
Y,R,"[5, 8]",1.0,3.0,0.3087499141693115,1.7533729076385498,0.4407276686199583,44.0,443.0,0.0
G,D,"[6, 8]",1.0,4.0,0.32675600051879883,1.6649370193481445,0.33904492729422236,44.0,444.0,0.0
Y,R,"[6, 9]",1.0,5.0,0.45302796363830566,2.087484121322632,0.6428038806842715,44.0,445.0,0.0
Y,R,"[6, 10]",1.0,6.0,0.34868907928466797,1.6550531387329102,0.3148237229472654,44.0,446.0,0.0
R,U,"[5, 10]",1.0,7.0,0.9480888843536377,2.4771511554718018,0.5249745088922406,44.0,447.0,0.0
R,U,"[4, 10]",1.0,8.0,0.2813689708709717,1.8739330768585205,0.5988712310004811,44.0,448.0,0.0
B,L,"[4, 9]",1.0,9.0,0.4080069065093994,1.8577890396118164,0.44016161416961075,44.0,449.0,0.0
R,U,"[3, 9]",1.0,10.0,0.32999396324157715,2.041072130203247,0.7141588972420507,44.0,450.0,0.0
,,"(6, 6)",,,,,,,,
R,U,"[5, 6]",1.0,1.0,0.5761098861694336,3.2255699634552,0.48981657004556384,45.0,451.0,0.0
Y,R,"[5, 7]",1.0,2.0,0.3013648986816406,1.9188790321350098,0.6252626421413279,45.0,452.0,0.0
Y,R,"[5, 8]",1.0,3.0,0.351639986038208,1.9284799098968506,0.5870582767020187,45.0,453.0,0.0
G,D,"[6, 8]",1.0,4.0,0.34619593620300293,2.0262649059295654,0.6797674500098877,45.0,454.0,0.0
Y,R,"[6, 9]",1.0,5.0,0.2809479236602783,1.5798540115356445,0.29339224773024675,45.0,455.0,0.0
Y,R,"[6, 10]",1.0,6.0,0.3892350196838379,1.6747181415557861,0.2847412844234353,45.0,456.0,0.0
R,U,"[5, 10]",1.0,7.0,0.6489009857177734,2.3473260402679443,0.698274899512041,45.0,457.0,0.0
R,U,"[4, 10]",1.0,8.0,0.3768320083618164,2.078346014022827,0.6931491527311433,45.0,458.0,0.0
B,L,"[4, 9]",1.0,9.0,0.33951783180236816,1.8602869510650635,0.5202965696207256,45.0,459.0,0.0
R,U,"[3, 9]",1.0,10.0,0.4405238628387451,1.940737009048462,0.5109833186256616,45.0,460.0,0.0
,,"(6, 6)",,,,,,,,
R,U,"[5, 6]",1.0,1.0,0.5191068649291992,3.014582872390747,0.6420438560098042,46.0,461.0,0.0
Y,R,"[5, 7]",1.0,2.0,0.16947388648986816,1.4547200202941895,0.29710015004055845,46.0,462.0,0.0
Y,R,"[5, 8]",1.0,3.0,0.8688149452209473,2.2507131099700928,0.3810094870526918,46.0,463.0,0.0
G,D,"[6, 8]",1.0,4.0,0.6177730560302734,1.9013421535491943,0.282318613695522,46.0,464.0,0.0
Y,R,"[6, 9]",1.0,5.0,0.6977989673614502,2.1069600582122803,0.4057396923252828,46.0,465.0,0.0
Y,R,"[6, 10]",1.0,6.0,0.3627181053161621,1.827625036239624,0.4666547595548195,46.0,466.0,0.0
R,U,"[5, 10]",1.0,7.0,0.33045411109924316,1.881004810333252,0.5474594919324386,46.0,467.0,0.0
R,U,"[4, 10]",1.0,8.0,0.3612241744995117,1.6289479732513428,0.260125883434768,46.0,468.0,0.0
B,L,"[4, 9]",1.0,9.0,0.4293859004974365,2.129714012145996,0.70650617799945,46.0,469.0,0.0
R,U,"[3, 9]",1.0,10.0,0.2312178611755371,1.5586271286010742,0.3316151513995382,46.0,470.0,0.0
,,"(6, 6)",,,,,,,,
R,U,"[5, 6]",1.0,1.0,0.5076560974121094,3.2404210567474365,0.5383943657800778,47.0,471.0,0.0
Y,R,"[5, 7]",1.0,2.0,0.30605506896972656,1.691512107849121,0.3800041858271783,47.0,472.0,0.0
Y,R,"[5, 8]",1.0,3.0,0.2900509834289551,1.595715045928955,0.29241186978123523,47.0,473.0,0.0
G,D,"[6, 8]",1.0,4.0,0.39080214500427246,1.8937709331512451,0.5026645322404971,47.0,474.0,0.0
Y,R,"[6, 9]",1.0,5.0,0.3876321315765381,1.7050530910491943,0.32437246410285275,47.0,475.0,0.0
Y,R,"[6, 10]",1.0,6.0,0.3756289482116699,1.6306719779968262,0.2551295284069783,47.0,476.0,0.0
R,U,"[5, 10]",1.0,7.0,0.5523281097412109,1.9241678714752197,0.37920699478331765,47.0,477.0,0.0
R,U,"[4, 10]",1.0,8.0,0.5315349102020264,2.0151379108428955,0.47749851102717555,47.0,478.0,0.0
B,L,"[4, 9]",1.0,9.0,0.3049800395965576,1.995147943496704,0.7057701548950989,47.0,479.0,0.0
R,U,"[3, 9]",1.0,10.0,0.26394104957580566,1.7603199481964111,0.49962386791679375,47.0,480.0,0.0
,,"(6, 6)",,,,,,,,
R,U,"[5, 6]",1.0,1.0,0.5251071453094482,2.8192899227142334,0.6852229357377402,48.0,481.0,0.0
Y,R,"[5, 7]",1.0,2.0,0.3528008460998535,1.7224829196929932,0.3746481957525415,48.0,482.0,0.0
Y,R,"[5, 8]",1.0,3.0,0.3840219974517822,1.6290690898895264,0.2538084973625097,48.0,483.0,0.0
G,D,"[6, 8]",1.0,4.0,0.6088759899139404,2.2258121967315674,0.6125334871061676,48.0,484.0,0.0
Y,R,"[6, 9]",1.0,5.0,0.35219407081604004,1.8185970783233643,0.4646108937300358,48.0,485.0,0.0
Y,R,"[6, 10]",1.0,6.0,0.21953105926513672,1.8255999088287354,0.6066165019119297,48.0,486.0,0.0
R,U,"[5, 10]",1.0,7.0,0.48337388038635254,2.0909359455108643,0.6141218065195467,48.0,487.0,0.0
R,U,"[4, 10]",1.0,8.0,0.3868751525878906,2.04227614402771,0.656404895300502,48.0,488.0,0.0
B,L,"[4, 9]",1.0,9.0,0.5564358234405518,1.9729390144348145,0.41275810634376475,48.0,489.0,0.0
G,D,"[5, 9]",0.0,9.0,0.48868799209594727,2.1356189250946045,0.6314276455085575,48.0,490.0,0.0
,,"(6, 6)",,,,,,,,
R,U,"[5, 6]",1.0,1.0,0.5568227767944336,4.098832130432129,0.5969593024880112,49.0,491.0,0.0
Y,R,"[5, 7]",1.0,2.0,0.24983787536621094,1.6986291408538818,0.44569040691110745,49.0,492.0,0.0
Y,R,"[5, 8]",1.0,3.0,0.2527329921722412,1.8841099739074707,0.6295107875540322,49.0,493.0,0.0
G,D,"[6, 8]",1.0,4.0,0.27953004837036133,1.5856609344482422,0.2988497632237695,49.0,494.0,0.0
Y,R,"[6, 9]",1.0,5.0,0.6240289211273193,2.0711240768432617,0.4364668401706299,49.0,495.0,0.0
Y,R,"[6, 10]",1.0,6.0,0.3934061527252197,1.8213319778442383,0.4243950000840944,49.0,496.0,0.0
R,U,"[5, 10]",1.0,7.0,0.4177060127258301,1.6798739433288574,0.27097458627633847,49.0,497.0,0.0
R,U,"[4, 10]",1.0,8.0,0.38928794860839844,1.6577999591827393,0.2621775349941606,49.0,498.0,0.0
B,L,"[4, 9]",1.0,9.0,0.45270800590515137,2.10551381111145,0.6505704861158526,49.0,499.0,0.0
R,U,"[3, 9]",1.0,10.0,0.3036661148071289,1.933877944946289,0.634439689876894,49.0,500.0,0.0
,,"(6, 6)",,,,,,,,
R,U,"[5, 6]",1.0,1.0,0.37871289253234863,3.924171209335327,0.5086727026326228,50.0,501.0,0.0
Y,R,"[5, 7]",1.0,2.0,0.4106411933898926,1.932386875152588,0.5241900042169425,50.0,502.0,0.0
Y,R,"[5, 8]",1.0,3.0,0.39525818824768066,1.7873458862304688,0.3950683410056333,50.0,503.0,0.0
G,D,"[6, 8]",1.0,4.0,0.618217945098877,2.2575700283050537,0.652340082906101,50.0,504.0,0.0
Y,R,"[6, 9]",1.0,5.0,0.28819918632507324,1.906290054321289,0.6251804104775729,50.0,505.0,0.0
Y,R,"[6, 10]",1.0,6.0,0.30022597312927246,1.9980590343475342,0.7064707827786597,50.0,506.0,0.0
R,U,"[5, 10]",1.0,7.0,0.37032198905944824,2.051224946975708,0.6909109970006017,50.0,507.0,0.0
R,U,"[4, 10]",1.0,8.0,0.31360912322998047,1.7930798530578613,0.4842414613886101,50.0,508.0,0.0
B,L,"[4, 9]",1.0,9.0,0.3632547855377197,1.7704849243164062,0.4047921891322821,50.0,509.0,0.0
R,U,"[3, 9]",1.0,10.0,0.42548298835754395,2.1242740154266357,0.6954419537816798,50.0,510.0,0.0
,,"(6, 6)",,,,,,,,
R,U,"[5, 6]",1.0,1.0,0.5032150745391846,3.7927019596099854,0.4882315850606602,51.0,511.0,0.0
Y,R,"[5, 7]",1.0,2.0,0.11280107498168945,1.5270838737487793,0.41521744327808163,51.0,512.0,0.0
Y,R,"[5, 8]",1.0,3.0,0.31343889236450195,1.7216718196868896,0.4036080074018435,51.0,513.0,0.0
G,D,"[6, 8]",1.0,4.0,0.41918301582336426,1.8244478702545166,0.41142400969468684,51.0,514.0,0.0
Y,R,"[6, 9]",1.0,5.0,0.8401448726654053,2.3536899089813232,0.5149093869440038,51.0,515.0,0.0
Y,R,"[6, 10]",1.0,6.0,0.3174610137939453,1.7670128345489502,0.44853634810373627,51.0,516.0,0.0
R,U,"[5, 10]",1.0,7.0,0.6357910633087158,1.9659130573272705,0.3312117412860326,51.0,517.0,0.0
R,U,"[4, 10]",1.0,8.0,0.4560871124267578,1.821084976196289,0.3522413194019385,51.0,518.0,0.0
B,L,"[4, 9]",1.0,9.0,0.49439096450805664,2.1352498531341553,0.6371654226872561,51.0,519.0,0.0
R,U,"[3, 9]",1.0,10.0,0.3289949893951416,1.8608338832855225,0.5314015333221798,51.0,520.0,0.0
,,"(6, 6)",,,,,,,,
R,U,"[5, 6]",1.0,1.0,0.5593461990356445,5.911339044570923,0.642725618318258,52.0,521.0,0.0
Y,R,"[5, 7]",1.0,2.0,0.2953300476074219,1.854828119277954,0.5639144783670217,52.0,522.0,0.0
Y,R,"[5, 8]",1.0,3.0,0.4826469421386719,2.0703089237213135,0.5842880786708708,52.0,523.0,0.0
G,D,"[6, 8]",1.0,4.0,0.2819530963897705,2.0092289447784424,0.7266276300499963,52.0,524.0,0.0
Y,R,"[6, 9]",1.0,5.0,0.13997197151184082,1.6029279232025146,0.4629828484906003,52.0,525.0,0.0
Y,R,"[6, 10]",1.0,6.0,0.4092860221862793,1.7015349864959717,0.28136381147622463,52.0,526.0,0.0
R,U,"[5, 10]",1.0,7.0,0.9433329105377197,2.29384708404541,0.34185120047465767,52.0,527.0,0.0
R,U,"[4, 10]",1.0,8.0,0.641294002532959,2.23808217048645,0.5961964292537111,52.0,528.0,0.0
B,L,"[4, 9]",1.0,9.0,0.32302284240722656,1.871074914932251,0.5340687570729243,52.0,529.0,0.0
R,U,"[3, 9]",1.0,10.0,0.2622358798980713,1.8701198101043701,0.6042127931490608,52.0,530.0,0.0
,,"(6, 6)",,,,,,,,
R,U,"[5, 6]",1.0,1.0,0.6930551528930664,3.845362901687622,0.7158837019109543,53.0,531.0,0.0
Y,R,"[5, 7]",1.0,2.0,0.2464768886566162,1.844477891921997,0.5937613133161119,53.0,532.0,0.0
Y,R,"[5, 8]",1.0,3.0,0.2701430320739746,1.8056848049163818,0.5494444205953832,53.0,533.0,0.0
G,D,"[6, 8]",1.0,4.0,0.32050299644470215,1.7329978942871094,0.4159035179757775,53.0,534.0,0.0
Y,R,"[6, 9]",1.0,5.0,0.4621250629425049,1.7575879096984863,0.2902289235261512,53.0,535.0,0.0
Y,R,"[6, 10]",1.0,6.0,0.5721628665924072,2.087959051132202,0.5113163871398887,53.0,536.0,0.0
R,U,"[5, 10]",1.0,7.0,0.38913488388061523,1.885002851486206,0.49644287518543895,53.0,537.0,0.0
R,U,"[4, 10]",1.0,8.0,0.3048222064971924,1.7465839385986328,0.42601502564041954,53.0,538.0,0.0
B,L,"[4, 9]",1.0,9.0,0.44247007369995117,1.989933967590332,0.5492508441547915,53.0,539.0,0.0
R,U,"[3, 9]",1.0,10.0,0.2974100112915039,1.6773440837860107,0.37662428967267325,53.0,540.0,0.0
,,"(6, 6)",,,,,,,,
R,U,"[5, 6]",1.0,1.0,0.42398905754089355,2.835258960723877,0.7282449291628699,54.0,541.0,0.0
Y,R,"[5, 7]",1.0,2.0,0.21717286109924316,1.5979340076446533,0.3931347132447708,54.0,542.0,0.0
Y,R,"[5, 8]",1.0,3.0,0.42538905143737793,1.892024040222168,0.4682810161282853,54.0,543.0,0.0
G,D,"[6, 8]",1.0,4.0,0.46652817726135254,1.9197571277618408,0.4547467293260532,54.0,544.0,0.0
Y,R,"[6, 9]",1.0,5.0,0.3794741630554199,1.9673540592193604,0.5885749340169304,54.0,545.0,0.0
Y,R,"[6, 10]",1.0,6.0,0.3330261707305908,2.0775210857391357,0.7491457691833051,54.0,546.0,0.0
R,U,"[5, 10]",1.0,7.0,0.36064910888671875,2.0530319213867188,0.6856285827628961,54.0,547.0,0.0
R,U,"[4, 10]",1.0,8.0,0.47869110107421875,2.0355288982391357,0.5544803494979034,54.0,548.0,0.0
B,L,"[4, 9]",1.0,9.0,0.5859849452972412,2.0083298683166504,0.4296399447886849,54.0,549.0,0.0
R,U,"[3, 9]",1.0,10.0,0.6777000427246094,2.3580739498138428,0.6707069113489416,54.0,550.0,0.0
,,"(6, 6)",,,,,,,,
R,U,"[5, 6]",1.0,1.0,0.4988248348236084,3.498955011367798,0.48644456072602693,55.0,551.0,0.0
Y,R,"[5, 7]",1.0,2.0,0.3655688762664795,1.7788188457489014,0.41527615215089136,55.0,552.0,0.0
Y,R,"[5, 8]",1.0,3.0,0.4689781665802002,2.0435729026794434,0.5753631671004931,55.0,553.0,0.0
G,D,"[6, 8]",1.0,4.0,0.43985700607299805,1.8794379234313965,0.43813146891355964,55.0,554.0,0.0
Y,R,"[6, 9]",1.0,5.0,0.3146958351135254,1.9571270942687988,0.6450914743836833,55.0,555.0,0.0
Y,R,"[6, 10]",1.0,6.0,0.45216989517211914,2.1118741035461426,0.6735301322990399,55.0,556.0,0.0
R,U,"[5, 10]",1.0,7.0,0.26787686347961426,1.7659270763397217,0.5062887849513962,55.0,557.0,0.0
R,U,"[4, 10]",1.0,8.0,0.3092329502105713,1.8736908435821533,0.5631782034003228,55.0,558.0,0.0
B,L,"[4, 9]",1.0,9.0,0.3969299793243408,1.9301960468292236,0.5266986977400685,55.0,559.0,0.0
R,U,"[3, 9]",1.0,10.0,0.574329137802124,2.2089860439300537,0.6354389520799228,55.0,560.0,0.0
,,"(6, 6)",,,,,,,,
R,U,"[5, 6]",1.0,1.0,0.5907800197601318,2.45650315284729,0.40874050515251437,56.0,561.0,0.0
Y,R,"[5, 7]",1.0,2.0,0.3964569568634033,1.712594985961914,0.32151553066108973,56.0,562.0,0.0
Y,R,"[5, 8]",1.0,3.0,0.46254611015319824,2.031705856323242,0.5695535117045948,56.0,563.0,0.0
G,D,"[6, 8]",1.0,4.0,0.3384060859680176,1.727890968322754,0.397771694181169,56.0,564.0,0.0
Y,R,"[6, 9]",1.0,5.0,0.47200989723205566,1.7468540668487549,0.277870161987525,56.0,565.0,0.0
Y,R,"[6, 10]",1.0,6.0,0.45774006843566895,2.079857110977173,0.6243411889435825,56.0,566.0,0.0
R,U,"[5, 10]",1.0,7.0,0.3885021209716797,1.8535408973693848,0.4609362872890497,56.0,567.0,0.0
R,U,"[4, 10]",1.0,8.0,0.4823880195617676,2.171097993850708,0.6985064090007651,56.0,568.0,0.0
B,L,"[4, 9]",1.0,9.0,0.2730112075805664,1.7775650024414062,0.5096209080573975,56.0,569.0,0.0
R,U,"[3, 9]",1.0,10.0,0.2615091800689697,1.9297118186950684,0.6723305536516015,56.0,570.0,0.0
,,"(6, 6)",,,,,,,,
R,U,"[5, 6]",1.0,1.0,0.5506870746612549,3.1317410469055176,0.40418273491651757,57.0,571.0,0.0
Y,R,"[5, 7]",1.0,2.0,0.38376593589782715,2.0576589107513428,0.6785428693976182,57.0,572.0,0.0
Y,R,"[5, 8]",1.0,3.0,0.2303152084350586,1.7401540279388428,0.5185507070855739,57.0,573.0,0.0
G,D,"[6, 8]",1.0,4.0,0.3136329650878906,2.0287511348724365,0.7137436794397688,57.0,574.0,0.0
Y,R,"[6, 9]",1.0,5.0,0.27433109283447266,1.9730191230773926,0.6866943302369395,57.0,575.0,0.0
Y,R,"[6, 10]",1.0,6.0,0.22703099250793457,1.5927190780639648,0.363000475759093,57.0,576.0,0.0
R,U,"[5, 10]",1.0,7.0,0.83489990234375,2.2130770683288574,0.3759520486205943,57.0,577.0,0.0
R,U,"[4, 10]",1.0,8.0,0.3526129722595215,2.0892751216888428,0.7482013866313313,57.0,578.0,0.0
B,L,"[4, 9]",1.0,9.0,0.287614107131958,1.5369701385498047,0.2522122622221271,57.0,579.0,0.0
R,U,"[3, 9]",1.0,10.0,0.5982518196105957,2.160494089126587,0.5624273613019444,57.0,580.0,0.0
,,"(6, 6)",,,,,,,,
R,U,"[5, 6]",1.0,1.0,0.3948540687561035,7.961620092391968,0.5908806486829985,58.0,581.0,0.0
Y,R,"[5, 7]",1.0,2.0,0.30559802055358887,2.017911195755005,0.7082962889919248,58.0,582.0,0.0
Y,R,"[5, 8]",1.0,3.0,0.3337841033935547,1.6433701515197754,0.31867373553634143,58.0,583.0,0.0
G,D,"[6, 8]",1.0,4.0,0.588756799697876,1.8846290111541748,0.3032383057140305,58.0,584.0,0.0
Y,R,"[6, 9]",1.0,5.0,0.5123991966247559,1.9352819919586182,0.4217124422865199,58.0,585.0,0.0
Y,R,"[6, 10]",1.0,6.0,0.5230810642242432,2.241554021835327,0.7129065709028191,58.0,586.0,0.0
R,U,"[5, 10]",1.0,7.0,0.3241231441497803,2.058573007583618,0.7214430273404957,58.0,587.0,0.0
B,L,"[5, 9]",0.0,7.0,0.28607702255249023,2.0144219398498535,0.735695867787991,58.0,588.0,0.0
B,L,"[5, 8]",0.0,7.0,0.10137796401977539,1.5877678394317627,0.49030708418751007,58.0,589.0,0.0
B,L,"[5, 7]",0.0,7.0,0.4050168991088867,1.9281280040740967,0.5184493440526785,58.0,590.0,0.0
,,"(6, 6)",,,,,,,,
R,U,"[5, 6]",1.0,1.0,0.40389585494995117,2.7808589935302734,0.5159627899348258,59.0,591.0,0.0
Y,R,"[5, 7]",1.0,2.0,0.3833651542663574,1.664802074432373,0.2809386429054889,59.0,592.0,0.0
Y,R,"[5, 8]",1.0,3.0,0.46964097023010254,1.8674371242523193,0.39842094330137845,59.0,593.0,0.0
G,D,"[6, 8]",1.0,4.0,0.5011968612670898,2.0656919479370117,0.563634895185174,59.0,594.0,0.0
Y,R,"[6, 9]",1.0,5.0,0.43235087394714355,1.963057041168213,0.5270303619265262,59.0,595.0,0.0
Y,R,"[6, 10]",1.0,6.0,0.8582940101623535,2.1859920024871826,0.32951183542250495,59.0,596.0,0.0
R,U,"[5, 10]",1.0,7.0,0.7675380706787109,2.1143970489501953,0.34378114447078384,59.0,597.0,0.0
R,U,"[4, 10]",1.0,8.0,0.7213380336761475,2.229943037033081,0.5238522360944358,59.0,598.0,0.0
B,L,"[4, 9]",1.0,9.0,0.48885607719421387,2.2104480266571045,0.7336657161858372,59.0,599.0,0.0
R,U,"[3, 9]",1.0,10.0,0.2992689609527588,1.5881879329681396,0.2888860928053647,59.0,600.0,0.0
,,"(6, 6)",,,,,,,,
R,U,"[5, 6]",1.0,1.0,0.39876389503479004,2.617219924926758,0.422629614387689,60.0,601.0,0.0
Y,R,"[5, 7]",1.0,2.0,0.5022358894348145,1.965867042541504,0.47184169847019636,60.0,602.0,0.0
Y,R,"[5, 8]",1.0,3.0,0.5025711059570312,2.042356014251709,0.5474068148832579,60.0,603.0,0.0
G,D,"[6, 8]",1.0,4.0,0.345505952835083,2.088955879211426,0.7360763760808846,60.0,604.0,0.0
Y,R,"[6, 9]",1.0,5.0,0.2941868305206299,1.8043169975280762,0.5073020758526623,60.0,605.0,0.0
Y,R,"[6, 10]",1.0,6.0,0.3262760639190674,1.9444589614868164,0.6182276300138637,60.0,606.0,0.0
R,U,"[5, 10]",1.0,7.0,0.35830187797546387,1.7537288665771484,0.38872366803597136,60.0,607.0,0.0
R,U,"[4, 10]",1.0,8.0,0.3661649227142334,2.0390360355377197,0.6775267579167017,60.0,608.0,0.0
B,L,"[4, 9]",1.0,9.0,0.32280802726745605,1.7094519138336182,0.4037870202492689,60.0,609.0,0.0
R,U,"[3, 9]",1.0,10.0,0.6131830215454102,2.031829833984375,0.418862591407991,60.0,610.0,0.0
,,"(6, 6)",,,,,,,,
R,U,"[5, 6]",1.0,1.0,0.30658602714538574,2.773007869720459,0.42530866209482093,61.0,611.0,0.0
Y,R,"[5, 7]",1.0,2.0,0.3191230297088623,1.5834839344024658,0.27547684843537673,61.0,612.0,0.0
Y,R,"[5, 8]",1.0,3.0,0.5308659076690674,2.201460838317871,0.6764999037729611,61.0,613.0,0.0
G,D,"[6, 8]",1.0,4.0,0.513909101486206,1.7702209949493408,0.26374126853587077,61.0,614.0,0.0
Y,R,"[6, 9]",1.0,5.0,0.3573570251464844,1.7499680519104004,0.3801448719371368,61.0,615.0,0.0
Y,R,"[6, 10]",1.0,6.0,0.3283810615539551,1.8343360424041748,0.497765211866053,61.0,616.0,0.0
R,U,"[5, 10]",1.0,7.0,0.5060560703277588,2.015509843826294,0.5131276352906173,61.0,617.0,0.0
R,U,"[4, 10]",1.0,8.0,0.21837091445922852,1.9582669734954834,0.7378562967906317,61.0,618.0,0.0
B,L,"[4, 9]",1.0,9.0,0.26856493949890137,1.8639731407165527,0.6018327880720924,61.0,619.0,0.0
R,U,"[3, 9]",1.0,10.0,0.2840890884399414,1.5951659679412842,0.3140201375149914,61.0,620.0,0.0
,,"(6, 6)",,,,,,,,
R,U,"[5, 6]",1.0,1.0,0.2456040382385254,3.352621078491211,0.6495421320956665,62.0,621.0,0.0
Y,R,"[5, 7]",1.0,2.0,0.16559696197509766,1.7079081535339355,0.5407492813238562,62.0,622.0,0.0
Y,R,"[5, 8]",1.0,3.0,0.33158087730407715,1.7317450046539307,0.40606165933764676,62.0,623.0,0.0
G,D,"[6, 8]",1.0,4.0,0.5922539234161377,1.9758148193359375,0.38181316313108266,62.0,624.0,0.0
Y,R,"[6, 9]",1.0,5.0,0.5169248580932617,2.212883949279785,0.6942178949900057,62.0,625.0,0.0
Y,R,"[6, 10]",1.0,6.0,0.48491501808166504,1.9434330463409424,0.47122022678846504,62.0,626.0,0.0
R,U,"[5, 10]",1.0,7.0,0.7156541347503662,2.1391489505767822,0.4272654147095518,62.0,627.0,0.0
R,U,"[4, 10]",1.0,8.0,0.3445088863372803,1.8065240383148193,0.46684605836224274,62.0,628.0,0.0
B,L,"[4, 9]",1.0,9.0,0.588871955871582,2.121255874633789,0.5379282278472335,62.0,629.0,0.0
R,U,"[3, 9]",1.0,10.0,0.2964019775390625,2.0074779987335205,0.7119475880141414,62.0,630.0,0.0
,,"(6, 6)",,,,,,,,
R,U,"[5, 6]",1.0,1.0,0.17556405067443848,3.6814560890197754,0.46022989248198615,63.0,631.0,0.0
Y,R,"[5, 7]",1.0,2.0,0.395780086517334,2.046779155731201,0.6567539611866064,63.0,632.0,0.0
Y,R,"[5, 8]",-1.0,2.0,0.08076310157775879,5.50835394859314,0.348437495962661,63.0,633.0,0.0
Y,R,"[5, 9]",0.0,2.0,0.3231029510498047,2.041677951812744,0.7065882895636921,63.0,634.0,0.0
G,D,"[6, 9]",1.0,3.0,0.1541140079498291,1.8224830627441406,0.6793391704987668,63.0,635.0,0.0
Y,R,"[6, 10]",1.0,4.0,0.3006448745727539,2.05023193359375,0.7456852381595278,63.0,636.0,0.0
Y,R,"[6, 11]",0.0,4.0,0.3794260025024414,1.8564941883087158,0.46909448865697745,63.0,637.0,0.0
R,U,"[5, 11]",0.0,4.0,0.56374192237854,2.1002609729766846,0.535897843748852,63.0,638.0,0.0
R,U,"[4, 11]",0.0,4.0,0.3833739757537842,1.8149750232696533,0.4343498279308251,63.0,639.0,0.0
B,L,"[4, 10]",1.0,5.0,0.3418591022491455,1.7640581130981445,0.4150630683714327,63.0,640.0,0.0
,,"(6, 6)",,,,,,,,
R,U,"[5, 6]",1.0,1.0,0.9808459281921387,11.995399951934814,0.2602931722042563,64.0,641.0,0.0
Y,R,"[5, 7]",1.0,2.0,0.6326258182525635,2.101767063140869,0.4784732607630121,64.0,642.0,0.0
Y,R,"[5, 8]",1.0,3.0,0.5672390460968018,2.005666971206665,0.45079115583400114,64.0,643.0,0.0
G,D,"[6, 8]",1.0,4.0,0.6519458293914795,1.940429925918579,0.2913293250423178,64.0,644.0,0.0
Y,R,"[6, 9]",1.0,5.0,0.5506150722503662,2.1886420249938965,0.6462124101455301,64.0,645.0,0.0
Y,R,"[6, 10]",1.0,6.0,0.5865302085876465,1.8664309978485107,0.27967246167919346,64.0,646.0,0.0
R,U,"[5, 10]",1.0,7.0,0.4698669910430908,1.9530458450317383,0.48235754290705923,64.0,647.0,0.0
R,U,"[4, 10]",1.0,8.0,0.3588249683380127,2.090277910232544,0.7224861754744414,64.0,648.0,0.0
B,L,"[4, 9]",-1.0,8.0,0.09182095527648926,5.531558036804199,0.3708816147300088,64.0,649.0,0.0
R,U,"[3, 9]",1.0,9.0,0.2841830253601074,1.5662119388580322,0.2870469511023655,64.0,650.0,0.0
,,"(6, 6)",,,,,,,,
R,U,"[5, 6]",1.0,1.0,0.4940488338470459,2.683384895324707,0.25383270763708143,65.0,651.0,0.0
Y,R,"[5, 7]",1.0,2.0,0.7331531047821045,2.275074005126953,0.5452045486347152,65.0,652.0,0.0
Y,R,"[5, 8]",1.0,3.0,0.4480020999908447,1.96248197555542,0.5243618403714414,65.0,653.0,0.0
G,D,"[6, 8]",1.0,4.0,0.3147449493408203,1.8517401218414307,0.5426106665642787,65.0,654.0,0.0
Y,R,"[6, 9]",1.0,5.0,0.4981400966644287,1.9011971950531006,0.41064010712302706,65.0,655.0,0.0
Y,R,"[6, 10]",1.0,6.0,0.5447330474853516,1.8936290740966797,0.35420151211449774,65.0,656.0,0.0
R,U,"[5, 10]",1.0,7.0,0.48076701164245605,2.180840015411377,0.7013824868025107,65.0,657.0,0.0
R,U,"[4, 10]",1.0,8.0,0.2554140090942383,1.82712984085083,0.5619536652706818,65.0,658.0,0.0
B,L,"[4, 9]",1.0,9.0,0.3704869747161865,1.6766469478607178,0.30539261933768924,65.0,659.0,0.0
R,U,"[3, 9]",1.0,10.0,0.6164000034332275,2.3113088607788086,0.6996473331780928,65.0,660.0,0.0
,,"(6, 6)",,,,,,,,
R,U,"[5, 6]",1.0,1.0,0.6278269290924072,3.723036050796509,0.6393378741566458,66.0,661.0,0.0
Y,R,"[5, 7]",1.0,2.0,0.2729520797729492,1.8185200691223145,0.5411839258006648,66.0,662.0,0.0
Y,R,"[5, 8]",1.0,3.0,0.31626200675964355,2.0249521732330322,0.7159785529696334,66.0,663.0,0.0
G,D,"[6, 8]",1.0,4.0,0.18034696578979492,1.804076910018921,0.6200898848106082,66.0,664.0,0.0
Y,R,"[6, 9]",1.0,5.0,0.2449331283569336,1.8649518489837646,0.618371417999978,66.0,665.0,0.0
Y,R,"[6, 10]",1.0,6.0,0.3043050765991211,1.5860519409179688,0.27129936509015334,66.0,666.0,0.0
R,U,"[5, 10]",1.0,7.0,0.48392820358276367,1.9960839748382568,0.5170779048593628,66.0,667.0,0.0
R,U,"[4, 10]",1.0,8.0,0.31391096115112305,1.9618761539459229,0.645529783802508,66.0,668.0,0.0
B,L,"[4, 9]",1.0,9.0,0.2472209930419922,1.6992521286010742,0.4449572353211731,66.0,669.0,0.0
R,U,"[3, 9]",1.0,10.0,0.27246809005737305,1.631209135055542,0.35944368970781004,66.0,670.0,0.0
,,"(6, 6)",,,,,,,,
R,U,"[5, 6]",1.0,1.0,0.41382479667663574,2.808608055114746,0.4013172442511537,67.0,671.0,0.0
Y,R,"[5, 7]",1.0,2.0,0.3018028736114502,1.7391951084136963,0.44039522748115056,67.0,672.0,0.0
Y,R,"[5, 8]",1.0,3.0,0.32242488861083984,1.7356369495391846,0.4094435822492679,67.0,673.0,0.0
G,D,"[6, 8]",1.0,4.0,0.371337890625,1.8582839965820312,0.5009172803576714,67.0,674.0,0.0
Y,R,"[6, 9]",1.0,5.0,0.4524660110473633,1.9072811603546143,0.45835077847263284,67.0,675.0,0.0
Y,R,"[6, 10]",1.0,6.0,0.759680986404419,2.4342539310455322,0.6754964517726085,67.0,676.0,0.0
R,U,"[5, 10]",-1.0,6.0,0.09705805778503418,5.902484893798828,0.7447430646165532,67.0,677.0,0.0
B,L,"[5, 9]",0.0,6.0,0.3140220642089844,1.567643165588379,0.2625336030930618,67.0,678.0,0.0
R,U,"[4, 9]",1.0,7.0,0.8287351131439209,2.3326120376586914,0.49487588673492744,67.0,679.0,0.0
R,U,"[3, 9]",1.0,8.0,0.5010101795196533,2.075546979904175,0.5869450926766955,67.0,680.0,0.0
,,"(6, 6)",,,,,,,,
R,U,"[5, 6]",1.0,1.0,0.564795970916748,4.310099124908447,0.480274787147319,68.0,681.0,0.0
Y,R,"[5, 7]",1.0,2.0,0.2799708843231201,1.6725339889526367,0.3862816530879473,68.0,682.0,0.0
Y,R,"[5, 8]",1.0,3.0,0.6283831596374512,2.0595450401306152,0.42897062095357674,68.0,683.0,0.0
G,D,"[6, 8]",1.0,4.0,0.5106289386749268,2.0936238765716553,0.5725255985769049,68.0,684.0,0.0
Y,R,"[6, 9]",1.0,5.0,0.42035484313964844,1.8463070392608643,0.4355127427436623,68.0,685.0,0.0
Y,R,"[6, 10]",1.0,6.0,0.3862791061401367,2.028355121612549,0.6469016389566586,68.0,686.0,0.0
R,U,"[5, 10]",1.0,7.0,0.3139810562133789,1.6858479976654053,0.36644568052688997,68.0,687.0,0.0
R,U,"[4, 10]",1.0,8.0,0.44353699684143066,1.823106050491333,0.3728126519865047,68.0,688.0,0.0
B,L,"[4, 9]",1.0,9.0,0.5539588928222656,2.1906487941741943,0.6463938205150406,68.0,689.0,0.0
R,U,"[3, 9]",1.0,10.0,0.2838890552520752,1.8290801048278809,0.5422900832503028,68.0,690.0,0.0
,,"(6, 6)",,,,,,,,
R,U,"[5, 6]",1.0,1.0,0.4909861087799072,3.239548921585083,0.3819025252338052,69.0,691.0,0.0
Y,R,"[5, 7]",1.0,2.0,0.49517011642456055,2.1072869300842285,0.6055354691013464,69.0,692.0,0.0
Y,R,"[5, 8]",1.0,3.0,0.30910801887512207,1.9695138931274414,0.658341252474598,69.0,693.0,0.0
G,D,"[6, 8]",1.0,4.0,0.3007349967956543,1.6950390338897705,0.40347369027840946,69.0,694.0,0.0
Y,R,"[6, 9]",1.0,5.0,0.5245370864868164,1.9458460807800293,0.41602959348775514,69.0,695.0,0.0
Y,R,"[6, 10]",1.0,6.0,0.4974551200866699,1.899899959564209,0.3992727398240847,69.0,696.0,0.0
R,U,"[5, 10]",1.0,7.0,0.7065038681030273,2.3617188930511475,0.6605212836863581,69.0,697.0,0.0
R,U,"[4, 10]",1.0,8.0,0.34846997261047363,1.9248309135437012,0.5855601683145318,69.0,698.0,0.0
B,L,"[4, 9]",1.0,9.0,0.41310715675354004,1.960352897644043,0.5458774485026283,69.0,699.0,0.0
R,U,"[3, 9]",1.0,10.0,0.5684349536895752,2.0951359272003174,0.5243201079183294,69.0,700.0,0.0
,,"(6, 6)",,,,,,,,
R,U,"[5, 6]",1.0,1.0,0.4095439910888672,3.514098882675171,0.6881827977548237,70.0,701.0,0.0
Y,R,"[5, 7]",1.0,2.0,0.22443008422851562,1.6529271602630615,0.42464395571639474,70.0,702.0,0.0
Y,R,"[5, 8]",1.0,3.0,0.4673640727996826,2.117480993270874,0.6585072132618142,70.0,703.0,0.0
G,D,"[6, 8]",1.0,4.0,0.5166749954223633,1.9662120342254639,0.4581785835759517,70.0,704.0,0.0
Y,R,"[6, 9]",1.0,5.0,0.5800299644470215,1.966839075088501,0.3917272244183257,70.0,705.0,0.0
Y,R,"[6, 10]",1.0,6.0,0.7095410823822021,2.2168691158294678,0.5084653006295999,70.0,706.0,0.0
R,U,"[5, 10]",1.0,7.0,0.35301685333251953,1.974501132965088,0.6327379785175375,70.0,707.0,0.0
R,U,"[4, 10]",1.0,8.0,0.347322940826416,1.6674699783325195,0.31719881330467176,70.0,708.0,0.0
B,L,"[4, 9]",1.0,9.0,0.780648946762085,2.045041799545288,0.26223842635123373,70.0,709.0,0.0
R,U,"[3, 9]",1.0,10.0,0.5757839679718018,1.9171068668365479,0.3457583840819838,70.0,710.0,0.0
,,"(6, 6)",,,,,,,,
R,U,"[5, 6]",1.0,1.0,0.3206608295440674,8.606135845184326,0.28520147570789756,71.0,711.0,0.0
Y,R,"[5, 7]",1.0,2.0,0.3638339042663574,2.0946550369262695,0.7292695118003477,71.0,712.0,0.0
Y,R,"[5, 8]",1.0,3.0,0.32311511039733887,1.9876480102539062,0.6503910587829806,71.0,713.0,0.0
G,D,"[6, 8]",1.0,4.0,0.32655978202819824,1.8571419715881348,0.5242530826586669,71.0,714.0,0.0
Y,R,"[6, 9]",1.0,5.0,0.36152219772338867,1.9249320030212402,0.5658483427161533,71.0,715.0,0.0
Y,R,"[6, 10]",1.0,6.0,0.325131893157959,1.9598000049591064,0.6254748233821469,71.0,716.0,0.0
R,U,"[5, 10]",1.0,7.0,0.39525294303894043,1.8952701091766357,0.5039849831429892,71.0,717.0,0.0
R,U,"[4, 10]",1.0,8.0,0.4910721778869629,1.8142189979553223,0.31836625525586665,71.0,718.0,0.0
B,L,"[4, 9]",1.0,9.0,0.7064638137817383,1.991771936416626,0.2767595131508882,71.0,719.0,0.0
R,U,"[3, 9]",1.0,10.0,0.6640751361846924,2.0506560802459717,0.3939858594639305,71.0,720.0,0.0
,,"(6, 6)",,,,,,,,
R,U,"[5, 6]",1.0,1.0,0.29878711700439453,3.507866144180298,0.48509170225421455,72.0,721.0,0.0
Y,R,"[5, 7]",1.0,2.0,0.3833961486816406,1.962857961654663,0.5814356094829134,72.0,722.0,0.0
Y,R,"[5, 8]",1.0,3.0,0.31871509552001953,1.9565489292144775,0.6375333307502307,72.0,723.0,0.0
G,D,"[6, 8]",1.0,4.0,0.27858710289001465,1.9590778350830078,0.6799151380819053,72.0,724.0,0.0
Y,R,"[6, 9]",1.0,5.0,0.32917189598083496,1.6457219123840332,0.30933542174387696,72.0,725.0,0.0
Y,R,"[6, 10]",1.0,6.0,0.5287871360778809,2.0735108852386475,0.5490939057508704,72.0,726.0,0.0
R,U,"[5, 10]",1.0,7.0,0.31035399436950684,1.6966211795806885,0.37920407752872176,72.0,727.0,0.0
R,U,"[4, 10]",1.0,8.0,0.2923259735107422,1.775947093963623,0.4717463732065805,72.0,728.0,0.0
B,L,"[4, 9]",1.0,9.0,0.5356450080871582,2.22578501701355,0.6972694727029425,72.0,729.0,0.0
R,U,"[3, 9]",1.0,10.0,0.34332895278930664,1.775892972946167,0.4234056751957541,72.0,730.0,0.0
,,"(6, 6)",,,,,,,,
R,U,"[5, 6]",1.0,1.0,0.3107450008392334,2.480410099029541,0.6371541419819127,73.0,731.0,0.0
Y,R,"[5, 7]",1.0,2.0,0.22226214408874512,1.8958241939544678,0.6659514846962473,73.0,732.0,0.0
Y,R,"[5, 8]",1.0,3.0,0.3462660312652588,1.7333240509033203,0.3827495913854584,73.0,733.0,0.0
G,D,"[6, 8]",1.0,4.0,0.3439009189605713,1.8957140445709229,0.5450208447346736,73.0,734.0,0.0
Y,R,"[6, 9]",1.0,5.0,0.34030985832214355,1.8571550846099854,0.5187182912409547,73.0,735.0,0.0
Y,R,"[6, 10]",1.0,6.0,0.3358609676361084,1.9052081108093262,0.5738199546450271,73.0,736.0,0.0
R,U,"[5, 10]",1.0,7.0,0.39508914947509766,1.7508201599121094,0.358251842331838,73.0,737.0,0.0
R,U,"[4, 10]",1.0,8.0,0.33729100227355957,1.68333101272583,0.3581036149875023,73.0,738.0,0.0
B,L,"[4, 9]",1.0,9.0,0.5495278835296631,1.8261370658874512,0.28438662578467455,73.0,739.0,0.0
R,U,"[3, 9]",1.0,10.0,0.5003831386566162,1.8996551036834717,0.40050631346158183,73.0,740.0,0.0
,,"(6, 6)",,,,,,,,
R,U,"[5, 6]",1.0,1.0,0.25828099250793457,2.664060115814209,0.7141635768273816,74.0,741.0,0.0
Y,R,"[5, 7]",1.0,2.0,0.21660208702087402,1.532716989517212,0.3138853435015039,74.0,742.0,0.0
Y,R,"[5, 8]",1.0,3.0,0.3211531639099121,1.7670650482177734,0.44752184860725136,74.0,743.0,0.0
G,D,"[6, 8]",1.0,4.0,0.21049904823303223,1.9365730285644531,0.717140846651095,74.0,744.0,0.0
Y,R,"[6, 9]",-1.0,4.0,0.06660985946655273,5.582263946533203,0.4494888206731557,74.0,745.0,0.0
Y,R,"[6, 10]",1.0,5.0,0.4817509651184082,1.9772040843963623,0.4933479317236745,74.0,746.0,0.0
R,U,"[5, 10]",1.0,6.0,0.2860841751098633,2.009442090988159,0.7361594081267968,74.0,747.0,0.0
R,U,"[4, 10]",1.0,7.0,0.2685251235961914,1.6198241710662842,0.35596728104193753,74.0,748.0,0.0
B,L,"[4, 9]",1.0,8.0,0.5447149276733398,1.8605480194091797,0.3164599110923962,74.0,749.0,0.0
R,U,"[3, 9]",1.0,9.0,0.4800291061401367,2.0400450229644775,0.5562897995495127,74.0,750.0,0.0
,,"(6, 6)",,,,,,,,
Y,R,"[6, 7]",0.0,0.0,0.15992283821105957,3.475522041320801,0.48173817497314153,75.0,751.0,0.0
Y,R,"[6, 8]",1.0,1.0,0.5863518714904785,2.084480047225952,0.49944133619307757,75.0,752.0,0.0
Y,R,"[6, 9]",1.0,2.0,0.32698512077331543,1.772305965423584,0.4385599177419937,75.0,753.0,0.0
G,D,"[7, 9]",0.0,2.0,0.8242838382720947,2.2630679607391357,0.434996458988818,75.0,754.0,0.0
Y,R,"[7, 10]",0.0,2.0,0.5316150188446045,2.2247300148010254,0.6925676954488594,75.0,755.0,0.0
Y,R,"[7, 11]",0.0,2.0,0.408966064453125,2.0328240394592285,0.6254443874442698,75.0,756.0,0.0
R,U,"[6, 11]",0.0,2.0,0.39058899879455566,1.7900779247283936,0.3990062598792173,75.0,757.0,0.0
B,L,"[6, 10]",1.0,3.0,0.6156189441680908,2.2899351119995117,0.6720102942048115,75.0,758.0,0.0
B,L,"[6, 9]",0.0,3.0,0.613501787185669,1.876957893371582,0.26589433187762745,75.0,759.0,0.0
R,U,"[5, 9]",-2.0,3.0,1.048887014389038,2.597567081451416,0.5798171100046162,75.0,760.0,0.0
,,"(6, 6)",,,,,,,,
R,U,"[5, 6]",1.0,1.0,0.45847511291503906,3.2404160499572754,0.2537356481475268,76.0,761.0,0.0
Y,R,"[5, 7]",1.0,2.0,0.3446950912475586,1.9295120239257812,0.5829448917298029,76.0,762.0,0.0
Y,R,"[5, 8]",1.0,3.0,0.21315717697143555,1.8859429359436035,0.6688828841655678,76.0,763.0,0.0
G,D,"[6, 8]",1.0,4.0,0.1669919490814209,1.5854051113128662,0.421075718554914,76.0,764.0,0.0
Y,R,"[6, 9]",1.0,5.0,0.27745985984802246,1.5457241535186768,0.26690636341706164,76.0,765.0,0.0
Y,R,"[6, 10]",1.0,6.0,0.47849583625793457,2.0790059566497803,0.5955670754146118,76.0,766.0,0.0
R,U,"[5, 10]",1.0,7.0,0.5041110515594482,2.1993558406829834,0.694777642359675,76.0,767.0,0.0
R,U,"[4, 10]",1.0,8.0,0.34674906730651855,1.8172810077667236,0.4787884583571073,76.0,768.0,0.0
B,L,"[4, 9]",1.0,9.0,0.554440975189209,2.21624493598938,0.6615608666592738,76.0,769.0,0.0
R,U,"[3, 9]",1.0,10.0,0.34736204147338867,1.7436249256134033,0.40533816535701206,76.0,770.0,0.0
,,"(6, 6)",,,,,,,,
R,U,"[5, 6]",1.0,1.0,0.42544984817504883,5.246753931045532,0.25205871049606765,77.0,771.0,0.0
Y,R,"[5, 7]",1.0,2.0,0.44733214378356934,1.867375135421753,0.4193489814461083,77.0,772.0,0.0
Y,R,"[5, 8]",1.0,3.0,0.2907991409301758,1.962799072265625,0.6651130562634695,77.0,773.0,0.0
G,D,"[6, 8]",1.0,4.0,0.3000969886779785,1.7714769840240479,0.47011827057408645,77.0,774.0,0.0
Y,R,"[6, 9]",1.0,5.0,0.30737900733947754,1.9890930652618408,0.6756928257885357,77.0,775.0,0.0
Y,R,"[6, 10]",1.0,6.0,0.2610509395599365,1.5143399238586426,0.25694767173362626,77.0,776.0,0.0
R,U,"[5, 10]",1.0,7.0,0.7882740497589111,2.4489779472351074,0.6722180548736013,77.0,777.0,0.0
R,U,"[4, 10]",1.0,8.0,0.34429001808166504,1.8811120986938477,0.5367601806227378,77.0,778.0,0.0
B,L,"[4, 9]",1.0,9.0,0.30697202682495117,1.8863189220428467,0.5729991611172978,77.0,779.0,0.0
R,U,"[3, 9]",1.0,10.0,0.5417649745941162,2.285689115524292,0.7417029655270919,77.0,780.0,0.0
,,"(6, 6)",,,,,,,,
R,U,"[5, 6]",1.0,1.0,0.4334139823913574,3.5221571922302246,0.2976852856074059,78.0,781.0,0.0
Y,R,"[5, 7]",1.0,2.0,0.2048778533935547,1.8152191638946533,0.612438035262028,78.0,782.0,0.0
Y,R,"[5, 8]",1.0,3.0,0.15881109237670898,1.8730990886688232,0.7021626122213478,78.0,783.0,0.0
G,D,"[6, 8]",1.0,4.0,0.3305699825286865,2.0266659259796143,0.6953996022591772,78.0,784.0,0.0
Y,R,"[6, 9]",1.0,5.0,0.29125213623046875,1.7254629135131836,0.4211154007089845,78.0,785.0,0.0
Y,R,"[6, 10]",1.0,6.0,0.4284999370574951,1.8256399631500244,0.39663924086859814,78.0,786.0,0.0
R,U,"[5, 10]",1.0,7.0,0.5421261787414551,1.9543590545654297,0.40102725684209917,78.0,787.0,0.0
R,U,"[4, 10]",1.0,8.0,0.5071570873260498,2.1959102153778076,0.6799622190821856,78.0,788.0,0.0
B,L,"[4, 9]",1.0,9.0,0.33774590492248535,1.785141944885254,0.4486143382146058,78.0,789.0,0.0
R,U,"[3, 9]",-2.0,9.0,1.2608230113983154,2.720343828201294,0.4854893005416238,78.0,790.0,0.0
,,"(6, 6)",,,,,,,,
R,U,"[5, 6]",1.0,1.0,0.3764619827270508,4.930148124694824,0.6486375919419778,79.0,791.0,0.0
Y,R,"[5, 7]",1.0,2.0,0.28497910499572754,2.026747941970825,0.7423220079550608,79.0,792.0,0.0
Y,R,"[5, 8]",1.0,3.0,0.2730269432067871,1.9718618392944336,0.6971662954344892,79.0,793.0,0.0
G,D,"[6, 8]",1.0,4.0,0.36974406242370605,2.077944040298462,0.7084374450057849,79.0,794.0,0.0
Y,R,"[6, 9]",1.0,5.0,0.4109821319580078,2.0831820964813232,0.67489127947141,79.0,795.0,0.0
Y,R,"[6, 10]",1.0,6.0,0.42395520210266113,2.075230121612549,0.6500155837957793,79.0,796.0,0.0
R,U,"[5, 10]",1.0,7.0,0.737738847732544,2.3222970962524414,0.589080281108678,79.0,797.0,0.0
R,U,"[4, 10]",-2.0,7.0,1.0046770572662354,2.490736961364746,0.5297239085775457,79.0,798.0,0.0
R,U,"[3, 10]",0.0,7.0,0.3256258964538574,1.660264015197754,0.32361231768276044,79.0,799.0,0.0
B,L,"[3, 9]",1.0,8.0,0.34464406967163086,1.6276581287384033,0.28448382532063515,79.0,800.0,0.0
,,"(6, 6)",,,,,,,,
R,U,"[5, 6]",1.0,1.0,0.3037850856781006,3.7226197719573975,0.5068879275615407,80.0,801.0,0.0
Y,R,"[5, 7]",1.0,2.0,0.4625740051269531,1.7479639053344727,0.28825562475103067,80.0,802.0,0.0
Y,R,"[5, 8]",1.0,3.0,0.4339120388031006,1.7556569576263428,0.3272529214493865,80.0,803.0,0.0
G,D,"[6, 8]",1.0,4.0,0.4865579605102539,1.7774639129638672,0.3046437063662917,80.0,804.0,0.0
Y,R,"[6, 9]",1.0,5.0,0.649212121963501,2.2923691272735596,0.6466948812878317,80.0,805.0,0.0
Y,R,"[6, 10]",1.0,6.0,0.3384099006652832,1.9919061660766602,0.6552228677700263,80.0,806.0,0.0
R,U,"[5, 10]",1.0,7.0,0.24985408782958984,1.6684808731079102,0.42409199024651273,80.0,807.0,0.0
R,U,"[4, 10]",1.0,8.0,0.41515111923217773,2.0899291038513184,0.6801813357074831,80.0,808.0,0.0
B,L,"[4, 9]",1.0,9.0,0.2961711883544922,1.7920260429382324,0.48901650600361857,80.0,809.0,0.0
R,U,"[3, 9]",1.0,10.0,0.14985299110412598,1.5206639766693115,0.37645053045047716,80.0,810.0,0.0
,,"(6, 6)",,,,,,,,
R,U,"[5, 6]",1.0,1.0,0.314162015914917,5.684159994125366,0.6933813363929651,81.0,811.0,0.0
Y,R,"[5, 7]",1.0,2.0,0.1548769474029541,1.7410178184509277,0.6012961587884115,81.0,812.0,0.0
Y,R,"[5, 8]",1.0,3.0,0.15174317359924316,1.678508996963501,0.5297489947423181,81.0,813.0,0.0
G,D,"[6, 8]",1.0,4.0,0.3654060363769531,1.8461430072784424,0.4757876438667394,81.0,814.0,0.0
Y,R,"[6, 9]",1.0,5.0,0.1760709285736084,1.7365288734436035,0.5623228006815943,81.0,815.0,0.0
Y,R,"[6, 10]",1.0,6.0,0.1440579891204834,1.7367658615112305,0.582362181545951,81.0,816.0,0.0
R,U,"[5, 10]",1.0,7.0,0.11020517349243164,1.4603238105773926,0.342837675885884,81.0,817.0,0.0
R,U,"[4, 10]",1.0,8.0,0.2737259864807129,1.9009239673614502,0.6268093221823274,81.0,818.0,0.0
B,L,"[4, 9]",-1.0,8.0,0.07674503326416016,5.486449956893921,0.330096283309179,81.0,819.0,0.0
B,L,"[4, 8]",0.0,8.0,0.27209997177124023,1.5826950073242188,0.2960872857461063,81.0,820.0,0.0
,,"(6, 6)",,,,,,,,
R,U,"[5, 6]",1.0,1.0,0.5490121841430664,3.904120922088623,0.5499123378632678,82.0,821.0,0.0
Y,R,"[5, 7]",1.0,2.0,0.3683359622955322,1.8516559600830078,0.48487369045427403,82.0,822.0,0.0
Y,R,"[5, 8]",1.0,3.0,0.5723540782928467,1.9718270301818848,0.3901313359179211,82.0,823.0,0.0
G,D,"[6, 8]",1.0,4.0,0.5786149501800537,2.026805877685547,0.4500246954975067,82.0,824.0,0.0
Y,R,"[6, 9]",1.0,5.0,0.36022496223449707,2.0145938396453857,0.6477904286423248,82.0,825.0,0.0
Y,R,"[6, 10]",1.0,6.0,0.5285990238189697,2.250553846359253,0.7149454027124537,82.0,826.0,0.0
R,U,"[5, 10]",1.0,7.0,0.38454294204711914,1.840399980545044,0.45556101074675304,82.0,827.0,0.0
R,U,"[4, 10]",1.0,8.0,0.5311861038208008,1.8778650760650635,0.3501079743755259,82.0,828.0,0.0
B,L,"[4, 9]",-2.0,8.0,1.522960901260376,3.0286169052124023,0.5450321347887879,82.0,829.0,0.0
B,L,"[4, 8]",0.0,8.0,0.2941868305206299,1.670382022857666,0.382275111452137,82.0,830.0,0.0
,,"(6, 6)",,,,,,,,
R,U,"[5, 6]",1.0,1.0,0.37873005867004395,3.734855890274048,0.6834500790174557,83.0,831.0,0.0
Y,R,"[5, 7]",1.0,2.0,0.3699071407318115,2.067638874053955,0.7009368627648414,83.0,832.0,0.0
Y,R,"[5, 8]",1.0,3.0,0.34082984924316406,1.986433982849121,0.6375009993668053,83.0,833.0,0.0
G,D,"[6, 8]",1.0,4.0,0.46042895317077637,2.036858081817627,0.5742398397050588,83.0,834.0,0.0
Y,R,"[6, 9]",1.0,5.0,0.27509403228759766,1.8564369678497314,0.5805947065903576,83.0,835.0,0.0
Y,R,"[6, 10]",1.0,6.0,0.21340298652648926,1.6901237964630127,0.4709283065070263,83.0,836.0,0.0
R,U,"[5, 10]",1.0,7.0,0.7941160202026367,2.446462869644165,0.6504039994371925,83.0,837.0,0.0
R,U,"[4, 10]",1.0,8.0,0.3210110664367676,1.9949989318847656,0.6787579382275244,83.0,838.0,0.0
B,L,"[4, 9]",1.0,9.0,0.3591158390045166,2.1122848987579346,0.7408280286925537,83.0,839.0,0.0
R,U,"[3, 9]",1.0,10.0,0.13300180435180664,1.4532380104064941,0.32783418344433923,83.0,840.0,0.0
,,"(6, 6)",,,,,,,,
R,U,"[5, 6]",1.0,1.0,0.19499707221984863,9.772726058959961,0.40028126490056093,84.0,841.0,0.0
Y,R,"[5, 7]",1.0,2.0,0.39066314697265625,1.729614019393921,0.3299195921148256,84.0,842.0,0.0
Y,R,"[5, 8]",1.0,3.0,0.4602959156036377,1.9057278633117676,0.4356933873714117,84.0,843.0,0.0
G,D,"[6, 8]",1.0,4.0,0.30231404304504395,1.9232230186462402,0.6251428514217505,84.0,844.0,0.0
Y,R,"[6, 9]",1.0,5.0,0.2515299320220947,1.7029938697814941,0.4615342604972472,84.0,845.0,0.0
Y,R,"[6, 10]",1.0,6.0,0.3397409915924072,1.7036280632019043,0.3819772205079071,84.0,846.0,0.0
R,U,"[5, 10]",1.0,7.0,0.2809638977050781,1.601043939590454,0.31618341456896737,84.0,847.0,0.0
R,U,"[4, 10]",-1.0,7.0,0.012556076049804688,5.636433839797974,0.5523660899260778,84.0,848.0,0.0
R,U,"[3, 10]",0.0,7.0,0.33351802825927734,1.9531738758087158,0.6221669331541295,84.0,849.0,0.0
B,L,"[3, 9]",1.0,8.0,0.21752595901489258,1.4820280075073242,0.27101536244284086,84.0,850.0,0.0
,,"(6, 6)",,,,,,,,
R,U,"[5, 6]",1.0,1.0,0.5104131698608398,3.655457019805908,0.4930147616554503,85.0,851.0,0.0
Y,R,"[5, 7]",1.0,2.0,0.3227119445800781,1.774764060974121,0.4510770842563335,85.0,852.0,0.0
Y,R,"[5, 8]",1.0,3.0,0.2707951068878174,1.5273361206054688,0.26185576588268666,85.0,853.0,0.0
G,D,"[6, 8]",1.0,4.0,0.53810715675354,1.8654279708862305,0.3437643573114261,85.0,854.0,0.0
Y,R,"[6, 9]",1.0,5.0,0.5814390182495117,2.139688014984131,0.5665362021527997,85.0,855.0,0.0
Y,R,"[6, 10]",1.0,6.0,0.4294700622558594,1.9951350688934326,0.5617069433867123,85.0,856.0,0.0
R,U,"[5, 10]",1.0,7.0,0.8718421459197998,2.465183973312378,0.6100218734702434,85.0,857.0,0.0
R,U,"[4, 10]",1.0,8.0,0.37746691703796387,1.8197379112243652,0.4464717163252247,85.0,858.0,0.0
B,L,"[4, 9]",1.0,9.0,0.6880960464477539,2.2271878719329834,0.5237398483323068,85.0,859.0,0.0
R,U,"[3, 9]",1.0,10.0,0.3704071044921875,1.809412956237793,0.4498047912539411,85.0,860.0,0.0
,,"(6, 6)",,,,,,,,
R,U,"[5, 6]",1.0,1.0,0.38539910316467285,3.452789068222046,0.3691369451697077,86.0,861.0,0.0
Y,R,"[5, 7]",1.0,2.0,0.2378251552581787,1.940835952758789,0.7096602744194673,86.0,862.0,0.0
Y,R,"[5, 8]",-1.0,2.0,0.014806985855102539,5.6815760135650635,0.6078968988049798,86.0,863.0,0.0
Y,R,"[5, 9]",0.0,2.0,0.30704712867736816,1.5835468769073486,0.2751080201175079,86.0,864.0,0.0
G,D,"[6, 9]",1.0,3.0,0.4205617904663086,2.1053669452667236,0.6966316712790576,86.0,865.0,0.0
Y,R,"[6, 10]",1.0,4.0,0.32987189292907715,1.891890048980713,0.5553299417969486,86.0,866.0,0.0
Y,R,"[6, 11]",0.0,4.0,0.307628870010376,1.771622896194458,0.46024869415457276,86.0,867.0,0.0
R,U,"[5, 11]",0.0,4.0,0.3330719470977783,1.726435899734497,0.40355468429397556,86.0,868.0,0.0
B,L,"[5, 10]",1.0,5.0,0.1889200210571289,1.8679070472717285,0.6710503370779071,86.0,869.0,0.0
B,L,"[5, 9]",0.0,5.0,0.38181090354919434,1.952920913696289,0.5739736101736006,86.0,870.0,0.0
,,"(6, 6)",,,,,,,,
R,U,"[5, 6]",1.0,1.0,0.5347800254821777,3.1457161903381348,0.33655901166567054,87.0,871.0,0.0
Y,R,"[5, 7]",1.0,2.0,0.4038710594177246,1.851417064666748,0.45443859214452137,87.0,872.0,0.0
Y,R,"[5, 8]",1.0,3.0,0.47364306449890137,2.0916171073913574,0.6125318037260179,87.0,873.0,0.0
G,D,"[6, 8]",1.0,4.0,0.31245994567871094,1.9812939167022705,0.6603043709598074,87.0,874.0,0.0
Y,R,"[6, 9]",1.0,5.0,0.29712510108947754,1.933763027191162,0.6441406354816681,87.0,875.0,0.0
Y,R,"[6, 10]",1.0,6.0,0.34274888038635254,1.9690589904785156,0.629984754105258,87.0,876.0,0.0
R,U,"[5, 10]",1.0,7.0,0.3026151657104492,1.6995270252227783,0.3962200393543195,87.0,877.0,0.0
R,U,"[4, 10]",1.0,8.0,0.3896300792694092,1.995865821838379,0.6084495296566155,87.0,878.0,0.0
B,L,"[4, 9]",1.0,9.0,0.351093053817749,1.8164470195770264,0.47495620259203064,87.0,879.0,0.0
R,U,"[3, 9]",-2.0,9.0,1.2164461612701416,2.6690499782562256,0.49404068431288733,87.0,880.0,0.0
,,"(6, 6)",,,,,,,,
R,U,"[5, 6]",1.0,1.0,0.40588998794555664,3.4621520042419434,0.37287278618528846,88.0,881.0,0.0
Y,R,"[5, 7]",1.0,2.0,0.2741091251373291,1.7527580261230469,0.4921131028299935,88.0,882.0,0.0
Y,R,"[5, 8]",1.0,3.0,0.2840540409088135,1.6220159530639648,0.3475718225674708,88.0,883.0,0.0
G,D,"[6, 8]",1.0,4.0,0.49675679206848145,2.1779379844665527,0.6750565059177644,88.0,884.0,0.0
Y,R,"[6, 9]",-1.0,4.0,0.0890498161315918,5.707240104675293,0.5492420467092962,88.0,885.0,0.0
B,L,"[6, 8]",0.0,4.0,0.2943580150604248,1.892071008682251,0.5909845198909796,88.0,886.0,0.0
Y,R,"[6, 9]",0.0,4.0,0.23893499374389648,1.7014710903167725,0.45917931705766035,88.0,887.0,0.0
R,U,"[5, 9]",0.0,4.0,0.36496996879577637,1.7275240421295166,0.37006087068518184,88.0,888.0,0.0
R,U,"[4, 9]",1.0,5.0,0.3066089153289795,1.8723719120025635,0.5588976375984246,88.0,889.0,0.0
B,L,"[4, 8]",0.0,5.0,0.320850133895874,1.7515242099761963,0.44392495635898827,88.0,890.0,0.0
,,"(6, 6)",,,,,,,,
R,U,"[5, 6]",1.0,1.0,0.42954397201538086,3.1709580421447754,0.48140992768091306,89.0,891.0,0.0
Y,R,"[5, 7]",1.0,2.0,0.34559106826782227,1.7563941478729248,0.40443705864337787,89.0,892.0,0.0
Y,R,"[5, 8]",1.0,3.0,0.35643911361694336,1.8697340488433838,0.5073960545874515,89.0,893.0,0.0
G,D,"[6, 8]",1.0,4.0,0.25791096687316895,1.778244972229004,0.5189387243085881,89.0,894.0,0.0
Y,R,"[6, 9]",1.0,5.0,0.19350600242614746,1.7989790439605713,0.6011744538280288,89.0,895.0,0.0
Y,R,"[6, 10]",1.0,6.0,0.2797729969024658,1.6620221138000488,0.3800363791260286,89.0,896.0,0.0
R,U,"[5, 10]",1.0,7.0,0.49681615829467773,1.794708013534546,0.2914629100396007,89.0,897.0,0.0
B,L,"[5, 9]",-2.0,7.0,1.9427669048309326,3.1845781803131104,0.2759257610241321,89.0,898.0,0.0
B,L,"[5, 8]",0.0,7.0,0.4901089668273926,1.9060330390930176,0.4151484311076953,89.0,899.0,0.0
R,U,"[4, 8]",0.0,7.0,0.30347204208374023,1.9010708332061768,0.5993344285071747,89.0,900.0,0.0
,,"(6, 6)",,,,,,,,
R,U,"[5, 6]",1.0,1.0,0.3232119083404541,3.2858078479766846,0.35189962263828345,90.0,901.0,0.0
Y,R,"[5, 7]",1.0,2.0,0.41411805152893066,1.7726521492004395,0.3579292780006409,90.0,902.0,0.0
Y,R,"[5, 8]",1.0,3.0,0.2675042152404785,1.769083023071289,0.5101155413489225,90.0,903.0,0.0
G,D,"[6, 8]",1.0,4.0,0.3741738796234131,1.9476900100708008,0.5743123060875661,90.0,904.0,0.0
Y,R,"[6, 9]",1.0,5.0,0.13586807250976562,1.7032749652862549,0.5775980182670983,90.0,905.0,0.0
Y,R,"[6, 10]",1.0,6.0,0.2797389030456543,1.8649070262908936,0.5924436087900038,90.0,906.0,0.0
R,U,"[5, 10]",-1.0,6.0,0.08813786506652832,5.8262598514556885,0.6684352546801977,90.0,907.0,0.0
R,U,"[4, 10]",1.0,7.0,0.37581610679626465,1.9649269580841064,0.583455902874725,90.0,908.0,0.0
B,L,"[4, 9]",1.0,8.0,0.3029508590698242,1.6969220638275146,0.3973365632387751,90.0,909.0,0.0
R,U,"[3, 9]",1.0,9.0,0.3689548969268799,1.8103718757629395,0.44083890725124386,90.0,910.0,0.0
,,"(6, 6)",,,,,,,,
R,U,"[5, 6]",1.0,1.0,0.6821680068969727,23.052536964416504,0.4093945136581444,91.0,911.0,0.0
Y,R,"[5, 7]",1.0,2.0,0.2748730182647705,1.802886962890625,0.5288890966639201,91.0,912.0,0.0
Y,R,"[5, 8]",1.0,3.0,0.18907713890075684,1.7189910411834717,0.5145197383521094,91.0,913.0,0.0
G,D,"[6, 8]",1.0,4.0,0.40856504440307617,1.8511850833892822,0.43237286415381193,91.0,914.0,0.0
R,U,"[5, 8]",-2.0,4.0,5.176832914352417,6.6133811473846436,0.4621309149567096,91.0,915.0,0.0
R,U,"[4, 8]",0.0,4.0,0.571707010269165,2.0257599353790283,0.45457602635585603,91.0,916.0,0.0
B,L,"[4, 7]",0.0,4.0,0.48674702644348145,2.2048628330230713,0.7260958928865753,91.0,917.0,0.0
Y,R,"[4, 8]",0.0,4.0,0.31400394439697266,1.7246971130371094,0.4174822318557869,91.0,918.0,0.0
G,D,"[5, 8]",0.0,4.0,0.2916560173034668,1.884108066558838,0.584636964114017,91.0,919.0,0.0
B,L,"[5, 7]",0.0,4.0,0.3093760013580322,1.619063138961792,0.3040570029664049,91.0,920.0,0.0
,,"(6, 6)",,,,,,,,
R,U,"[5, 6]",1.0,1.0,0.4875509738922119,3.243770122528076,0.464208090013774,92.0,921.0,0.0
Y,R,"[5, 7]",1.0,2.0,0.44763708114624023,2.0221099853515625,0.5694463955353165,92.0,922.0,0.0
Y,R,"[5, 8]",1.0,3.0,0.7841200828552246,2.5001449584960938,0.7194513133794933,92.0,923.0,0.0
G,D,"[6, 8]",1.0,4.0,0.28711819648742676,1.620255947113037,0.33997148438897334,92.0,924.0,0.0
Y,R,"[6, 9]",1.0,5.0,0.4712049961090088,1.987734079360962,0.5275660175053185,92.0,925.0,0.0
Y,R,"[6, 10]",1.0,6.0,0.3051791191101074,2.0490641593933105,0.7429444585650407,92.0,926.0,0.0
R,U,"[5, 10]",1.0,7.0,0.31493091583251953,1.8907949924468994,0.5839637721283921,92.0,927.0,0.0
R,U,"[4, 10]",1.0,8.0,0.2578999996185303,1.9213390350341797,0.6550838793103312,92.0,928.0,0.0
B,L,"[4, 9]",1.0,9.0,0.2361741065979004,1.5459837913513184,0.3180781995715417,92.0,929.0,0.0
R,U,"[3, 9]",1.0,10.0,0.39920687675476074,2.0649430751800537,0.6660060954021634,92.0,930.0,0.0
,,"(6, 6)",,,,,,,,
R,U,"[5, 6]",1.0,1.0,0.28459787368774414,3.404481887817383,0.703653505568289,93.0,931.0,0.0
Y,R,"[5, 7]",1.0,2.0,0.2604248523712158,1.6958649158477783,0.43314168087687416,93.0,932.0,0.0
Y,R,"[5, 8]",1.0,3.0,0.4105548858642578,1.9807839393615723,0.5639881119065586,93.0,933.0,0.0
G,D,"[6, 8]",1.0,4.0,0.2671360969543457,1.9652180671691895,0.6954382855558878,93.0,934.0,0.0
Y,R,"[6, 9]",1.0,5.0,0.2214970588684082,1.8964040279388428,0.6751640665632048,93.0,935.0,0.0
Y,R,"[6, 10]",-1.0,5.0,0.001466989517211914,5.473266839981079,0.41521632643040074,93.0,936.0,0.0
Y,R,"[6, 11]",0.0,5.0,0.3030869960784912,1.8900220394134521,0.5882587579573187,93.0,937.0,0.0
R,U,"[5, 11]",0.0,5.0,0.30840587615966797,1.8486719131469727,0.5369974583088388,93.0,938.0,0.0
R,U,"[4, 11]",0.0,5.0,0.3463408946990967,1.8363749980926514,0.49005948645072295,93.0,939.0,0.0
R,U,"[3, 11]",0.0,5.0,0.3460390567779541,1.9149041175842285,0.5714275075250171,93.0,940.0,0.0
,,"(6, 6)",,,,,,,,
R,U,"[5, 6]",1.0,1.0,0.4728810787200928,4.303956031799316,0.5590984213504917,94.0,941.0,0.0
Y,R,"[5, 7]",1.0,2.0,0.2903149127960205,1.694120168685913,0.4028745786395548,94.0,942.0,0.0
Y,R,"[5, 8]",1.0,3.0,0.5334789752960205,1.9349589347839355,0.404537903000547,94.0,943.0,0.0
G,D,"[6, 8]",1.0,4.0,0.5258119106292725,1.8664309978485107,0.3376334381011343,94.0,944.0,0.0
Y,R,"[6, 9]",1.0,5.0,0.40726184844970703,1.7869040966033936,0.3910409222747212,94.0,945.0,0.0
Y,R,"[6, 10]",1.0,6.0,0.3982810974121094,1.8694541454315186,0.4771336931508761,94.0,946.0,0.0
R,U,"[5, 10]",1.0,7.0,0.39926886558532715,2.0281050205230713,0.6383742574410396,94.0,947.0,0.0
R,U,"[4, 10]",1.0,8.0,0.23895502090454102,1.649399995803833,0.42117378299385966,94.0,948.0,0.0
Y,R,"[4, 11]",0.0,8.0,0.7196719646453857,2.3616859912872314,0.6492782785710647,94.0,949.0,0.0
R,U,"[3, 11]",0.0,8.0,0.3265368938446045,1.6309621334075928,0.29728719864143016,94.0,950.0,0.0
,,"(6, 6)",,,,,,,,
R,U,"[5, 6]",1.0,1.0,0.4094228744506836,3.123823881149292,0.3043062009769703,95.0,951.0,0.0
Y,R,"[5, 7]",1.0,2.0,0.46430516242980957,2.0665969848632812,0.6038875953282542,95.0,952.0,0.0
Y,R,"[5, 8]",1.0,3.0,0.2355959415435791,1.82364821434021,0.5942574469623476,95.0,953.0,0.0
G,D,"[6, 8]",1.0,4.0,0.3048570156097412,1.7710411548614502,0.4819764681399426,95.0,954.0,0.0
Y,R,"[6, 9]",1.0,5.0,0.368480920791626,2.03574800491333,0.6673933815167217,95.0,955.0,0.0
Y,R,"[6, 10]",1.0,6.0,0.27271580696105957,1.876824140548706,0.5943464546254446,95.0,956.0,0.0
R,U,"[5, 10]",1.0,7.0,0.16901707649230957,1.5558009147644043,0.40036782020777495,95.0,957.0,0.0
R,U,"[4, 10]",1.0,8.0,0.21880698204040527,1.668907880783081,0.45244795780648445,95.0,958.0,0.0
B,L,"[4, 9]",1.0,9.0,0.2663140296936035,1.925719976425171,0.661278319454993,95.0,959.0,0.0
R,U,"[3, 9]",-1.0,9.0,0.08445596694946289,5.4440248012542725,0.3055241416728474,95.0,960.0,0.0
,,"(6, 6)",,,,,,,,
R,U,"[5, 6]",1.0,1.0,0.48014092445373535,15.464015007019043,0.4856494998017081,96.0,961.0,0.0
Y,R,"[5, 7]",1.0,2.0,0.5936918258666992,2.3450160026550293,0.7470333772820519,96.0,962.0,0.0
Y,R,"[5, 8]",1.0,3.0,0.32053518295288086,1.8727529048919678,0.5533278252661118,96.0,963.0,0.0
G,D,"[6, 8]",1.0,4.0,0.7144050598144531,2.055912971496582,0.34262885980466606,96.0,964.0,0.0
Y,R,"[6, 9]",1.0,5.0,0.7408368587493896,2.1528570652008057,0.4121167493348864,96.0,965.0,0.0
Y,R,"[6, 10]",1.0,6.0,0.3701760768890381,2.069784164428711,0.6986602463846407,96.0,966.0,0.0
R,U,"[5, 10]",1.0,7.0,0.25754404067993164,1.9764881134033203,0.7078746665238509,96.0,967.0,0.0
R,U,"[4, 10]",1.0,8.0,0.3768007755279541,2.034536123275757,0.6590922754140615,96.0,968.0,0.0
B,L,"[4, 9]",1.0,9.0,0.3244500160217285,2.0014090538024902,0.6771753597886505,96.0,969.0,0.0
R,U,"[3, 9]",1.0,10.0,0.26744699478149414,1.5058791637420654,0.2500870158112759,96.0,970.0,0.0
,,"(6, 6)",,,,,,,,
R,U,"[5, 6]",1.0,1.0,0.48836183547973633,5.86176609992981,0.36162080513569184,97.0,971.0,0.0
Y,R,"[5, 7]",1.0,2.0,0.46207213401794434,1.994460105895996,0.5391655415040814,97.0,972.0,0.0
Y,R,"[5, 8]",1.0,3.0,0.5208370685577393,1.9819729328155518,0.47116153848884296,97.0,973.0,0.0
G,D,"[6, 8]",1.0,4.0,0.6792910099029541,2.3466618061065674,0.6674996314696956,97.0,974.0,0.0
Y,R,"[6, 9]",1.0,5.0,0.29743194580078125,1.7087740898132324,0.4098293320932676,97.0,975.0,0.0
R,U,"[5, 9]",0.0,5.0,0.42163801193237305,1.9164140224456787,0.5095034670967067,97.0,976.0,0.0
R,U,"[4, 9]",1.0,6.0,0.2566971778869629,1.6373870372772217,0.39701155724309484,97.0,977.0,0.0
R,U,"[3, 9]",1.0,7.0,0.32076287269592285,2.0292248725891113,0.7090869186866136,97.0,978.0,0.0
B,L,"[3, 8]",0.0,7.0,0.24837398529052734,1.7455921173095703,0.5048809112386086,97.0,979.0,0.0
R,U,"[2, 8]",0.0,7.0,0.8050241470336914,2.4903969764709473,0.6784829762787834,97.0,980.0,0.0
,,"(6, 6)",,,,,,,,
R,U,"[5, 6]",1.0,1.0,0.34049487113952637,2.98193097114563,0.377301624803906,98.0,981.0,0.0
Y,R,"[5, 7]",1.0,2.0,0.29932713508605957,1.6348648071289062,0.34540481935129674,98.0,982.0,0.0
Y,R,"[5, 8]",1.0,3.0,0.4433598518371582,1.799010992050171,0.34442708779970777,98.0,983.0,0.0
G,D,"[6, 8]",1.0,4.0,0.4232921600341797,1.910391092300415,0.5045859336064377,98.0,984.0,0.0
Y,R,"[6, 9]",1.0,5.0,0.28714609146118164,1.5866141319274902,0.29138402584760126,98.0,985.0,0.0
Y,R,"[6, 10]",1.0,6.0,0.4970059394836426,1.7476000785827637,0.255566285105296,98.0,986.0,0.0
R,U,"[5, 10]",-2.0,6.0,1.18497896194458,2.81917405128479,0.6743577256745821,98.0,987.0,0.0
R,U,"[4, 10]",1.0,7.0,0.43236589431762695,2.159605026245117,0.7338331778040628,98.0,988.0,0.0
B,L,"[4, 9]",1.0,8.0,0.2696502208709717,1.7764649391174316,0.5104101056568309,98.0,989.0,0.0
R,U,"[3, 9]",1.0,9.0,0.31388306617736816,1.9747581481933594,0.6685162952618735,98.0,990.0,0.0
,,"(6, 6)",,,,,,,,
R,U,"[5, 6]",1.0,1.0,0.3532249927520752,4.910133123397827,0.6117359275500888,99.0,991.0,0.0
Y,R,"[5, 7]",1.0,2.0,0.2650790214538574,1.7533740997314453,0.4985398790029797,99.0,992.0,0.0
Y,R,"[5, 8]",1.0,3.0,0.30884599685668945,2.009459972381592,0.6914305351768668,99.0,993.0,0.0
G,D,"[6, 8]",1.0,4.0,0.3610260486602783,1.7500410079956055,0.3914330509162775,99.0,994.0,0.0
Y,R,"[6, 9]",1.0,5.0,0.3508279323577881,2.073301076889038,0.7309580031395138,99.0,995.0,0.0
Y,R,"[6, 10]",1.0,6.0,0.28746891021728516,1.9508841037750244,0.6651743415054842,99.0,996.0,0.0
R,U,"[5, 10]",1.0,7.0,0.20960688591003418,1.772892951965332,0.5548801832771432,99.0,997.0,0.0
R,U,"[4, 10]",1.0,8.0,0.3805069923400879,1.9260790348052979,0.5309276155944116,99.0,998.0,0.0
B,L,"[4, 9]",1.0,9.0,0.23941302299499512,1.8951098918914795,0.6425660127155585,99.0,999.0,0.0
R,U,"[3, 9]",-1.0,9.0,0.04455995559692383,5.830862045288086,0.7232234369958008,99.0,1000.0,0.0
