button_choice,action_choice,coordinate_choice,reward,cumulative_reward,rt,total_trial_time,iti,block_n,trial_n,trial_type
R,U,"[5, 6]",-2.0,0.0,1.0960760116577148,2.45851993560791,0.3925890743139934,0.0,1.0,0.0
R,U,"[4, 6]",0.0,0.0,0.2711648941040039,1.873426914215088,0.6158547995632124,0.0,2.0,0.0
G,D,"[5, 6]",0.0,0.0,0.2349240779876709,1.964250087738037,0.7299165382920372,0.0,3.0,0.0
B,L,"[5, 5]",0.0,0.0,0.23007893562316895,1.875885009765625,0.6391834425589282,0.0,4.0,0.0
Y,R,"[5, 6]",0.0,0.0,0.24942612648010254,1.5585579872131348,0.31465422525934666,0.0,5.0,0.0
B,L,"[5, 5]",0.0,0.0,0.472121000289917,1.7350800037384033,0.26624851571210084,0.0,6.0,0.0
G,D,"[6, 5]",0.0,0.0,0.3774690628051758,1.6608538627624512,0.27707818847315036,0.0,7.0,0.0
R,U,"[5, 5]",0.0,0.0,0.3784599304199219,2.0881149768829346,0.7147293485965818,0.0,8.0,0.0
R,U,"[4, 5]",0.0,0.0,0.39148998260498047,1.8068971633911133,0.4051450180398108,0.0,9.0,0.0
R,U,"[3, 5]",0.0,0.0,0.369426965713501,1.774522066116333,0.4129245874799651,0.0,10.0,0.0
,,"(6, 6)",,,,,,,,
Y,R,"[6, 7]",0.0,0.0,0.41339588165283203,3.1877260208129883,0.5004808863156776,1.0,11.0,0.0
B,L,"[6, 6]",0.0,0.0,0.2857060432434082,1.972726821899414,0.6896462248551964,1.0,12.0,0.0
G,D,"[7, 6]",0.0,0.0,0.2860081195831299,1.9117789268493652,0.6346359897229006,1.0,13.0,0.0
R,U,"[6, 6]",0.0,0.0,0.23528289794921875,1.8314979076385498,0.5995342431389952,1.0,14.0,0.0
G,D,"[7, 6]",0.0,0.0,0.2749958038330078,1.9434340000152588,0.6593851164209257,1.0,15.0,0.0
B,L,"[7, 5]",0.0,0.0,0.26064205169677734,1.5747408866882324,0.3178821028476847,1.0,16.0,0.0
Y,R,"[7, 6]",0.0,0.0,0.4142880439758301,1.7683639526367188,0.35269789764219905,1.0,17.0,0.0
B,L,"[7, 5]",0.0,0.0,0.3325951099395752,1.7902719974517822,0.45948661229174315,1.0,18.0,0.0
G,D,"[8, 5]",0.0,0.0,0.32352113723754883,1.654709815979004,0.33089265604977114,1.0,19.0,0.0
B,L,"[8, 4]",-2.0,0.0,1.1836020946502686,2.8680849075317383,0.7151833708860371,1.0,20.0,0.0
,,"(6, 6)",,,,,,,,
B,L,"[6, 5]",0.0,0.0,0.42839479446411133,3.085975170135498,0.26829376572406427,2.0,21.0,0.0
R,U,"[5, 5]",0.0,0.0,0.19180893898010254,1.8159849643707275,0.6175705352315085,2.0,22.0,0.0
B,L,"[5, 4]",0.0,0.0,0.2758650779724121,1.6007990837097168,0.3181590593076409,2.0,23.0,0.0
R,U,"[4, 4]",0.0,0.0,0.4378798007965088,1.6954309940338135,0.2635653342388742,2.0,24.0,0.0
B,L,"[4, 3]",0.0,0.0,0.39899396896362305,1.876852035522461,0.47362504781098996,2.0,25.0,0.0
R,U,"[3, 3]",0.0,0.0,0.2661011219024658,1.7070379257202148,0.44725991551444344,2.0,26.0,0.0
B,L,"[3, 2]",0.0,0.0,0.2794950008392334,1.789306879043579,0.5030503891783801,2.0,27.0,0.0
R,U,"[2, 2]",0.0,0.0,0.25319600105285645,1.565290927886963,0.3185617466780283,2.0,28.0,0.0
B,L,"[2, 1]",0.0,0.0,0.47870492935180664,1.8675849437713623,0.3858953057738996,2.0,29.0,0.0
R,U,"[1, 1]",0.0,0.0,0.4168698787689209,1.9549250602722168,0.5408027680239571,2.0,30.0,0.0
,,"(6, 6)",,,,,,,,
G,D,"[7, 6]",0.0,0.0,0.823375940322876,3.596708059310913,0.6372647891965336,3.0,31.0,0.0
R,U,"[6, 6]",-1.0,0.0,0.08882498741149902,5.742511987686157,0.5795391852487075,3.0,32.0,0.0
R,U,"[5, 6]",1.0,1.0,0.449146032333374,2.0061159133911133,0.5524586075236928,3.0,33.0,0.0
R,U,"[4, 6]",0.0,1.0,0.39566993713378906,1.9181580543518066,0.520516371380584,3.0,34.0,0.0
R,U,"[3, 6]",0.0,1.0,0.3200540542602539,1.7505321502685547,0.43782224813294707,3.0,35.0,0.0
R,U,"[2, 6]",0.0,1.0,0.402087926864624,2.002393960952759,0.606529342934647,3.0,36.0,0.0
R,U,"[1, 6]",0.0,1.0,0.3450171947479248,1.6195340156555176,0.27644964346021655,3.0,37.0,0.0
R,U,"[2, 6]",-3.0,1.0,0.5824980735778809,2.117341995239258,0.5434533144389571,3.0,38.0,0.0
G,D,"[3, 6]",0.0,1.0,0.29163694381713867,1.6626148223876953,0.3728360224311455,3.0,39.0,0.0
R,U,"[2, 6]",0.0,1.0,0.29190897941589355,1.6072938442230225,0.3134956535424054,3.0,40.0,0.0
,,"(6, 6)",,,,,,,,
G,D,"[7, 6]",0.0,0.0,0.9258849620819092,3.747983932495117,0.5111828445751286,4.0,41.0,0.0
Y,R,"[7, 7]",0.0,0.0,0.35017895698547363,1.9702000617980957,0.631252809134548,4.0,42.0,0.0
R,U,"[6, 7]",0.0,0.0,0.3135569095611572,1.7079591751098633,0.3893987536113651,4.0,43.0,0.0
Y,R,"[6, 8]",1.0,1.0,0.4394650459289551,1.7706379890441895,0.32672449811594784,4.0,44.0,0.0
G,D,"[7, 8]",0.0,1.0,0.4359161853790283,2.108566999435425,0.6848158216177461,4.0,45.0,0.0
Y,R,"[7, 9]",0.0,1.0,0.2592480182647705,1.9793541431427002,0.7142154296124045,4.0,46.0,0.0
B,L,"[7, 8]",0.0,1.0,0.25691699981689453,1.5477700233459473,0.2789303542667854,4.0,47.0,0.0
Y,R,"[7, 9]",0.0,1.0,0.38981199264526367,2.109532117843628,0.7046469167249145,4.0,48.0,0.0
Y,R,"[7, 10]",0.0,1.0,0.29872703552246094,1.6073291301727295,0.31236942897335146,4.0,49.0,0.0
Y,R,"[7, 11]",0.0,1.0,0.2745089530944824,1.601943016052246,0.31428961082385787,4.0,50.0,0.0
,,"(6, 6)",,,,,,,,
R,U,"[5, 6]",1.0,1.0,0.6087479591369629,3.2319488525390625,0.41275899779882386,5.0,51.0,0.0
Y,R,"[5, 7]",1.0,2.0,0.6327588558197021,2.1289939880371094,0.49160805400385554,5.0,52.0,0.0
Y,R,"[5, 8]",1.0,3.0,0.3246769905090332,1.6413509845733643,0.3163731642529145,5.0,53.0,0.0
G,D,"[6, 8]",1.0,4.0,0.3420569896697998,1.6200108528137207,0.269705781508961,5.0,54.0,0.0
Y,R,"[6, 9]",1.0,5.0,0.560452938079834,2.0354979038238525,0.47159728043101856,5.0,55.0,0.0
Y,R,"[6, 10]",1.0,6.0,0.343080997467041,1.6367559432983398,0.29194744505553183,5.0,56.0,0.0
R,U,"[5, 10]",1.0,7.0,0.44972991943359375,1.972275972366333,0.5306424984113314,5.0,57.0,0.0
R,U,"[4, 10]",1.0,8.0,0.27236294746398926,1.5565071105957031,0.2872508685100717,5.0,58.0,0.0
B,L,"[4, 9]",1.0,9.0,0.4663069248199463,1.726248025894165,0.2635801191883239,5.0,59.0,0.0
G,D,"[5, 9]",0.0,9.0,0.4364800453186035,1.8726780414581299,0.43609371415711207,5.0,60.0,0.0
,,"(6, 6)",,,,,,,,
R,U,"[5, 6]",1.0,1.0,0.9166209697723389,3.5343918800354004,0.4203549260165843,6.0,61.0,0.0
Y,R,"[5, 7]",1.0,2.0,0.303983211517334,1.922584056854248,0.6260819628666345,6.0,62.0,0.0
Y,R,"[5, 8]",1.0,3.0,0.2562439441680908,1.6999139785766602,0.4427954934011338,6.0,63.0,0.0
G,D,"[6, 8]",1.0,4.0,0.2632629871368408,1.6921868324279785,0.43493813804056897,6.0,64.0,0.0
Y,R,"[6, 9]",1.0,5.0,0.2795138359069824,1.573246955871582,0.29165579174995754,6.0,65.0,0.0
Y,R,"[6, 10]",1.0,6.0,0.306567907333374,1.9886760711669922,0.6799325673660621,6.0,66.0,0.0
R,U,"[5, 10]",1.0,7.0,0.24408793449401855,1.6811349391937256,0.4279139047883075,6.0,67.0,0.0
R,U,"[4, 10]",1.0,8.0,0.30194592475891113,1.9667398929595947,0.6777060715276637,6.0,68.0,0.0
B,L,"[4, 9]",1.0,9.0,0.25817298889160156,1.7864902019500732,0.5310074175360303,6.0,69.0,0.0
R,U,"[3, 9]",1.0,10.0,0.27725696563720703,1.6308419704437256,0.345348009423284,6.0,70.0,0.0
,,"(6, 6)",,,,,,,,
R,U,"[5, 6]",-2.0,0.0,1.2679970264434814,3.913447141647339,0.6084171232529505,7.0,71.0,0.0
R,U,"[4, 6]",0.0,0.0,0.37476015090942383,1.6321930885314941,0.2575190570755763,7.0,72.0,0.0
R,U,"[3, 6]",0.0,0.0,0.4764690399169922,1.9822399616241455,0.5062162420828914,7.0,73.0,0.0
R,U,"[2, 6]",0.0,0.0,0.30405187606811523,1.754059076309204,0.4602140912700569,7.0,74.0,0.0
R,U,"[1, 6]",0.0,0.0,0.26612305641174316,1.7874619960784912,0.5310004989580188,7.0,75.0,0.0
Y,R,"[1, 7]",0.0,0.0,0.30211710929870605,1.9160218238830566,0.613785525652015,7.0,76.0,0.0
Y,R,"[1, 8]",0.0,0.0,0.22847294807434082,1.9728620052337646,0.7362744387323268,7.0,77.0,0.0
Y,R,"[1, 9]",0.0,0.0,0.2617950439453125,1.9797089099884033,0.7159684250711911,7.0,78.0,0.0
Y,R,"[1, 10]",0.0,0.0,0.18937897682189941,1.8595950603485107,0.6589357147853698,7.0,79.0,0.0
Y,R,"[1, 11]",0.0,0.0,0.29497599601745605,1.770855188369751,0.4801494820843467,7.0,80.0,0.0
,,"(6, 6)",,,,,,,,
R,U,"[5, 6]",1.0,1.0,0.42517709732055664,2.921915054321289,0.3019046289555636,8.0,81.0,0.0
Y,R,"[5, 7]",1.0,2.0,0.42844414710998535,1.8396029472351074,0.40812853179710074,8.0,82.0,0.0
Y,R,"[5, 8]",1.0,3.0,0.3679840564727783,2.0549259185791016,0.6959957049892089,8.0,83.0,0.0
R,U,"[4, 8]",0.0,3.0,0.27434206008911133,1.8886699676513672,0.6014950056450267,8.0,84.0,0.0
Y,R,"[4, 9]",1.0,4.0,0.272968053817749,1.8657429218292236,0.5837944227911263,8.0,85.0,0.0
R,U,"[3, 9]",1.0,5.0,0.3263871669769287,1.6672110557556152,0.33453395287495663,8.0,86.0,0.0
R,U,"[2, 9]",0.0,5.0,0.4146440029144287,1.8673532009124756,0.451837548725985,8.0,87.0,0.0
R,U,"[1, 9]",0.0,5.0,0.26491498947143555,1.6187870502471924,0.3540984787448327,8.0,88.0,0.0
R,U,"[2, 9]",-3.0,5.0,0.3512601852416992,2.0896379947662354,0.7432737893495909,8.0,89.0,0.0
R,U,"[1, 9]",0.0,5.0,0.3581390380859375,1.8778929710388184,0.5213800838203146,8.0,90.0,0.0
,,"(6, 6)",,,,,,,,
R,U,"[5, 6]",1.0,1.0,0.7193360328674316,3.4675450325012207,0.588687204607169,9.0,91.0,0.0
Y,R,"[5, 7]",1.0,2.0,0.26033687591552734,1.9568150043487549,0.6954823699173039,9.0,92.0,0.0
Y,R,"[5, 8]",1.0,3.0,0.2252368927001953,1.7448370456695557,0.5071399478436049,9.0,93.0,0.0
G,D,"[6, 8]",1.0,4.0,0.34783315658569336,2.058634042739868,0.7154564417064582,9.0,94.0,0.0
Y,R,"[6, 9]",1.0,5.0,0.2332758903503418,1.978111982345581,0.743474778251224,9.0,95.0,0.0
Y,R,"[6, 10]",1.0,6.0,0.22371888160705566,1.9292588233947754,0.7063519397382492,9.0,96.0,0.0
R,U,"[5, 10]",1.0,7.0,0.21715402603149414,1.7775390148162842,0.5673724491850176,9.0,97.0,0.0
R,U,"[4, 10]",1.0,8.0,0.29886507987976074,1.5980119705200195,0.2987850389819691,9.0,98.0,0.0
B,L,"[4, 9]",1.0,9.0,0.4497690200805664,1.7301108837127686,0.2789405375481198,9.0,99.0,0.0
R,U,"[3, 9]",1.0,10.0,0.5347199440002441,2.1027238368988037,0.5812014382604151,9.0,100.0,0.0
,,"(6, 6)",,,,,,,,
R,U,"[5, 6]",1.0,1.0,0.31589293479919434,5.622349977493286,0.6701203086645471,10.0,101.0,0.0
Y,R,"[5, 7]",1.0,2.0,0.2737131118774414,2.0061230659484863,0.7260812943478742,10.0,102.0,0.0
Y,R,"[5, 8]",1.0,3.0,0.2657320499420166,2.000325918197632,0.7431280981559096,10.0,103.0,0.0
R,U,"[4, 8]",0.0,3.0,0.500687837600708,1.846264123916626,0.3564335613042574,10.0,104.0,0.0
B,L,"[4, 7]",0.0,3.0,0.36185503005981445,2.0304391384124756,0.6698445108668162,10.0,105.0,0.0
Y,R,"[4, 8]",0.0,3.0,0.2815690040588379,1.900954008102417,0.6208330365107102,10.0,106.0,0.0
G,D,"[5, 8]",0.0,3.0,0.4403538703918457,2.0999178886413574,0.6538903475572695,10.0,107.0,0.0
R,U,"[4, 8]",0.0,3.0,0.22730803489685059,1.9285531044006348,0.6991258145310175,10.0,108.0,0.0
R,U,"[3, 8]",0.0,3.0,0.37296485900878906,1.9704670906066895,0.5863710374528199,10.0,109.0,0.0
G,D,"[4, 8]",0.0,3.0,0.2772538661956787,1.8994858264923096,0.6191488494571387,10.0,110.0,0.0
,,"(6, 6)",,,,,,,,
R,U,"[5, 6]",1.0,1.0,0.39276599884033203,3.52793288230896,0.5637873241912047,11.0,111.0,0.0
Y,R,"[5, 7]",1.0,2.0,0.4856879711151123,2.046794891357422,0.5605554988939965,11.0,112.0,0.0
Y,R,"[5, 8]",1.0,3.0,0.26656007766723633,1.9813289642333984,0.7250087926226276,11.0,113.0,0.0
G,D,"[6, 8]",-1.0,3.0,0.004606962203979492,5.5591020584106445,0.5008151250744206,11.0,114.0,0.0
G,D,"[7, 8]",0.0,3.0,0.299515962600708,1.7303309440612793,0.4312270617173258,11.0,115.0,0.0
B,L,"[7, 7]",0.0,3.0,0.29114198684692383,1.8687279224395752,0.5665926362299794,11.0,116.0,0.0
R,U,"[6, 7]",0.0,3.0,0.30866503715515137,1.8400001525878906,0.5232715502389176,11.0,117.0,0.0
R,U,"[5, 7]",0.0,3.0,0.2901589870452881,1.649064064025879,0.3557396845386043,11.0,118.0,0.0
R,U,"[4, 7]",0.0,3.0,0.37718701362609863,1.71340012550354,0.33587327327732236,11.0,119.0,0.0
B,L,"[4, 6]",0.0,3.0,0.3204801082611084,1.9312851428985596,0.6169085069907716,11.0,120.0,0.0
,,"(6, 6)",,,,,,,,
B,L,"[6, 5]",0.0,0.0,0.3879060745239258,2.8867111206054688,0.25390321591524667,12.0,121.0,0.0
G,D,"[7, 5]",0.0,0.0,0.39887213706970215,1.8443269729614258,0.44794478335266963,12.0,122.0,0.0
R,U,"[6, 5]",0.0,0.0,0.31785082817077637,1.9765658378601074,0.6577070745885103,12.0,123.0,0.0
R,U,"[5, 5]",0.0,0.0,0.2295849323272705,1.6544427871704102,0.42910879629008836,12.0,124.0,0.0
R,U,"[4, 5]",0.0,0.0,0.3864889144897461,1.7253789901733398,0.3377979828168138,12.0,125.0,0.0
Y,R,"[4, 6]",0.0,0.0,0.31870293617248535,1.7960221767425537,0.48370913519742137,12.0,126.0,0.0
R,U,"[3, 6]",0.0,0.0,0.26068902015686035,1.9147000312805176,0.6481463964598371,12.0,127.0,0.0
R,U,"[2, 6]",0.0,0.0,0.30516886711120605,1.886080026626587,0.5676671962584277,12.0,128.0,0.0
R,U,"[1, 6]",0.0,0.0,0.26386094093322754,1.9057180881500244,0.6399106813038445,12.0,129.0,0.0
R,U,"[2, 6]",-3.0,0.0,0.2586519718170166,1.9390010833740234,0.6788750190853177,12.0,130.0,0.0
,,"(6, 6)",,,,,,,,
G,D,"[7, 6]",0.0,0.0,0.6105570793151855,4.079958915710449,0.4423603240521884,13.0,131.0,0.0
B,L,"[7, 5]",0.0,0.0,0.3860011100769043,1.712583065032959,0.338368384014682,13.0,132.0,0.0
R,U,"[6, 5]",0.0,0.0,0.4183080196380615,1.7565460205078125,0.3448245969521677,13.0,133.0,0.0
R,U,"[5, 5]",0.0,0.0,0.32530808448791504,1.9717020988464355,0.6496274852189245,13.0,134.0,0.0
R,U,"[4, 5]",0.0,0.0,0.32094788551330566,1.7875680923461914,0.4706440928973338,13.0,135.0,0.0
B,L,"[4, 4]",0.0,0.0,0.32788801193237305,2.0279769897460938,0.6984368927436132,13.0,136.0,0.0
R,U,"[3, 4]",0.0,0.0,0.34923815727233887,2.0760560035705566,0.7243926044244577,13.0,137.0,0.0
R,U,"[2, 4]",0.0,0.0,0.3458847999572754,2.037003993988037,0.6947125197317789,13.0,138.0,0.0
R,U,"[1, 4]",0.0,0.0,0.30948591232299805,1.5710170269012451,0.26612322404752037,13.0,139.0,0.0
G,D,"[2, 4]",0.0,0.0,0.44719982147216797,1.7482671737670898,0.297661573732021,13.0,140.0,0.0
,,"(6, 6)",,,,,,,,
R,U,"[5, 6]",1.0,1.0,0.5734930038452148,3.5498859882354736,0.697201713098788,14.0,141.0,0.0
Y,R,"[5, 7]",1.0,2.0,0.22382116317749023,1.8704819679260254,0.6343918448630168,14.0,142.0,0.0
Y,R,"[5, 8]",1.0,3.0,0.19617199897766113,1.483497142791748,0.2848190376720559,14.0,143.0,0.0
G,D,"[6, 8]",1.0,4.0,0.41682004928588867,1.6910040378570557,0.2758948586757343,14.0,144.0,0.0
Y,R,"[6, 9]",1.0,5.0,0.30476903915405273,1.7031300067901611,0.4122360404208647,14.0,145.0,0.0
Y,R,"[6, 10]",1.0,6.0,0.2250831127166748,1.7867040634155273,0.5488017066070692,14.0,146.0,0.0
R,U,"[5, 10]",1.0,7.0,0.2657327651977539,1.5964550971984863,0.32877529489142515,14.0,147.0,0.0
R,U,"[4, 10]",1.0,8.0,0.3336179256439209,1.9749538898468018,0.6533130892404158,14.0,148.0,0.0
B,L,"[4, 9]",1.0,9.0,0.2547600269317627,1.5773200988769531,0.33092382807038284,14.0,149.0,0.0
R,U,"[3, 9]",1.0,10.0,0.41637396812438965,1.7093091011047363,0.2903474891769633,14.0,150.0,0.0
,,"(6, 6)",,,,,,,,
G,D,"[7, 6]",-2.0,0.0,1.592371940612793,4.003045082092285,0.393227950222174,15.0,151.0,0.0
G,D,"[8, 6]",0.0,0.0,0.46736717224121094,2.0990850925445557,0.6420578105875846,15.0,152.0,0.0
B,L,"[8, 5]",0.0,0.0,0.26931309700012207,1.7176008224487305,0.45972706984579015,15.0,153.0,0.0
R,U,"[7, 5]",0.0,0.0,0.2926759719848633,1.9159421920776367,0.6256285695091673,15.0,154.0,0.0
Y,R,"[7, 6]",0.0,0.0,0.22916102409362793,1.598149061203003,0.373918690763522,15.0,155.0,0.0
B,L,"[7, 5]",0.0,0.0,0.2910339832305908,1.9972171783447266,0.7041812928415092,15.0,156.0,0.0
G,D,"[8, 5]",0.0,0.0,0.1898820400238037,1.8600521087646484,0.6646369804673312,15.0,157.0,0.0
R,U,"[7, 5]",0.0,0.0,0.3903319835662842,2.0050859451293945,0.6027784993012063,15.0,158.0,0.0
Y,R,"[7, 6]",0.0,0.0,0.5586321353912354,2.1273019313812256,0.5634171254852385,15.0,159.0,0.0
G,D,"[8, 6]",0.0,0.0,0.3928999900817871,1.764523983001709,0.36147925632347755,15.0,160.0,0.0
,,"(6, 6)",,,,,,,,
R,U,"[5, 6]",1.0,1.0,0.4598400592803955,6.974218130111694,0.63525087901508,16.0,161.0,0.0
Y,R,"[5, 7]",1.0,2.0,0.31349706649780273,2.0166330337524414,0.7023155895811164,16.0,162.0,0.0
Y,R,"[5, 8]",1.0,3.0,0.1588449478149414,1.7252998352050781,0.5606346516215499,16.0,163.0,0.0
R,U,"[4, 8]",-1.0,3.0,0.05763506889343262,5.81958794593811,0.7137855185374794,16.0,164.0,0.0
R,U,"[3, 8]",0.0,3.0,0.4127621650695801,2.0360121726989746,0.6161312155077775,16.0,165.0,0.0
Y,R,"[3, 9]",1.0,4.0,0.14250397682189941,1.8880069255828857,0.7373206249004003,16.0,166.0,0.0
R,U,"[2, 9]",0.0,4.0,0.35021376609802246,1.7343778610229492,0.3886523324557553,16.0,167.0,0.0
Y,R,"[2, 10]",0.0,4.0,0.44376587867736816,2.044672966003418,0.5998460959512779,16.0,168.0,0.0
Y,R,"[2, 11]",0.0,4.0,0.33708906173706055,1.9241831302642822,0.5909441011881271,16.0,169.0,0.0
R,U,"[1, 11]",0.0,4.0,0.31710290908813477,1.8469350337982178,0.5375777152967629,16.0,170.0,0.0
,,"(6, 6)",,,,,,,,
R,U,"[5, 6]",1.0,1.0,0.5900678634643555,4.060732126235962,0.6981937469543775,17.0,171.0,0.0
R,U,"[4, 6]",0.0,1.0,0.8903379440307617,2.3480570316314697,0.44638438622995696,17.0,172.0,0.0
G,D,"[5, 6]",0.0,1.0,0.3804340362548828,2.0308949947357178,0.6437795517709914,17.0,173.0,0.0
G,D,"[6, 6]",-1.0,1.0,0.03828597068786621,5.51810097694397,0.428727938661128,17.0,174.0,0.0
G,D,"[7, 6]",0.0,1.0,0.5912690162658691,2.316737174987793,0.7118709291977586,17.0,175.0,0.0
B,L,"[7, 5]",0.0,1.0,0.4336228370666504,1.7698249816894531,0.33198324330053897,17.0,176.0,0.0
B,L,"[7, 4]",0.0,1.0,0.5503029823303223,1.8013889789581299,0.25020967028158003,17.0,177.0,0.0
G,D,"[8, 4]",0.0,1.0,0.6579530239105225,2.1583070755004883,0.49159183097936554,17.0,178.0,0.0
B,L,"[8, 3]",0.0,1.0,0.35697007179260254,1.8184688091278076,0.4599936531989296,17.0,179.0,0.0
G,D,"[9, 3]",0.0,1.0,0.5012259483337402,1.8671588897705078,0.37720627736103607,17.0,180.0,0.0
,,"(6, 6)",,,,,,,,
R,U,"[5, 6]",1.0,1.0,0.24075984954833984,4.952521085739136,0.3464941313245217,18.0,181.0,0.0
R,U,"[4, 6]",0.0,1.0,0.4718468189239502,1.7790789604187012,0.3089370335547591,18.0,182.0,0.0
G,D,"[5, 6]",0.0,1.0,0.48725080490112305,1.9263389110565186,0.45177135262589185,18.0,183.0,0.0
B,L,"[5, 5]",0.0,1.0,0.37888097763061523,2.073697090148926,0.6918866895996617,18.0,184.0,0.0
B,L,"[5, 4]",0.0,1.0,0.3674130439758301,1.8494889736175537,0.4914597340362742,18.0,185.0,0.0
G,D,"[6, 4]",0.0,1.0,0.3271369934082031,2.0431020259857178,0.7177479361159761,18.0,186.0,0.0
B,L,"[6, 3]",0.0,1.0,0.28605198860168457,1.7803280353546143,0.49830649533866006,18.0,187.0,0.0
G,D,"[7, 3]",0.0,1.0,0.3567681312561035,1.6232080459594727,0.254993898743895,18.0,188.0,0.0
G,D,"[8, 3]",0.0,1.0,0.6590991020202637,2.033082962036133,0.37133920933411985,18.0,189.0,0.0
G,D,"[9, 3]",0.0,1.0,0.4600260257720947,1.9952259063720703,0.5330001475619138,18.0,190.0,0.0
,,"(6, 6)",,,,,,,,
R,U,"[5, 6]",-1.0,0.0,0.007309913635253906,7.312630891799927,0.362583772584021,19.0,191.0,0.0
R,U,"[4, 6]",0.0,0.0,0.420428991317749,1.7649590969085693,0.3606580308780138,19.0,192.0,0.0
G,D,"[5, 6]",0.0,0.0,0.5170421600341797,2.05662202835083,0.5504615512788413,19.0,193.0,0.0
G,D,"[6, 6]",0.0,0.0,0.4336268901824951,1.8081610202789307,0.3755144561510024,19.0,194.0,0.0
G,D,"[7, 6]",-2.0,0.0,1.0613110065460205,2.428450107574463,0.4037481466452718,19.0,195.0,0.0
G,D,"[8, 6]",-1.0,0.0,0.03925490379333496,5.820778131484985,0.7242998931165456,19.0,196.0,0.0
Y,R,"[8, 7]",0.0,0.0,0.5135338306427002,2.122688055038452,0.6137838647069922,19.0,197.0,0.0
Y,R,"[8, 8]",0.0,0.0,0.5459280014038086,2.227555990219116,0.6746114579194344,19.0,198.0,0.0
B,L,"[8, 7]",0.0,0.0,0.43325281143188477,1.8934988975524902,0.4682401353357882,19.0,199.0,0.0
B,L,"[8, 6]",0.0,0.0,0.5113480091094971,2.0383758544921875,0.523244604551591,19.0,200.0,0.0
,,"(6, 6)",,,,,,,,
G,D,"[7, 6]",-2.0,0.0,1.7477359771728516,5.365799903869629,0.2892808968329117,20.0,201.0,0.0
B,L,"[7, 5]",0.0,0.0,0.9586770534515381,2.7033448219299316,0.7422262044455963,20.0,202.0,0.0
Y,R,"[7, 6]",0.0,0.0,0.41115307807922363,1.7208399772644043,0.3133520597060207,20.0,203.0,0.0
Y,R,"[7, 7]",0.0,0.0,0.4598050117492676,1.8435189723968506,0.37348148173085316,20.0,204.0,0.0
B,L,"[7, 6]",0.0,0.0,0.5826900005340576,2.0691568851470947,0.49258056795322247,20.0,205.0,0.0
B,L,"[7, 5]",-2.0,0.0,1.251830816268921,2.6163148880004883,0.40889793931800517,20.0,206.0,0.0
B,L,"[7, 4]",0.0,0.0,0.8816699981689453,2.300658941268921,0.4262069246921845,20.0,207.0,0.0
G,D,"[8, 4]",-2.0,0.0,1.5081238746643066,2.861049175262451,0.3872774436488005,20.0,208.0,0.0
G,D,"[9, 4]",0.0,0.0,0.4324328899383545,2.1179051399230957,0.6882088073311959,20.0,209.0,0.0
G,D,"[10, 4]",0.0,0.0,0.46985507011413574,2.0161399841308594,0.554424054724767,20.0,210.0,0.0
,,"(6, 6)",,,,,,,,
G,D,"[7, 6]",-2.0,0.0,1.0035021305084229,6.0765159130096436,0.4310239233346369,21.0,211.0,0.0
G,D,"[8, 6]",0.0,0.0,0.43707895278930664,1.8197729587554932,0.3842575984732609,21.0,212.0,0.0
G,D,"[9, 6]",0.0,0.0,0.6230149269104004,2.0903501510620117,0.4578073571797434,21.0,213.0,0.0
G,D,"[10, 6]",0.0,0.0,0.5006630420684814,1.9923810958862305,0.5001411769455499,21.0,214.0,0.0
G,D,"[11, 6]",0.0,0.0,0.5446028709411621,2.153168201446533,0.6031778841543267,21.0,215.0,0.0
G,D,"[10, 6]",-3.0,0.0,0.3029491901397705,1.6198339462280273,0.323255336014565,21.0,216.0,0.0
G,D,"[11, 6]",0.0,0.0,0.5228791236877441,1.8080580234527588,0.28131830566233706,21.0,217.0,0.0
G,D,"[10, 6]",-3.0,0.0,0.6173040866851807,2.053270101547241,0.43427362535559955,21.0,218.0,0.0
G,D,"[11, 6]",0.0,0.0,0.2712850570678711,1.7994780540466309,0.5335594367158751,21.0,219.0,0.0
G,D,"[10, 6]",-3.0,0.0,0.3852119445800781,2.060939073562622,0.6774777854382009,21.0,220.0,0.0
,,"(6, 6)",,,,,,,,
G,D,"[7, 6]",-2.0,0.0,1.1103541851043701,4.783973217010498,0.6611534720611619,22.0,221.0,0.0
G,D,"[8, 6]",0.0,0.0,0.42491793632507324,2.0833849906921387,0.661178749250714,22.0,222.0,0.0
G,D,"[9, 6]",0.0,0.0,0.4055171012878418,2.0583889484405518,0.653029032473591,22.0,223.0,0.0
G,D,"[10, 6]",0.0,0.0,0.384814977645874,1.8695957660675049,0.4890216785809092,22.0,224.0,0.0
G,D,"[11, 6]",0.0,0.0,0.34013891220092773,1.7786269187927246,0.4342145072749649,22.0,225.0,0.0
G,D,"[10, 6]",-3.0,0.0,0.3787970542907715,1.8037538528442383,0.42147275540640344,22.0,226.0,0.0
B,L,"[10, 5]",0.0,0.0,0.36977291107177734,1.6332850456237793,0.27117883569959533,22.0,227.0,0.0
G,D,"[11, 5]",0.0,0.0,0.5435130596160889,1.8071849346160889,0.26159312368379306,22.0,228.0,0.0
G,D,"[10, 5]",-3.0,0.0,0.5664138793945312,1.8433818817138672,0.28819860510416556,22.0,229.0,0.0
G,D,"[11, 5]",0.0,0.0,0.5644049644470215,1.8970119953155518,0.3349799969953003,22.0,230.0,0.0
,,"(6, 6)",,,,,,,,
R,U,"[5, 6]",1.0,1.0,0.5032749176025391,3.6532301902770996,0.3212999278052241,23.0,231.0,0.0
Y,R,"[5, 7]",1.0,2.0,0.40422797203063965,1.968092918395996,0.5723568224827615,23.0,232.0,0.0
Y,R,"[5, 8]",1.0,3.0,0.2269148826599121,1.6257798671722412,0.39835368131539023,23.0,233.0,0.0
R,U,"[4, 8]",0.0,3.0,0.4133939743041992,2.154136896133423,0.7352481135855178,23.0,234.0,0.0
B,L,"[4, 7]",0.0,3.0,0.14138484001159668,1.5777199268341064,0.42991176979687185,23.0,235.0,0.0
G,D,"[5, 7]",0.0,3.0,0.4420437812805176,2.188153028488159,0.7342573849443907,23.0,236.0,0.0
G,D,"[6, 7]",0.0,3.0,0.3686099052429199,2.0211031436920166,0.6553577669040331,23.0,237.0,0.0
G,D,"[7, 7]",0.0,3.0,0.5750348567962646,2.1906991004943848,0.6126246108505778,23.0,238.0,0.0
B,L,"[7, 6]",0.0,3.0,0.4440958499908447,1.9009160995483398,0.4468488135430987,23.0,239.0,0.0
G,D,"[8, 6]",0.0,3.0,0.28096985816955566,1.5453379154205322,0.25897105725761377,23.0,240.0,0.0
,,"(6, 6)",,,,,,,,
R,U,"[5, 6]",1.0,1.0,0.6829819679260254,5.840313911437988,0.5486750065220476,24.0,241.0,0.0
R,U,"[4, 6]",0.0,1.0,0.7006909847259521,2.2558279037475586,0.5543654990907942,24.0,242.0,0.0
R,U,"[3, 6]",0.0,1.0,0.2844889163970947,1.6308000087738037,0.3519182140811415,24.0,243.0,0.0
G,D,"[4, 6]",0.0,1.0,0.5252470970153809,2.0180928707122803,0.48644339887103616,24.0,244.0,0.0
R,U,"[3, 6]",0.0,1.0,0.3275630474090576,1.9981989860534668,0.667569092388886,24.0,245.0,0.0
R,U,"[2, 6]",0.0,1.0,0.45154309272766113,1.8924150466918945,0.44344302867247387,24.0,246.0,0.0
R,U,"[1, 6]",0.0,1.0,0.4442281723022461,1.8439087867736816,0.4040216189834238,24.0,247.0,0.0
R,U,"[2, 6]",-3.0,1.0,0.6351330280303955,2.162416934967041,0.5328851264362986,24.0,248.0,0.0
Y,R,"[2, 7]",0.0,1.0,0.3554558753967285,1.6027801036834717,0.2523913513388611,24.0,249.0,0.0
B,L,"[2, 6]",0.0,1.0,0.5355098247528076,1.9905691146850586,0.45934368418135674,24.0,250.0,0.0
,,"(6, 6)",,,,,,,,
R,U,"[5, 6]",1.0,1.0,0.5003969669342041,3.4011621475219727,0.5269188481351905,25.0,251.0,0.0
Y,R,"[5, 7]",1.0,2.0,0.4941110610961914,2.15767502784729,0.6677519840510935,25.0,252.0,0.0
Y,R,"[5, 8]",1.0,3.0,0.326416015625,1.755382776260376,0.4232049105696027,25.0,253.0,0.0
G,D,"[6, 8]",1.0,4.0,0.4144768714904785,1.927245855331421,0.5170146505892645,25.0,254.0,0.0
Y,R,"[6, 9]",1.0,5.0,0.48804306983947754,1.8767659664154053,0.3938105063643284,25.0,255.0,0.0
Y,R,"[6, 10]",1.0,6.0,0.4494659900665283,1.8556790351867676,0.4159938296395951,25.0,256.0,0.0
R,U,"[5, 10]",1.0,7.0,0.3967289924621582,1.7453491687774658,0.34468980978817393,25.0,257.0,0.0
R,U,"[4, 10]",1.0,8.0,0.3955719470977783,1.694159984588623,0.30543290623649055,25.0,258.0,0.0
B,L,"[4, 9]",-1.0,8.0,0.022726058959960938,5.651594161987305,0.5731227958470226,25.0,259.0,0.0
Y,R,"[4, 10]",0.0,8.0,0.23424696922302246,1.552549123764038,0.32583587036868533,25.0,260.0,0.0
,,"(6, 6)",,,,,,,,
R,U,"[5, 6]",1.0,1.0,0.62540602684021,3.2687649726867676,0.31108153985781456,26.0,261.0,0.0
Y,R,"[5, 7]",1.0,2.0,0.3445899486541748,1.741806983947754,0.4027387734670528,26.0,262.0,0.0
Y,R,"[5, 8]",1.0,3.0,0.2936091423034668,1.5919301509857178,0.294725039097368,26.0,263.0,0.0
G,D,"[6, 8]",1.0,4.0,0.44561004638671875,1.8944690227508545,0.4556356181873503,26.0,264.0,0.0
B,L,"[6, 7]",0.0,4.0,0.43523693084716797,1.8547711372375488,0.42687894736370047,26.0,265.0,0.0
Y,R,"[6, 8]",0.0,4.0,0.21114397048950195,1.4702000617980957,0.2639292467755224,26.0,266.0,0.0
Y,R,"[6, 9]",1.0,5.0,0.6799111366271973,2.0481929779052734,0.3618026892140317,26.0,267.0,0.0
Y,R,"[6, 10]",1.0,6.0,0.2874422073364258,2.018371105194092,0.7464917244549982,26.0,268.0,0.0
Y,R,"[6, 11]",-1.0,6.0,0.04680991172790527,5.4159159660339355,0.2958769948476913,26.0,269.0,0.0
B,L,"[6, 10]",0.0,6.0,0.4414231777191162,2.037324905395508,0.5828468441018844,26.0,270.0,0.0
,,"(6, 6)",,,,,,,,
B,L,"[6, 5]",0.0,0.0,0.36940908432006836,4.660380840301514,0.5263895984898993,27.0,271.0,0.0
B,L,"[6, 4]",0.0,0.0,0.6572999954223633,2.262558937072754,0.6221243226321418,27.0,272.0,0.0
B,L,"[6, 3]",0.0,0.0,0.3616659641265869,1.972797155380249,0.6115637858778551,27.0,273.0,0.0
G,D,"[7, 3]",0.0,0.0,0.23173093795776367,1.5948271751403809,0.3730964755421706,27.0,274.0,0.0
Y,R,"[7, 4]",0.0,0.0,0.3827528953552246,1.9981410503387451,0.6208262021106705,27.0,275.0,0.0
G,D,"[8, 4]",0.0,0.0,0.3097538948059082,1.7385289669036865,0.4262302635010143,27.0,276.0,0.0
G,D,"[9, 4]",0.0,0.0,0.49834108352661133,2.1287930011749268,0.638028053086747,27.0,277.0,0.0
G,D,"[10, 4]",0.0,0.0,0.26662707328796387,1.6934452056884766,0.4315495915799411,27.0,278.0,0.0
G,D,"[11, 4]",0.0,0.0,0.37101197242736816,2.119601011276245,0.7341469453018128,27.0,279.0,0.0
G,D,"[10, 4]",-3.0,0.0,0.3933119773864746,2.135099172592163,0.7358134848058253,27.0,280.0,0.0
,,"(6, 6)",,,,,,,,
G,D,"[7, 6]",0.0,0.0,0.38326597213745117,3.0564370155334473,0.3924500901383648,28.0,281.0,0.0
G,D,"[8, 6]",0.0,0.0,0.6290349960327148,1.9617090225219727,0.3373409889714797,28.0,282.0,0.0
G,D,"[9, 6]",0.0,0.0,0.34578394889831543,1.6908321380615234,0.3448399848998143,28.0,283.0,0.0
G,D,"[10, 6]",0.0,0.0,0.3369770050048828,1.6372699737548828,0.315505623221923,28.0,284.0,0.0
G,D,"[11, 6]",0.0,0.0,0.31995701789855957,1.6246709823608398,0.3066763671005259,28.0,285.0,0.0
B,L,"[11, 5]",0.0,0.0,0.3552229404449463,1.966752052307129,0.6063480988346795,28.0,286.0,0.0
B,L,"[11, 4]",0.0,0.0,0.26053380966186523,1.6430151462554932,0.382892219274652,28.0,287.0,0.0
B,L,"[11, 3]",0.0,0.0,0.3288381099700928,1.7063920497894287,0.3725539358939315,28.0,288.0,0.0
B,L,"[11, 2]",0.0,0.0,0.31793880462646484,1.658898115158081,0.34806445769603084,28.0,289.0,0.0
B,L,"[11, 1]",0.0,0.0,0.3529050350189209,1.8842551708221436,0.5320476372963711,28.0,290.0,0.0
,,"(6, 6)",,,,,,,,
B,L,"[6, 5]",0.0,0.0,0.4991910457611084,3.6324219703674316,0.697528958207452,29.0,291.0,0.0
B,L,"[6, 4]",0.0,0.0,0.2611370086669922,1.7396798133850098,0.4706728523800308,29.0,292.0,0.0
B,L,"[6, 3]",0.0,0.0,0.441788911819458,1.785491943359375,0.33950696474974584,29.0,293.0,0.0
B,L,"[6, 2]",0.0,0.0,0.2714419364929199,1.6567649841308594,0.3960891173858168,29.0,294.0,0.0
B,L,"[6, 1]",0.0,0.0,0.24677515029907227,1.6570639610290527,0.4030862342245717,29.0,295.0,0.0
B,L,"[6, 2]",-3.0,0.0,0.35602903366088867,1.9395959377288818,0.575756833796464,29.0,296.0,0.0
G,D,"[7, 2]",0.0,0.0,0.3294370174407959,1.9364337921142578,0.6122080760001507,29.0,297.0,0.0
G,D,"[8, 2]",0.0,0.0,0.31235599517822266,1.682642936706543,0.3615366432183933,29.0,298.0,0.0
G,D,"[9, 2]",0.0,0.0,0.6027600765228271,2.0306239128112793,0.44210019716885457,29.0,299.0,0.0
G,D,"[10, 2]",0.0,0.0,0.25536298751831055,1.987894058227539,0.7296487771387958,29.0,300.0,0.0
,,"(6, 6)",,,,,,,,
R,U,"[5, 6]",1.0,1.0,0.37907886505126953,2.560541868209839,0.3571021214150034,30.0,301.0,0.0
R,U,"[4, 6]",0.0,1.0,0.27130794525146484,1.798147201538086,0.5383498465430857,30.0,302.0,0.0
R,U,"[3, 6]",0.0,1.0,0.29533886909484863,1.5739350318908691,0.2791697966180987,30.0,303.0,0.0
R,U,"[2, 6]",0.0,1.0,0.44304800033569336,1.8568651676177979,0.40235830726343336,30.0,304.0,0.0
R,U,"[1, 6]",0.0,1.0,0.5260021686553955,1.8401730060577393,0.3093238813748834,30.0,305.0,0.0
R,U,"[2, 6]",-3.0,1.0,0.745171070098877,2.424353837966919,0.6832175207449459,30.0,306.0,0.0
R,U,"[1, 6]",0.0,1.0,0.40729188919067383,1.7027759552001953,0.2863191111753016,30.0,307.0,0.0
R,U,"[2, 6]",-3.0,1.0,0.334306001663208,1.8888959884643555,0.5582254962877302,30.0,308.0,0.0
R,U,"[1, 6]",0.0,1.0,0.2419271469116211,1.8896639347076416,0.6477490881302319,30.0,309.0,0.0
R,U,"[2, 6]",-3.0,1.0,0.2209479808807373,1.6254768371582031,0.4067150091515432,30.0,310.0,0.0
,,"(6, 6)",,,,,,,,
G,D,"[7, 6]",0.0,0.0,0.6584329605102539,2.9337849617004395,0.7066788019195398,31.0,311.0,0.0
G,D,"[8, 6]",0.0,0.0,0.26893091201782227,1.5489301681518555,0.2894062417066708,31.0,312.0,0.0
G,D,"[9, 6]",0.0,0.0,0.6258518695831299,2.050642967224121,0.42318464081970264,31.0,313.0,0.0
G,D,"[10, 6]",0.0,0.0,0.6758089065551758,2.3596160411834717,0.6824402461905894,31.0,314.0,0.0
G,D,"[11, 6]",0.0,0.0,0.37619495391845703,1.8734159469604492,0.48929731801771514,31.0,315.0,0.0
G,D,"[10, 6]",-3.0,0.0,0.3375821113586426,1.6857731342315674,0.3584104816304606,31.0,316.0,0.0
G,D,"[11, 6]",0.0,0.0,0.4431760311126709,1.923125982284546,0.48166515980979996,31.0,317.0,0.0
G,D,"[10, 6]",-3.0,0.0,0.38486218452453613,1.7269339561462402,0.3416009681898285,31.0,318.0,0.0
G,D,"[11, 6]",0.0,0.0,0.7451920509338379,2.119837999343872,0.37797666706186833,31.0,319.0,0.0
G,D,"[10, 6]",-3.0,0.0,0.5675618648529053,2.2102389335632324,0.6545427114581885,31.0,320.0,0.0
,,"(6, 6)",,,,,,,,
B,L,"[6, 5]",0.0,0.0,0.36729907989501953,2.997004985809326,0.36846191823582464,32.0,321.0,0.0
B,L,"[6, 4]",0.0,0.0,0.5617828369140625,2.156796932220459,0.5916930216757299,32.0,322.0,0.0
B,L,"[6, 3]",0.0,0.0,0.3037290573120117,1.927088975906372,0.6352783485128481,32.0,323.0,0.0
B,L,"[6, 2]",0.0,0.0,0.15938711166381836,1.5633111000061035,0.3988062115174231,32.0,324.0,0.0
B,L,"[6, 1]",0.0,0.0,0.5477139949798584,2.2096500396728516,0.6580434524297845,32.0,325.0,0.0
B,L,"[6, 2]",-3.0,0.0,0.25972509384155273,1.6044440269470215,0.3461566083825163,32.0,326.0,0.0
B,L,"[6, 1]",0.0,0.0,0.6369819641113281,2.2101950645446777,0.5726226870400946,32.0,327.0,0.0
B,L,"[6, 2]",-3.0,0.0,0.5860488414764404,1.8687078952789307,0.29157832753964996,32.0,328.0,0.0
B,L,"[6, 1]",0.0,0.0,0.49231696128845215,2.182889938354492,0.6906933402671256,32.0,329.0,0.0
B,L,"[6, 2]",-3.0,0.0,0.41297101974487305,2.03263521194458,0.6233603103941481,32.0,330.0,0.0
,,"(6, 6)",,,,,,,,
Y,R,"[6, 7]",0.0,0.0,0.605320930480957,2.8496530055999756,0.40646807721653333,33.0,331.0,0.0
Y,R,"[6, 8]",1.0,1.0,0.5546579360961914,2.277087926864624,0.7331517840553139,33.0,332.0,0.0
Y,R,"[6, 9]",-1.0,1.0,0.04888010025024414,5.72294020652771,0.605990531984546,33.0,333.0,0.0
Y,R,"[6, 10]",-1.0,1.0,0.00504612922668457,5.361716985702515,0.30104715140699767,33.0,334.0,0.0
Y,R,"[6, 11]",0.0,1.0,0.3958568572998047,1.7396948337554932,0.34076507607989565,33.0,335.0,0.0
Y,R,"[6, 10]",-3.0,1.0,0.5425570011138916,2.035101890563965,0.492529181725786,33.0,336.0,0.0
Y,R,"[6, 11]",0.0,1.0,0.46642613410949707,2.022765874862671,0.5649610286936327,33.0,337.0,0.0
Y,R,"[6, 10]",-3.0,1.0,0.4258410930633545,2.1042709350585938,0.668914527812815,33.0,338.0,0.0
Y,R,"[6, 11]",0.0,1.0,0.4458451271057129,1.7195000648498535,0.2720737860886432,33.0,339.0,0.0
Y,R,"[6, 10]",-3.0,1.0,0.5114970207214355,1.8317160606384277,0.32041289476900126,33.0,340.0,0.0
,,"(6, 6)",,,,,,,,
B,L,"[6, 5]",0.0,0.0,0.6895248889923096,3.6571269035339355,0.34410240227558175,34.0,341.0,0.0
B,L,"[6, 4]",0.0,0.0,0.4957551956176758,2.2018401622772217,0.7122147302288069,34.0,342.0,0.0
B,L,"[6, 3]",0.0,0.0,0.39823007583618164,1.8987629413604736,0.4946789522734755,34.0,343.0,0.0
B,L,"[6, 2]",0.0,0.0,0.3807189464569092,2.0311079025268555,0.658682236692603,34.0,344.0,0.0
B,L,"[6, 1]",0.0,0.0,0.13261699676513672,1.8366169929504395,0.711847003155977,34.0,345.0,0.0
B,L,"[6, 2]",-3.0,0.0,0.2866230010986328,1.558948040008545,0.2877964299739901,34.0,346.0,0.0
B,L,"[6, 1]",0.0,0.0,0.6093900203704834,2.023953914642334,0.41146641097844094,34.0,347.0,0.0
B,L,"[6, 2]",-3.0,0.0,0.5486948490142822,2.125864028930664,0.587208366910962,34.0,348.0,0.0
B,L,"[6, 1]",0.0,0.0,0.4527781009674072,1.9437410831451416,0.4976463017432205,34.0,349.0,0.0
B,L,"[6, 2]",-3.0,0.0,0.43532705307006836,1.9997279644012451,0.5638737361833519,34.0,350.0,0.0
,,"(6, 6)",,,,,,,,
G,D,"[7, 6]",0.0,0.0,0.721289873123169,3.447434186935425,0.3612844423326095,35.0,351.0,0.0
Y,R,"[7, 7]",0.0,0.0,0.75394606590271,2.0029051303863525,0.2642944048677278,35.0,352.0,0.0
Y,R,"[7, 8]",0.0,0.0,0.5053150653839111,1.9049248695373535,0.3858373346889468,35.0,353.0,0.0
Y,R,"[7, 9]",0.0,0.0,0.6365211009979248,2.1985678672790527,0.5673888726452991,35.0,354.0,0.0
Y,R,"[7, 10]",0.0,0.0,0.16820693016052246,1.9106080532073975,0.7445027535170954,35.0,355.0,0.0
Y,R,"[7, 11]",0.0,0.0,0.4702568054199219,1.7291240692138672,0.273958306463236,35.0,356.0,0.0
Y,R,"[7, 10]",-3.0,0.0,0.6478941440582275,2.347548007965088,0.7044583800766366,35.0,357.0,0.0
Y,R,"[7, 11]",0.0,0.0,0.27839183807373047,1.6646580696105957,0.3859995197315407,35.0,358.0,0.0
Y,R,"[7, 10]",-3.0,0.0,0.339418888092041,1.978238821029663,0.6308149688147684,35.0,359.0,0.0
Y,R,"[7, 11]",0.0,0.0,0.46486401557922363,2.041248083114624,0.5718698731872065,35.0,360.0,0.0
,,"(6, 6)",,,,,,,,
Y,R,"[6, 7]",0.0,0.0,0.5865359306335449,3.3708648681640625,0.4927062224163295,36.0,361.0,0.0
Y,R,"[6, 8]",1.0,1.0,0.9798569679260254,2.3629279136657715,0.38899265005628,36.0,362.0,0.0
Y,R,"[6, 9]",1.0,2.0,0.3870968818664551,1.6422929763793945,0.2645798970676592,36.0,363.0,0.0
Y,R,"[6, 10]",1.0,3.0,0.4921870231628418,2.1393041610717773,0.6367638453763144,36.0,364.0,0.0
Y,R,"[6, 11]",0.0,3.0,0.7068450450897217,2.231766939163208,0.5187211946431022,36.0,365.0,0.0
Y,R,"[6, 10]",-3.0,3.0,0.4775080680847168,1.8352890014648438,0.35412005310711747,36.0,366.0,0.0
Y,R,"[6, 11]",0.0,3.0,0.5760400295257568,2.1057839393615723,0.5262688858818227,36.0,367.0,0.0
Y,R,"[6, 10]",-3.0,3.0,0.36800312995910645,2.1064958572387695,0.7493969550916716,36.0,368.0,0.0
Y,R,"[6, 11]",0.0,3.0,0.4664440155029297,2.0013749599456787,0.5340510595198198,36.0,369.0,0.0
Y,R,"[6, 10]",-3.0,3.0,0.6413619518280029,2.0529069900512695,0.4036560461438004,36.0,370.0,0.0
,,"(6, 6)",,,,,,,,
R,U,"[5, 6]",1.0,1.0,0.6572949886322021,3.988896131515503,0.5755493354431678,37.0,371.0,0.0
Y,R,"[5, 7]",1.0,2.0,0.3600459098815918,1.8800840377807617,0.5224058804574518,37.0,372.0,0.0
Y,R,"[5, 8]",1.0,3.0,0.39870715141296387,1.9299101829528809,0.5355646775615172,37.0,373.0,0.0
G,D,"[6, 8]",1.0,4.0,0.5223240852355957,1.928210973739624,0.41380085392129523,37.0,374.0,0.0
Y,R,"[6, 9]",1.0,5.0,0.35898399353027344,2.1145529747009277,0.7447057752293957,37.0,375.0,0.0
Y,R,"[6, 10]",1.0,6.0,0.3189120292663574,1.9666030406951904,0.6612615145378131,37.0,376.0,0.0
R,U,"[5, 10]",1.0,7.0,0.2862730026245117,1.853652000427246,0.5817027205814185,37.0,377.0,0.0
R,U,"[4, 10]",1.0,8.0,0.2145838737487793,1.9517889022827148,0.7336254011330525,37.0,378.0,0.0
B,L,"[4, 9]",1.0,9.0,0.23155999183654785,1.6445999145507812,0.4116660123564038,37.0,379.0,0.0
B,L,"[4, 8]",0.0,9.0,0.4314851760864258,1.997342824935913,0.5753298732008387,37.0,380.0,0.0
,,"(6, 6)",,,,,,,,
R,U,"[5, 6]",1.0,1.0,0.47956013679504395,2.53233003616333,0.5574939404798298,38.0,381.0,0.0
Y,R,"[5, 7]",1.0,2.0,0.29890012741088867,1.5663371086120605,0.27407658566844606,38.0,382.0,0.0
Y,R,"[5, 8]",1.0,3.0,0.4841618537902832,1.7670111656188965,0.2910934134148788,38.0,383.0,0.0
G,D,"[6, 8]",1.0,4.0,0.6415278911590576,2.021135091781616,0.3787661604334568,38.0,384.0,0.0
Y,R,"[6, 9]",1.0,5.0,0.3616058826446533,1.949371099472046,0.5945162658716421,38.0,385.0,0.0
Y,R,"[6, 10]",1.0,6.0,0.259768009185791,1.8138389587402344,0.558412376035113,38.0,386.0,0.0
R,U,"[5, 10]",1.0,7.0,0.4515798091888428,1.7464730739593506,0.30488517315408425,38.0,387.0,0.0
R,U,"[4, 10]",1.0,8.0,0.4212961196899414,1.7036221027374268,0.2918761189496115,38.0,388.0,0.0
B,L,"[4, 9]",1.0,9.0,0.28307008743286133,2.007594108581543,0.7325112911448397,38.0,389.0,0.0
R,U,"[3, 9]",1.0,10.0,0.18349313735961914,1.6782710552215576,0.4941675600008962,38.0,390.0,0.0
,,"(6, 6)",,,,,,,,
Y,R,"[6, 7]",0.0,0.0,0.40161991119384766,2.1858971118927,0.39678230615884946,39.0,391.0,0.0
Y,R,"[6, 8]",1.0,1.0,0.3997461795806885,1.9112639427185059,0.5079053000935837,39.0,392.0,0.0
Y,R,"[6, 9]",1.0,2.0,0.23473596572875977,1.6653499603271484,0.4398589932723635,39.0,393.0,0.0
Y,R,"[6, 10]",1.0,3.0,0.648021936416626,2.022844076156616,0.37944986701533145,39.0,394.0,0.0
Y,R,"[6, 11]",0.0,3.0,0.5537028312683105,2.009942054748535,0.455928622146933,39.0,395.0,0.0
Y,R,"[6, 10]",-3.0,3.0,0.2636570930480957,1.757680892944336,0.496873633529356,39.0,396.0,0.0
Y,R,"[6, 11]",0.0,3.0,0.42897891998291016,2.0868821144104004,0.650218923131481,39.0,397.0,0.0
Y,R,"[6, 10]",-3.0,3.0,0.4676511287689209,2.0135550498962402,0.5471381791003525,39.0,398.0,0.0
Y,R,"[6, 11]",0.0,3.0,0.4960508346557617,2.246147871017456,0.7430591653762462,39.0,399.0,0.0
Y,R,"[6, 10]",-3.0,3.0,0.5086028575897217,2.138493061065674,0.6315841719724331,39.0,400.0,0.0
,,"(6, 6)",,,,,,,,
B,L,"[6, 5]",0.0,0.0,0.7673509120941162,3.298550844192505,0.33037611303374526,40.0,401.0,0.0
B,L,"[6, 4]",0.0,0.0,0.7956299781799316,2.219852924346924,0.4167450669036611,40.0,402.0,0.0
B,L,"[6, 3]",0.0,0.0,0.17491698265075684,1.5070419311523438,0.32383747349390535,40.0,403.0,0.0
B,L,"[6, 2]",0.0,0.0,0.36206793785095215,2.016522169113159,0.6570862940438564,40.0,404.0,0.0
B,L,"[6, 1]",0.0,0.0,0.4533538818359375,1.8524320125579834,0.4093130069496385,40.0,405.0,0.0
B,L,"[6, 2]",-2.0,0.0,1.5987749099731445,2.961054801940918,0.40357996726764017,40.0,406.0,0.0
B,L,"[6, 1]",-2.0,0.0,2.8826029300689697,4.196455001831055,0.35000634051122215,40.0,407.0,0.0
B,L,"[6, 2]",-2.0,0.0,1.4415199756622314,3.0608770847320557,0.643777864342167,40.0,408.0,0.0
B,L,"[6, 1]",0.0,0.0,0.4494311809539795,1.9579851627349854,0.5186385098951822,40.0,409.0,0.0
B,L,"[6, 2]",-3.0,0.0,0.4498279094696045,2.180260181427002,0.7319415347502016,40.0,410.0,0.0
,,"(6, 6)",,,,,,,,
G,D,"[7, 6]",0.0,0.0,0.799274206161499,3.6740169525146484,0.5728363799071887,41.0,411.0,0.0
G,D,"[8, 6]",0.0,0.0,0.6327171325683594,2.2245800495147705,0.5971769297824872,41.0,412.0,0.0
G,D,"[9, 6]",0.0,0.0,0.5917420387268066,2.2963099479675293,0.693352174969865,41.0,413.0,0.0
G,D,"[10, 6]",0.0,0.0,0.5370309352874756,1.919994831085205,0.39692116247405607,41.0,414.0,0.0
G,D,"[11, 6]",0.0,0.0,0.7807128429412842,2.2630560398101807,0.47637563858391424,41.0,415.0,0.0
B,L,"[11, 5]",0.0,0.0,0.3477170467376709,1.624932050704956,0.2849605805062649,41.0,416.0,0.0
B,L,"[11, 4]",0.0,0.0,0.5083861351013184,1.9794259071350098,0.4640671724039308,41.0,417.0,0.0
Y,R,"[11, 5]",0.0,0.0,0.4770810604095459,1.8263218402862549,0.3405530872719971,41.0,418.0,0.0
B,L,"[11, 4]",0.0,0.0,0.921389102935791,2.3916099071502686,0.4819591037000174,41.0,419.0,0.0
Y,R,"[11, 5]",0.0,0.0,0.9903240203857422,2.565595865249634,0.5641000684394275,41.0,420.0,0.0
,,"(6, 6)",,,,,,,,
G,D,"[7, 6]",0.0,0.0,0.5862131118774414,3.5262858867645264,0.40702441203728545,42.0,421.0,0.0
G,D,"[8, 6]",-2.0,0.0,1.4729058742523193,3.1078639030456543,0.681345346592205,42.0,422.0,0.0
G,D,"[9, 6]",-2.0,0.0,1.0292949676513672,2.604796886444092,0.6026451673035617,42.0,423.0,0.0
G,D,"[10, 6]",0.0,0.0,0.6804587841033936,2.133780002593994,0.4533494676322135,42.0,424.0,0.0
G,D,"[11, 6]",0.0,0.0,0.35008716583251953,1.800797939300537,0.4541372722776381,42.0,425.0,0.0
G,D,"[10, 6]",-3.0,0.0,0.4799368381500244,1.7836639881134033,0.3045705927612161,42.0,426.0,0.0
G,D,"[11, 6]",0.0,0.0,0.6185929775238037,2.055148124694824,0.4428144182764861,42.0,427.0,0.0
Y,R,"[11, 7]",0.0,0.0,0.43250417709350586,2.0767409801483154,0.6529231694758382,42.0,428.0,0.0
G,D,"[11, 6]",-3.0,0.0,0.22100591659545898,1.8958549499511719,0.6817297423514004,42.0,429.0,0.0
G,D,"[11, 7]",-3.0,0.0,0.561225175857544,2.1880760192871094,0.619844066714061,42.0,430.0,0.0
,,"(6, 6)",,,,,,,,
G,D,"[7, 6]",0.0,0.0,0.41404294967651367,3.277911901473999,0.5811128560496899,43.0,431.0,0.0
G,D,"[8, 6]",0.0,0.0,0.37542295455932617,1.690047025680542,0.3045993041973192,43.0,432.0,0.0
G,D,"[9, 6]",0.0,0.0,0.45113492012023926,1.9712660312652588,0.5256935557646807,43.0,433.0,0.0
G,D,"[10, 6]",0.0,0.0,0.6054110527038574,2.0279431343078613,0.43691452436324907,43.0,434.0,0.0
G,D,"[11, 6]",0.0,0.0,0.37509894371032715,1.7292060852050781,0.3495779770663175,43.0,435.0,0.0
Y,R,"[11, 7]",-1.0,0.0,0.002196073532104492,5.707215070724487,0.6397641398921221,43.0,436.0,0.0
G,D,"[11, 6]",-3.0,0.0,0.27294301986694336,1.963705062866211,0.6866333398305182,43.0,437.0,0.0
Y,R,"[11, 7]",0.0,0.0,0.38051295280456543,2.076702833175659,0.6971099809719636,43.0,438.0,0.0
Y,R,"[11, 8]",0.0,0.0,0.49369192123413086,2.251024007797241,0.7475700150829887,43.0,439.0,0.0
Y,R,"[11, 9]",0.0,0.0,0.3276360034942627,1.6472060680389404,0.3118540953490697,43.0,440.0,0.0
,,"(6, 6)",,,,,,,,
Y,R,"[6, 7]",0.0,0.0,0.36519789695739746,3.3372151851654053,0.299047439841417,44.0,441.0,0.0
Y,R,"[6, 8]",1.0,1.0,0.7033419609069824,2.0480010509490967,0.3469674800526508,44.0,442.0,0.0
Y,R,"[6, 9]",1.0,2.0,0.34825706481933594,1.9996681213378906,0.6462074102815928,44.0,443.0,0.0
Y,R,"[6, 10]",1.0,3.0,0.40627312660217285,1.8043079376220703,0.3841407197888513,44.0,444.0,0.0
Y,R,"[6, 11]",0.0,3.0,0.3082129955291748,1.7912399768829346,0.47523224991889346,44.0,445.0,0.0
Y,R,"[6, 10]",-3.0,3.0,0.28491783142089844,1.6084330081939697,0.33377239641289624,44.0,446.0,0.0
Y,R,"[6, 11]",0.0,3.0,0.45424699783325195,1.903780221939087,0.4540652751253013,44.0,447.0,0.0
Y,R,"[6, 10]",-3.0,3.0,0.48523688316345215,2.029644012451172,0.5502519294062822,44.0,448.0,0.0
Y,R,"[6, 11]",0.0,3.0,0.8249518871307373,2.1621298789978027,0.3291994443138543,44.0,449.0,0.0
Y,R,"[6, 10]",-2.0,3.0,1.1941890716552734,2.745323896408081,0.5745470436936277,44.0,450.0,0.0
,,"(6, 6)",,,,,,,,
Y,R,"[6, 7]",0.0,0.0,0.30794191360473633,3.453878879547119,0.6613554575638307,45.0,451.0,0.0
Y,R,"[6, 8]",1.0,1.0,0.32985997200012207,1.6957459449768066,0.37395485518574756,45.0,452.0,0.0
Y,R,"[6, 9]",1.0,2.0,0.5368411540985107,2.1442010402679443,0.6178753412379439,45.0,453.0,0.0
Y,R,"[6, 10]",1.0,3.0,0.2647831439971924,1.911085844039917,0.6455434539233478,45.0,454.0,0.0
Y,R,"[6, 11]",0.0,3.0,0.6303741931915283,2.0738840103149414,0.43621429243811816,45.0,455.0,0.0
Y,R,"[6, 10]",-3.0,3.0,0.9254100322723389,2.432987928390503,0.5024944160301865,45.0,456.0,0.0
Y,R,"[6, 11]",0.0,3.0,0.6021101474761963,2.2069599628448486,0.6092280132987293,45.0,457.0,0.0
Y,R,"[6, 10]",-3.0,3.0,0.41006016731262207,1.9662470817565918,0.5588949549641777,45.0,458.0,0.0
Y,R,"[6, 11]",0.0,3.0,0.31937193870544434,2.0454001426696777,0.737328793532221,45.0,459.0,0.0
Y,R,"[6, 10]",-3.0,3.0,0.4282801151275635,1.9888761043548584,0.559712973098711,45.0,460.0,0.0
,,"(6, 6)",,,,,,,,
Y,R,"[6, 7]",0.0,0.0,0.34736204147338867,3.8292031288146973,0.5722322183824946,46.0,461.0,0.0
Y,R,"[6, 8]",1.0,1.0,0.3196418285369873,1.8650999069213867,0.5538535775234094,46.0,462.0,0.0
Y,R,"[6, 9]",-2.0,1.0,1.0450530052185059,2.264781951904297,0.2523259268493073,46.0,463.0,0.0
Y,R,"[6, 10]",-2.0,1.0,2.7723031044006348,4.4444801807403564,0.7128056361364148,46.0,464.0,0.0
Y,R,"[6, 11]",0.0,1.0,0.39551591873168945,2.0724780559539795,0.6686917024015756,46.0,465.0,0.0
Y,R,"[6, 10]",-2.0,1.0,1.358680009841919,2.955181121826172,0.6238041043692244,46.0,466.0,0.0
Y,R,"[6, 11]",-2.0,1.0,1.2225937843322754,2.4279000759124756,0.25213783641113935,46.0,467.0,0.0
Y,R,"[6, 10]",-3.0,1.0,0.3133721351623535,1.732344150543213,0.417491545767048,46.0,468.0,0.0
Y,R,"[6, 11]",0.0,1.0,0.4128711223602295,1.874000072479248,0.45819067541041975,46.0,469.0,0.0
Y,R,"[6, 10]",-3.0,1.0,0.41713809967041016,1.9737379550933838,0.5651433704875133,46.0,470.0,0.0
,,"(6, 6)",,,,,,,,
Y,R,"[6, 7]",0.0,0.0,0.4162299633026123,2.9334609508514404,0.3655660221283379,47.0,471.0,0.0
R,U,"[5, 7]",1.0,1.0,0.6954829692840576,2.4013772010803223,0.6996752888092808,47.0,472.0,0.0
R,U,"[4, 7]",0.0,1.0,0.27861785888671875,2.018620014190674,0.7352433105222831,47.0,473.0,0.0
R,U,"[3, 7]",0.0,1.0,0.26598501205444336,1.6589539051055908,0.3941143679775093,47.0,474.0,0.0
R,U,"[2, 7]",0.0,1.0,0.40799903869628906,1.876842975616455,0.47093196733797604,47.0,475.0,0.0
R,U,"[1, 7]",0.0,1.0,0.38144397735595703,1.7228260040283203,0.34383693059117637,47.0,476.0,0.0
R,U,"[2, 7]",-3.0,1.0,0.8407900333404541,2.123194932937622,0.2838173456978665,47.0,477.0,0.0
R,U,"[1, 7]",0.0,1.0,0.5523948669433594,2.121040105819702,0.5714510144323921,47.0,478.0,0.0
R,U,"[2, 7]",-3.0,1.0,0.2177419662475586,1.4665400981903076,0.25451727805875335,47.0,479.0,0.0
R,U,"[1, 7]",0.0,1.0,0.8270771503448486,2.541682004928589,0.7128652749669182,47.0,480.0,0.0
,,"(6, 6)",,,,,,,,
R,U,"[5, 6]",1.0,1.0,0.4741649627685547,3.1541640758514404,0.516781406960621,48.0,481.0,0.0
R,U,"[4, 6]",0.0,1.0,0.25200319290161133,1.730921983718872,0.4809690334346139,48.0,482.0,0.0
R,U,"[3, 6]",0.0,1.0,0.25468897819519043,1.564831018447876,0.3126372534182287,48.0,483.0,0.0
R,U,"[2, 6]",0.0,1.0,0.3119821548461914,1.7337539196014404,0.41284368091411855,48.0,484.0,0.0
R,U,"[1, 6]",0.0,1.0,0.2786369323730469,1.7371058464050293,0.4500154890520873,48.0,485.0,0.0
R,U,"[2, 6]",-3.0,1.0,0.37180519104003906,1.965022087097168,0.581531615551631,48.0,486.0,0.0
R,U,"[1, 6]",0.0,1.0,0.20661497116088867,1.7160260677337646,0.5142702952622437,48.0,487.0,0.0
R,U,"[2, 6]",-3.0,1.0,0.33310914039611816,1.7680509090423584,0.43234186131020563,48.0,488.0,0.0
R,U,"[1, 6]",0.0,1.0,0.3922560214996338,1.9164159297943115,0.5152018712971589,48.0,489.0,0.0
R,U,"[2, 6]",-3.0,1.0,0.557703971862793,2.04467511177063,0.47659537729183754,48.0,490.0,0.0
,,"(6, 6)",,,,,,,,
R,U,"[5, 6]",1.0,1.0,0.28920578956604004,2.769021987915039,0.3622779013797371,49.0,491.0,0.0
R,U,"[4, 6]",0.0,1.0,0.3459498882293701,1.673130989074707,0.31885831760783384,49.0,492.0,0.0
R,U,"[3, 6]",0.0,1.0,0.34566402435302734,1.9233381748199463,0.5752108280018045,49.0,493.0,0.0
R,U,"[2, 6]",0.0,1.0,0.38367700576782227,1.882181167602539,0.5074668531315003,49.0,494.0,0.0
R,U,"[1, 6]",0.0,1.0,0.45420408248901367,2.0293591022491455,0.5866521211529274,49.0,495.0,0.0
R,U,"[2, 6]",-3.0,1.0,0.3160240650177002,1.9271459579467773,0.6137454865397962,49.0,496.0,0.0
R,U,"[1, 6]",0.0,1.0,0.2715449333190918,1.79007887840271,0.5206226625311776,49.0,497.0,0.0
R,U,"[2, 6]",-3.0,1.0,0.39919304847717285,1.7674109935760498,0.37148403525523926,49.0,498.0,0.0
R,U,"[1, 6]",0.0,1.0,0.37015509605407715,2.0437469482421875,0.6815655311398334,49.0,499.0,0.0
R,U,"[2, 6]",-3.0,1.0,0.4728071689605713,2.055548906326294,0.5705254626396705,49.0,500.0,0.0
,,"(6, 6)",,,,,,,,
G,D,"[7, 6]",0.0,0.0,0.3397219181060791,2.7795181274414062,0.40008604163523237,50.0,501.0,0.0
G,D,"[8, 6]",0.0,0.0,0.6560931205749512,2.0153701305389404,0.3488493796758162,50.0,502.0,0.0
G,D,"[9, 6]",0.0,0.0,0.7633919715881348,2.4022951126098633,0.6342113791633829,50.0,503.0,0.0
G,D,"[10, 6]",0.0,0.0,0.5044600963592529,1.8424170017242432,0.3267605863028321,50.0,504.0,0.0
G,D,"[11, 6]",0.0,0.0,0.7680089473724365,2.3157289028167725,0.5589244043249135,50.0,505.0,0.0
G,D,"[10, 6]",-2.0,0.0,1.891416072845459,3.1353759765625,0.2778178686769619,50.0,506.0,0.0
R,U,"[9, 6]",-2.0,0.0,2.528020143508911,4.0598859786987305,0.5707762899023288,50.0,507.0,0.0
R,U,"[8, 6]",-2.0,0.0,2.103250026702881,3.5609939098358154,0.49836101115212667,50.0,508.0,0.0
R,U,"[7, 6]",0.0,0.0,0.1485748291015625,1.696516990661621,0.5448231027031873,50.0,509.0,0.0
R,U,"[6, 6]",0.0,0.0,0.42031192779541016,1.9456169605255127,0.5404609006030368,50.0,510.0,0.0
,,"(6, 6)",,,,,,,,
R,U,"[5, 6]",1.0,1.0,0.48089003562927246,4.263175964355469,0.4871635665973251,51.0,511.0,0.0
R,U,"[4, 6]",0.0,1.0,0.9099009037017822,2.444375991821289,0.5313480472150598,51.0,512.0,0.0
R,U,"[3, 6]",0.0,1.0,0.47605395317077637,1.962010145187378,0.49320241061855086,51.0,513.0,0.0
B,L,"[3, 5]",0.0,1.0,0.448544979095459,2.1083359718322754,0.6679520147575746,51.0,514.0,0.0
B,L,"[3, 4]",0.0,1.0,0.35787200927734375,1.9346959590911865,0.569442426020855,51.0,515.0,0.0
B,L,"[3, 3]",0.0,1.0,0.389523983001709,1.8381061553955078,0.4410080382427762,51.0,516.0,0.0
B,L,"[3, 2]",0.0,1.0,0.3032360076904297,1.8464469909667969,0.5539413126513673,51.0,517.0,0.0
B,L,"[3, 1]",-1.0,1.0,0.05469489097595215,5.575617074966431,0.46283617488814893,51.0,518.0,0.0
B,L,"[3, 2]",-1.0,1.0,0.09479880332946777,5.568264007568359,0.3978127097984292,51.0,519.0,0.0
R,U,"[2, 2]",0.0,1.0,0.10710406303405762,1.6640589237213135,0.54508087806652,51.0,520.0,0.0
,,"(6, 6)",,,,,,,,
R,U,"[5, 6]",1.0,1.0,0.12836194038391113,3.097292900085449,0.5589345278430072,52.0,521.0,0.0
G,D,"[6, 6]",-2.0,1.0,1.1071832180023193,2.329963207244873,0.2558593939376231,52.0,522.0,0.0
G,D,"[7, 6]",-2.0,1.0,1.2048499584197998,2.773815870285034,0.6124647008632951,52.0,523.0,0.0
G,D,"[8, 6]",0.0,1.0,0.34736180305480957,1.822767972946167,0.4688290473394947,52.0,524.0,0.0
G,D,"[9, 6]",0.0,1.0,0.4656679630279541,1.8200387954711914,0.3555778082538877,52.0,525.0,0.0
G,D,"[10, 6]",0.0,1.0,0.4649980068206787,1.7820470333099365,0.3209797260524169,52.0,526.0,0.0
G,D,"[11, 6]",0.0,1.0,0.3556990623474121,1.702836036682129,0.3404194893492261,52.0,527.0,0.0
G,D,"[10, 6]",-3.0,1.0,0.7198240756988525,2.4031119346618652,0.6931636319528365,52.0,528.0,0.0
G,D,"[11, 6]",0.0,1.0,0.2306370735168457,1.528777837753296,0.3055762444094332,52.0,529.0,0.0
G,D,"[10, 6]",-3.0,1.0,0.3802978992462158,1.8357689380645752,0.4579006383907526,52.0,530.0,0.0
,,"(6, 6)",,,,,,,,
G,D,"[7, 6]",0.0,0.0,0.8283710479736328,3.5118930339813232,0.7193742987298084,53.0,531.0,0.0
G,D,"[8, 6]",0.0,0.0,0.3952209949493408,1.7662432193756104,0.3693684966789053,53.0,532.0,0.0
G,D,"[9, 6]",0.0,0.0,0.3597078323364258,1.7782158851623535,0.41409015279298744,53.0,533.0,0.0
G,D,"[10, 6]",0.0,0.0,0.5547490119934082,2.192858934402466,0.6234596623551809,53.0,534.0,0.0
G,D,"[11, 6]",0.0,0.0,0.5168728828430176,1.8029980659484863,0.29330190476605555,53.0,535.0,0.0
G,D,"[10, 6]",-3.0,0.0,0.4408760070800781,1.8877358436584473,0.44764220919514014,53.0,536.0,0.0
G,D,"[11, 6]",-2.0,0.0,1.1648831367492676,2.7676498889923096,0.6316901944258374,53.0,537.0,0.0
G,D,"[10, 6]",-3.0,0.0,0.8901481628417969,2.2909128665924072,0.38952778019752,53.0,538.0,0.0
G,D,"[11, 6]",0.0,0.0,0.9368240833282471,2.352354049682617,0.4250526951079099,53.0,539.0,0.0
G,D,"[10, 6]",-3.0,0.0,0.2767479419708252,1.632094144821167,0.35730081672470376,53.0,540.0,0.0
,,"(6, 6)",,,,,,,,
G,D,"[7, 6]",0.0,0.0,0.3536648750305176,3.2079811096191406,0.7148901953126736,54.0,541.0,0.0
G,D,"[8, 6]",0.0,0.0,0.4567430019378662,1.8633639812469482,0.4118368947305444,54.0,542.0,0.0
G,D,"[9, 6]",0.0,0.0,0.3787670135498047,1.7363109588623047,0.36466286299385603,54.0,543.0,0.0
G,D,"[10, 6]",0.0,0.0,0.8649759292602539,2.1766979694366455,0.3081557602949782,54.0,544.0,0.0
G,D,"[11, 6]",0.0,0.0,0.44608497619628906,1.732759952545166,0.29093679966509595,54.0,545.0,0.0
G,D,"[10, 6]",-2.0,0.0,1.4546570777893066,2.8922979831695557,0.48295326813171746,54.0,546.0,0.0
G,D,"[11, 6]",0.0,0.0,0.5566689968109131,2.0365030765533447,0.4694601527737665,54.0,547.0,0.0
G,D,"[10, 6]",-3.0,0.0,0.48149585723876953,1.9810349941253662,0.5004659227440553,54.0,548.0,0.0
G,D,"[11, 6]",0.0,0.0,0.22591114044189453,1.7502501010894775,0.5172480777111921,54.0,549.0,0.0
G,D,"[10, 6]",-3.0,0.0,0.451915979385376,1.8383128643035889,0.3890883300320243,54.0,550.0,0.0
,,"(6, 6)",,,,,,,,
G,D,"[7, 6]",0.0,0.0,0.4069249629974365,2.9010839462280273,0.35679853712179926,55.0,551.0,0.0
G,D,"[8, 6]",0.0,0.0,0.3666250705718994,1.7914628982543945,0.43151450363469973,55.0,552.0,0.0
G,D,"[9, 6]",0.0,0.0,0.4506230354309082,2.1305789947509766,0.6786435091467033,55.0,553.0,0.0
G,D,"[10, 6]",0.0,0.0,0.3260030746459961,1.9443690776824951,0.6228709821518181,55.0,554.0,0.0
B,L,"[10, 5]",0.0,0.0,0.28187012672424316,2.0208640098571777,0.7436167671332472,55.0,555.0,0.0
B,L,"[10, 4]",0.0,0.0,0.474254846572876,2.012316942214966,0.5394449303780395,55.0,556.0,0.0
B,L,"[10, 3]",0.0,0.0,0.4785611629486084,2.0878448486328125,0.6104729982874612,55.0,557.0,0.0
B,L,"[10, 2]",0.0,0.0,0.3793911933898926,1.7444989681243896,0.3717583675209893,55.0,558.0,0.0
B,L,"[10, 1]",0.0,0.0,0.8581681251525879,2.386305093765259,0.5246707932624718,55.0,559.0,0.0
B,L,"[10, 2]",-3.0,0.0,0.3128550052642822,1.9989662170410156,0.6900865936288227,55.0,560.0,0.0
,,"(6, 6)",,,,,,,,
B,L,"[6, 5]",0.0,0.0,0.4787590503692627,3.2919890880584717,0.615449358604351,56.0,561.0,0.0
Y,R,"[6, 6]",0.0,0.0,0.3168330192565918,1.575294017791748,0.2577560259571602,56.0,562.0,0.0
Y,R,"[6, 7]",0.0,0.0,0.38417983055114746,1.892486810684204,0.516600384086795,56.0,563.0,0.0
Y,R,"[6, 8]",1.0,1.0,0.6091301441192627,2.2195780277252197,0.6026118300409966,56.0,564.0,0.0
Y,R,"[6, 9]",1.0,2.0,0.3074190616607666,1.9962859153747559,0.6821982837541334,56.0,565.0,0.0
Y,R,"[6, 10]",1.0,3.0,0.42953920364379883,1.7906179428100586,0.3563064293596922,56.0,566.0,0.0
Y,R,"[6, 11]",0.0,3.0,0.6520390510559082,2.1309549808502197,0.48723565299637467,56.0,567.0,0.0
Y,R,"[6, 10]",-3.0,3.0,0.46274304389953613,2.101375102996826,0.638451096614282,56.0,568.0,0.0
Y,R,"[6, 11]",0.0,3.0,0.35975193977355957,1.9181761741638184,0.55666143447058,56.0,569.0,0.0
Y,R,"[6, 10]",-3.0,3.0,0.21747899055480957,1.546886920928955,0.33699794117566456,56.0,570.0,0.0
,,"(6, 6)",,,,,,,,
Y,R,"[6, 7]",0.0,0.0,0.37871885299682617,3.2135188579559326,0.3339021167557457,57.0,571.0,0.0
Y,R,"[6, 8]",1.0,1.0,0.6693320274353027,2.0518369674682617,0.385655346910353,57.0,572.0,0.0
Y,R,"[6, 9]",-2.0,1.0,1.0803029537200928,2.69976806640625,0.651815750686822,57.0,573.0,0.0
Y,R,"[6, 10]",-2.0,1.0,1.7083098888397217,3.2255561351776123,0.5439276477909869,57.0,574.0,0.0
Y,R,"[6, 11]",0.0,1.0,0.591637134552002,2.135730028152466,0.5463444915835809,57.0,575.0,0.0
Y,R,"[6, 10]",-3.0,1.0,0.29860901832580566,2.016042947769165,0.7122946029418231,57.0,576.0,0.0
Y,R,"[6, 11]",0.0,1.0,0.29494500160217285,1.611659049987793,0.30767705151252844,57.0,577.0,0.0
Y,R,"[6, 10]",-3.0,1.0,0.3783268928527832,1.7710201740264893,0.3953591845526991,57.0,578.0,0.0
Y,R,"[6, 11]",0.0,1.0,0.3431589603424072,1.772524118423462,0.43437989873510513,57.0,579.0,0.0
Y,R,"[6, 10]",-3.0,1.0,0.48699188232421875,1.8332901000976562,0.351035329549013,57.0,580.0,0.0
,,"(6, 6)",,,,,,,,
Y,R,"[6, 7]",0.0,0.0,0.4333620071411133,3.511068105697632,0.42865570469156183,58.0,581.0,0.0
Y,R,"[6, 8]",1.0,1.0,0.23313498497009277,1.6961100101470947,0.4746010906067468,58.0,582.0,0.0
Y,R,"[6, 9]",1.0,2.0,0.5345158576965332,2.1232450008392334,0.5977525839575916,58.0,583.0,0.0
Y,R,"[6, 10]",1.0,3.0,0.3102841377258301,1.9474599361419678,0.628714759223754,58.0,584.0,0.0
Y,R,"[6, 11]",0.0,3.0,0.3313429355621338,1.9048340320587158,0.5833500718931607,58.0,585.0,0.0
Y,R,"[6, 10]",-3.0,3.0,0.3431370258331299,1.980449914932251,0.6303019035747823,58.0,586.0,0.0
Y,R,"[6, 11]",0.0,3.0,0.3933382034301758,1.7794468402862549,0.3767318052176833,58.0,587.0,0.0
Y,R,"[6, 10]",-3.0,3.0,0.31856203079223633,1.7664411067962646,0.4597360120998083,58.0,588.0,0.0
Y,R,"[6, 11]",0.0,3.0,0.9546918869018555,2.627340078353882,0.6701230882627792,58.0,589.0,0.0
Y,R,"[6, 10]",-3.0,3.0,0.7991340160369873,2.100637912750244,0.3044701710344222,58.0,590.0,0.0
,,"(6, 6)",,,,,,,,
Y,R,"[6, 7]",0.0,0.0,0.3718550205230713,3.65195894241333,0.37286236840794923,59.0,591.0,0.0
Y,R,"[6, 8]",-1.0,0.0,0.09701204299926758,5.782838821411133,0.6220067637605055,59.0,592.0,0.0
Y,R,"[6, 9]",-1.0,0.0,0.045204877853393555,5.596611976623535,0.4854670225870167,59.0,593.0,0.0
R,U,"[5, 9]",0.0,0.0,0.5895929336547852,2.0710601806640625,0.4731447519847274,59.0,594.0,0.0
R,U,"[4, 9]",1.0,1.0,0.47399210929870605,1.9421310424804688,0.4652852278347279,59.0,595.0,0.0
R,U,"[3, 9]",-2.0,1.0,1.4089391231536865,3.0626380443573,0.6774863997693876,59.0,596.0,0.0
R,U,"[2, 9]",0.0,1.0,0.6548440456390381,1.923011064529419,0.2842986144668675,59.0,597.0,0.0
R,U,"[1, 9]",0.0,1.0,0.6135179996490479,2.3241288661956787,0.7079213303126668,59.0,598.0,0.0
R,U,"[2, 9]",-3.0,1.0,0.3848540782928467,1.940716028213501,0.5655077513023232,59.0,599.0,0.0
R,U,"[1, 9]",0.0,1.0,0.28682899475097656,1.9011080265045166,0.6165786444871737,59.0,600.0,0.0
,,"(6, 6)",,,,,,,,
R,U,"[5, 6]",1.0,1.0,0.26184511184692383,3.6386990547180176,0.5886027244383956,60.0,601.0,0.0
R,U,"[4, 6]",0.0,1.0,0.27258992195129395,1.9814958572387695,0.7032802796900377,60.0,602.0,0.0
R,U,"[3, 6]",0.0,1.0,0.3571290969848633,1.8205029964447021,0.457349975141,60.0,603.0,0.0
R,U,"[2, 6]",0.0,1.0,0.5480611324310303,2.199634075164795,0.6567363537280575,60.0,604.0,0.0
R,U,"[1, 6]",0.0,1.0,0.33148789405822754,2.031662940979004,0.7049734299379253,60.0,605.0,0.0
R,U,"[2, 6]",-3.0,1.0,0.22713303565979004,1.7226500511169434,0.4945170303101083,60.0,606.0,0.0
R,U,"[1, 6]",0.0,1.0,0.4685211181640625,1.9294610023498535,0.4739425099907825,60.0,607.0,0.0
R,U,"[2, 6]",-3.0,1.0,0.2340230941772461,1.656696081161499,0.4307095092659616,60.0,608.0,0.0
R,U,"[1, 6]",0.0,1.0,0.4384341239929199,1.8216590881347656,0.385689063613785,60.0,609.0,0.0
R,U,"[2, 6]",-2.0,1.0,1.0548911094665527,2.3874619007110596,0.37297123382375635,60.0,610.0,0.0
,,"(6, 6)",,,,,,,,
R,U,"[5, 6]",1.0,1.0,0.2709798812866211,3.728372097015381,0.31805792143558664,61.0,611.0,0.0
R,U,"[4, 6]",0.0,1.0,0.4030489921569824,1.8026201725006104,0.4041475952376881,61.0,612.0,0.0
R,U,"[3, 6]",0.0,1.0,0.684074878692627,2.407128095626831,0.7277818082367822,61.0,613.0,0.0
R,U,"[2, 6]",0.0,1.0,0.6046149730682373,1.9665648937225342,0.3777321866859706,61.0,614.0,0.0
B,L,"[2, 5]",0.0,1.0,0.3033449649810791,1.8613929748535156,0.5721480354707273,61.0,615.0,0.0
R,U,"[1, 5]",0.0,1.0,0.4646430015563965,1.8683350086212158,0.40729446615746745,61.0,616.0,0.0
R,U,"[2, 5]",-3.0,1.0,0.35689401626586914,1.6756799221038818,0.31634019423480964,61.0,617.0,0.0
R,U,"[1, 5]",0.0,1.0,0.6408438682556152,2.0038230419158936,0.35335542257673186,61.0,618.0,0.0
R,U,"[2, 5]",-3.0,1.0,0.43065309524536133,1.786613941192627,0.3566456201656478,61.0,619.0,0.0
R,U,"[1, 5]",0.0,1.0,0.47128915786743164,1.9619710445404053,0.5018502662689477,61.0,620.0,0.0
,,"(6, 6)",,,,,,,,
R,U,"[5, 6]",1.0,1.0,0.5838668346405029,3.8042640686035156,0.6226407842260502,62.0,621.0,0.0
R,U,"[4, 6]",-2.0,1.0,1.4815740585327148,3.035983085632324,0.5918943831032037,62.0,622.0,0.0
R,U,"[3, 6]",0.0,1.0,0.17618083953857422,1.8646609783172607,0.6897711363597736,62.0,623.0,0.0
R,U,"[2, 6]",0.0,1.0,0.6725280284881592,1.958686113357544,0.2821580090757884,62.0,624.0,0.0
R,U,"[1, 6]",0.0,1.0,0.6603789329528809,2.0588691234588623,0.3907989821807429,62.0,625.0,0.0
R,U,"[2, 6]",-3.0,1.0,0.36386609077453613,2.03847599029541,0.6794794148489194,62.0,626.0,0.0
R,U,"[1, 6]",-2.0,1.0,1.6909089088439941,2.9579670429229736,0.28728777152983204,62.0,627.0,0.0
R,U,"[2, 6]",-3.0,1.0,0.6957869529724121,2.0600171089172363,0.36390009016951785,62.0,628.0,0.0
R,U,"[1, 6]",0.0,1.0,0.3733060359954834,1.9067180156707764,0.5205350650253168,62.0,629.0,0.0
R,U,"[2, 6]",-1.0,1.0,0.0356290340423584,5.421853065490723,0.32575315997052146,62.0,630.0,0.0
,,"(6, 6)",,,,,,,,
R,U,"[5, 6]",1.0,1.0,0.4565160274505615,6.250108003616333,0.4091220970364307,63.0,631.0,0.0
R,U,"[4, 6]",0.0,1.0,0.7733330726623535,2.1527020931243896,0.378374029965427,63.0,632.0,0.0
R,U,"[3, 6]",0.0,1.0,0.9243390560150146,2.332490921020508,0.4108847644505878,63.0,633.0,0.0
R,U,"[2, 6]",0.0,1.0,0.29857802391052246,2.0135698318481445,0.7241108743781568,63.0,634.0,0.0
G,D,"[3, 6]",0.0,1.0,0.3733029365539551,1.694828987121582,0.31921575188477,63.0,635.0,0.0
R,U,"[2, 6]",0.0,1.0,0.7612960338592529,2.1586990356445312,0.394562126079025,63.0,636.0,0.0
R,U,"[1, 6]",0.0,1.0,0.4352748394012451,1.9740519523620605,0.5517759153932396,63.0,637.0,0.0
R,U,"[2, 6]",-2.0,1.0,1.5969619750976562,3.0163869857788086,0.4514603737463731,63.0,638.0,0.0
R,U,"[1, 6]",0.0,1.0,0.5391697883605957,1.927954912185669,0.3795376303035819,63.0,639.0,0.0
R,U,"[2, 6]",-3.0,1.0,0.37890195846557617,1.6378099918365479,0.2507351395958656,63.0,640.0,0.0
,,"(6, 6)",,,,,,,,
R,U,"[5, 6]",1.0,1.0,0.4026618003845215,5.214266061782837,0.5646479182762979,64.0,641.0,0.0
R,U,"[4, 6]",0.0,1.0,0.5429270267486572,1.8947110176086426,0.3428359315341406,64.0,642.0,0.0
R,U,"[3, 6]",0.0,1.0,0.9355621337890625,2.54692006111145,0.6228894760482843,64.0,643.0,0.0
R,U,"[2, 6]",0.0,1.0,0.28850293159484863,1.6660821437835693,0.3891717135345168,64.0,644.0,0.0
R,U,"[1, 6]",0.0,1.0,0.5947928428649902,2.2285821437835693,0.6344474443800081,64.0,645.0,0.0
R,U,"[2, 6]",-3.0,1.0,0.4795379638671875,1.8331100940704346,0.3507816814019115,64.0,646.0,0.0
R,U,"[1, 6]",0.0,1.0,0.40842390060424805,1.75506591796875,0.339216631538423,64.0,647.0,0.0
R,U,"[2, 6]",-3.0,1.0,0.574699878692627,1.9940550327301025,0.416488372268704,64.0,648.0,0.0
R,U,"[1, 6]",0.0,1.0,0.38228511810302734,1.7180259227752686,0.3345661001080407,64.0,649.0,0.0
R,U,"[2, 6]",-3.0,1.0,0.3874039649963379,1.8593699932098389,0.47707861459150736,64.0,650.0,0.0
,,"(6, 6)",,,,,,,,
R,U,"[5, 6]",-2.0,0.0,1.8638460636138916,4.493305206298828,0.30379172288120365,65.0,651.0,0.0
R,U,"[4, 6]",0.0,0.0,0.49134111404418945,1.885118007659912,0.38890257520015636,65.0,652.0,0.0
R,U,"[3, 6]",0.0,0.0,0.15230488777160645,1.6153039932250977,0.47076177174796063,65.0,653.0,0.0
G,D,"[4, 6]",0.0,0.0,0.5937528610229492,2.1773300170898438,0.5811635544463687,65.0,654.0,0.0
R,U,"[3, 6]",0.0,0.0,0.506018877029419,2.2153680324554443,0.7130427662108871,65.0,655.0,0.0
G,D,"[4, 6]",0.0,0.0,0.34532904624938965,2.0106329917907715,0.6571581604938714,65.0,656.0,0.0
R,U,"[3, 6]",-1.0,0.0,0.0025441646575927734,5.345963954925537,0.28669014138233895,65.0,657.0,0.0
R,U,"[2, 6]",0.0,0.0,0.33624815940856934,1.8851301670074463,0.5548923236033729,65.0,658.0,0.0
R,U,"[1, 6]",-2.0,0.0,1.4780330657958984,2.878387928009033,0.4333876899316805,65.0,659.0,0.0
R,U,"[2, 6]",-2.0,0.0,1.2645950317382812,2.5290141105651855,0.29578314195527433,65.0,660.0,0.0
,,"(6, 6)",,,,,,,,
R,U,"[5, 6]",1.0,1.0,0.41611695289611816,4.054479122161865,0.5000008595453046,66.0,661.0,0.0
R,U,"[4, 6]",0.0,1.0,0.5262739658355713,2.0751991271972656,0.541783315482218,66.0,662.0,0.0
R,U,"[3, 6]",0.0,1.0,0.4105489253997803,2.0259499549865723,0.6176841287155419,66.0,663.0,0.0
R,U,"[2, 6]",0.0,1.0,0.22420120239257812,1.7633788585662842,0.5310403181692441,66.0,664.0,0.0
R,U,"[1, 6]",0.0,1.0,0.3526949882507324,1.611825942993164,0.25980397527004995,66.0,665.0,0.0
R,U,"[2, 6]",-3.0,1.0,0.5725281238555908,2.270327091217041,0.6964203816669186,66.0,666.0,0.0
R,U,"[1, 6]",0.0,1.0,0.11570191383361816,1.474487066268921,0.3545690534817882,66.0,667.0,0.0
R,U,"[2, 6]",-3.0,1.0,0.9543211460113525,2.37454891204834,0.42890701147063276,66.0,668.0,0.0
R,U,"[1, 6]",0.0,1.0,0.39607906341552734,2.061990976333618,0.6573937759088521,66.0,669.0,0.0
R,U,"[2, 6]",-3.0,1.0,0.3540968894958496,1.869978904724121,0.510842261311977,66.0,670.0,0.0
,,"(6, 6)",,,,,,,,
R,U,"[5, 6]",1.0,1.0,0.26302504539489746,6.162742853164673,0.4568882900722217,67.0,671.0,0.0
R,U,"[4, 6]",0.0,1.0,0.3496840000152588,1.8884809017181396,0.545144647504159,67.0,672.0,0.0
R,U,"[3, 6]",0.0,1.0,0.34099411964416504,1.900080919265747,0.5619029464718752,67.0,673.0,0.0
R,U,"[2, 6]",-1.0,1.0,0.0011548995971679688,5.774045944213867,0.7026427459616228,67.0,674.0,0.0
B,L,"[2, 5]",0.0,1.0,0.3750438690185547,1.7284791469573975,0.34780691156608873,67.0,675.0,0.0
G,D,"[3, 5]",0.0,1.0,0.48269009590148926,1.8874099254608154,0.4018321996559055,67.0,676.0,0.0
G,D,"[4, 5]",0.0,1.0,0.4003000259399414,2.146883010864258,0.7482105392037901,67.0,677.0,0.0
G,D,"[5, 5]",0.0,1.0,0.4332549571990967,2.0970230102539062,0.6619716132023883,67.0,678.0,0.0
G,D,"[6, 5]",0.0,1.0,0.31421780586242676,2.046437978744507,0.7249429151152836,67.0,679.0,0.0
G,D,"[7, 5]",0.0,1.0,0.3248429298400879,2.0393030643463135,0.7143031170088978,67.0,680.0,0.0
,,"(6, 6)",,,,,,,,
G,D,"[7, 6]",0.0,0.0,0.49287986755371094,3.3618240356445312,0.7259717303621297,68.0,681.0,0.0
G,D,"[8, 6]",0.0,0.0,0.7179780006408691,2.3801541328430176,0.6728000000145267,68.0,682.0,0.0
G,D,"[9, 6]",0.0,0.0,0.4677410125732422,1.8984310626983643,0.4380622336032923,68.0,683.0,0.0
G,D,"[10, 6]",0.0,0.0,0.7223930358886719,2.113478183746338,0.3848490898649833,68.0,684.0,0.0
G,D,"[11, 6]",0.0,0.0,0.5800299644470215,2.0125479698181152,0.43072316046040815,68.0,685.0,0.0
G,D,"[10, 6]",-3.0,0.0,0.41750502586364746,1.9513649940490723,0.5319938311671288,68.0,686.0,0.0
G,D,"[11, 6]",0.0,0.0,0.3681020736694336,1.8001718521118164,0.43225568584033774,68.0,687.0,0.0
G,D,"[10, 6]",-3.0,0.0,0.45313596725463867,1.9843940734863281,0.5331477838577605,68.0,688.0,0.0
G,D,"[11, 6]",0.0,0.0,0.5167460441589355,1.8462109565734863,0.3293425072533326,68.0,689.0,0.0
Y,R,"[11, 7]",0.0,0.0,0.6086959838867188,1.9581420421600342,0.3376534635053563,68.0,690.0,0.0
,,"(6, 6)",,,,,,,,
Y,R,"[6, 7]",0.0,0.0,0.5812878608703613,4.8390419483184814,0.27655960513201583,69.0,691.0,0.0
Y,R,"[6, 8]",-2.0,0.0,1.1703979969024658,2.4767069816589355,0.3531836593037737,69.0,692.0,0.0
B,L,"[6, 7]",0.0,0.0,0.9691159725189209,2.382873058319092,0.4192749050780233,69.0,693.0,0.0
B,L,"[6, 6]",0.0,0.0,0.39467716217041016,1.7371759414672852,0.33979376855413745,69.0,694.0,0.0
G,D,"[7, 6]",0.0,0.0,0.8332910537719727,2.1717450618743896,0.34478396582919196,69.0,695.0,0.0
G,D,"[8, 6]",0.0,0.0,0.389650821685791,1.8533680438995361,0.464746505459959,69.0,696.0,0.0
G,D,"[9, 6]",0.0,0.0,0.6650099754333496,2.1826508045196533,0.5139571603225286,69.0,697.0,0.0
G,D,"[10, 6]",0.0,0.0,0.33475804328918457,1.6568529605865479,0.32097582150722936,69.0,698.0,0.0
G,D,"[11, 6]",0.0,0.0,0.9947309494018555,2.2459030151367188,0.2502967074611617,69.0,699.0,0.0
G,D,"[10, 6]",-3.0,0.0,0.4305610656738281,2.0543019771575928,0.6211469292525514,69.0,700.0,0.0
,,"(6, 6)",,,,,,,,
G,D,"[7, 6]",0.0,0.0,0.5340259075164795,2.8111660480499268,0.31554288705872663,70.0,701.0,0.0
G,D,"[8, 6]",0.0,0.0,0.6109421253204346,2.0848140716552734,0.46710112854406327,70.0,702.0,0.0
G,D,"[9, 6]",0.0,0.0,0.3915231227874756,2.13317608833313,0.7330399303660031,70.0,703.0,0.0
G,D,"[10, 6]",0.0,0.0,0.3642408847808838,1.840790033340454,0.4741046591413681,70.0,704.0,0.0
G,D,"[11, 6]",0.0,0.0,0.17486095428466797,1.8648910522460938,0.6887031836717996,70.0,705.0,0.0
G,D,"[10, 6]",-3.0,0.0,0.3141438961029053,1.9912199974060059,0.6798595886732983,70.0,706.0,0.0
G,D,"[11, 6]",0.0,0.0,0.24814987182617188,1.9254209995269775,0.6719681864689011,70.0,707.0,0.0
G,D,"[10, 6]",-3.0,0.0,0.2494640350341797,1.5927250385284424,0.34828519921534096,70.0,708.0,0.0
G,D,"[11, 6]",0.0,0.0,0.3514721393585205,1.8827569484710693,0.530853096794109,70.0,709.0,0.0
G,D,"[10, 6]",-3.0,0.0,0.19412994384765625,1.7237238883972168,0.5211316216544926,70.0,710.0,0.0
,,"(6, 6)",,,,,,,,
G,D,"[7, 6]",0.0,0.0,0.4669148921966553,2.9885690212249756,0.276641066319542,71.0,711.0,0.0
G,D,"[8, 6]",0.0,0.0,0.3914170265197754,1.955172061920166,0.5646860696176235,71.0,712.0,0.0
G,D,"[9, 6]",0.0,0.0,0.29442405700683594,1.717587947845459,0.41581139499166914,71.0,713.0,0.0
G,D,"[10, 6]",0.0,0.0,0.45075392723083496,1.9386699199676514,0.4876328704994505,71.0,714.0,0.0
G,D,"[11, 6]",0.0,0.0,0.4914400577545166,2.2046518325805664,0.7088204034226866,71.0,715.0,0.0
G,D,"[10, 6]",-3.0,0.0,0.3714148998260498,1.975775957107544,0.6178487735765497,71.0,716.0,0.0
G,D,"[11, 6]",0.0,0.0,0.622096061706543,2.2266509532928467,0.5946168998847385,71.0,717.0,0.0
G,D,"[10, 6]",-2.0,0.0,1.5093770027160645,2.86908221244812,0.3970642753442422,71.0,718.0,0.0
G,D,"[11, 6]",0.0,0.0,0.572084903717041,2.064805030822754,0.49515038404576206,71.0,719.0,0.0
G,D,"[10, 6]",-3.0,0.0,0.3680098056793213,2.037317991256714,0.6822106661113505,71.0,720.0,0.0
,,"(6, 6)",,,,,,,,
R,U,"[5, 6]",1.0,1.0,0.458651065826416,7.818257093429565,0.5004649972809274,72.0,721.0,0.0
R,U,"[4, 6]",0.0,1.0,0.33624887466430664,1.651242971420288,0.31846470147436107,72.0,722.0,0.0
B,L,"[4, 5]",0.0,1.0,0.20389795303344727,1.5855281352996826,0.38735182430431747,72.0,723.0,0.0
R,U,"[3, 5]",0.0,1.0,0.39388203620910645,1.6487390995025635,0.2528925717394904,72.0,724.0,0.0
R,U,"[2, 5]",0.0,1.0,0.7159328460693359,2.114938974380493,0.4009132949432666,72.0,725.0,0.0
R,U,"[1, 5]",0.0,1.0,0.21540403366088867,1.5540530681610107,0.3382401839774375,72.0,726.0,0.0
R,U,"[2, 5]",-3.0,1.0,0.5231869220733643,1.8727490901947021,0.3609735585381523,72.0,727.0,0.0
R,U,"[1, 5]",0.0,1.0,0.3975489139556885,1.7870700359344482,0.3979161222327948,72.0,728.0,0.0
R,U,"[2, 5]",-3.0,1.0,0.4805171489715576,2.108841896057129,0.6232147120961913,72.0,729.0,0.0
R,U,"[1, 5]",0.0,1.0,0.16523981094360352,1.830449104309082,0.6703292911337897,72.0,730.0,0.0
,,"(6, 6)",,,,,,,,
R,U,"[5, 6]",1.0,1.0,0.5640580654144287,3.3963701725006104,0.5500595193223303,73.0,731.0,0.0
R,U,"[4, 6]",-1.0,1.0,0.08924984931945801,5.555659055709839,0.3890256450576609,73.0,732.0,0.0
R,U,"[3, 6]",0.0,1.0,0.29457902908325195,1.7136361598968506,0.41935882899313964,73.0,733.0,0.0
R,U,"[2, 6]",0.0,1.0,0.45639586448669434,2.019073963165283,0.5548475148025052,73.0,734.0,0.0
R,U,"[1, 6]",0.0,1.0,0.401716947555542,1.6845409870147705,0.28970500818776446,73.0,735.0,0.0
R,U,"[2, 6]",-3.0,1.0,0.4754011631011963,1.7913050651550293,0.3142221211023679,73.0,736.0,0.0
R,U,"[1, 6]",0.0,1.0,0.38138604164123535,1.772981882095337,0.38715217344793307,73.0,737.0,0.0
R,U,"[2, 6]",-3.0,1.0,0.2822279930114746,1.7317860126495361,0.45209462346052437,73.0,738.0,0.0
R,U,"[1, 6]",0.0,1.0,0.32733702659606934,1.6686680316925049,0.33746871458857275,73.0,739.0,0.0
R,U,"[2, 6]",-3.0,1.0,0.3416600227355957,1.9332060813903809,0.5871828036459921,73.0,740.0,0.0
,,"(6, 6)",,,,,,,,
R,U,"[5, 6]",1.0,1.0,0.39175987243652344,3.2518160343170166,0.6892545303971938,74.0,741.0,0.0
R,U,"[4, 6]",0.0,1.0,0.17562103271484375,1.8498740196228027,0.6719940327313312,74.0,742.0,0.0
R,U,"[3, 6]",0.0,1.0,0.3973221778869629,1.808938980102539,0.4145014506428958,74.0,743.0,0.0
R,U,"[2, 6]",0.0,1.0,0.4989001750946045,1.9061369895935059,0.40395139375937905,74.0,744.0,0.0
R,U,"[1, 6]",0.0,1.0,0.16816997528076172,1.6125109195709229,0.4496658469905146,74.0,745.0,0.0
R,U,"[2, 6]",-2.0,1.0,1.1419398784637451,2.7177507877349854,0.6007126536092944,74.0,746.0,0.0
R,U,"[1, 6]",-2.0,1.0,1.9332869052886963,3.537431001663208,0.6378883696383143,74.0,747.0,0.0
R,U,"[2, 6]",-2.0,1.0,2.038588047027588,3.4506590366363525,0.4387471169994728,74.0,748.0,0.0
R,U,"[1, 6]",-2.0,1.0,1.1748530864715576,2.8493189811706543,0.7043611708510322,74.0,749.0,0.0
R,U,"[2, 6]",-3.0,1.0,0.3567218780517578,2.096050977706909,0.73373880131884,74.0,750.0,0.0
,,"(6, 6)",,,,,,,,
R,U,"[5, 6]",1.0,1.0,0.5157010555267334,3.3572049140930176,0.7407642113983721,75.0,751.0,0.0
R,U,"[4, 6]",0.0,1.0,0.5938839912414551,2.1032989025115967,0.5109970706258466,75.0,752.0,0.0
G,D,"[5, 6]",0.0,1.0,0.3917548656463623,2.024587869644165,0.6354063517755237,75.0,753.0,0.0
R,U,"[4, 6]",0.0,1.0,0.39544200897216797,2.138889789581299,0.7408586110367024,75.0,754.0,0.0
G,D,"[5, 6]",0.0,1.0,0.5621511936187744,2.1964519023895264,0.6373517684763853,75.0,755.0,0.0
R,U,"[4, 6]",0.0,1.0,0.38251304626464844,1.9498229026794434,0.570510859583602,75.0,756.0,0.0
R,U,"[3, 6]",0.0,1.0,0.31313300132751465,1.7401149272918701,0.42742799592207126,75.0,757.0,0.0
R,U,"[2, 6]",0.0,1.0,0.6228320598602295,2.073428153991699,0.45078756238178197,75.0,758.0,0.0
R,U,"[1, 6]",0.0,1.0,0.5844161510467529,2.2021119594573975,0.6192362145423009,75.0,759.0,0.0
R,U,"[2, 6]",-3.0,1.0,0.34235191345214844,1.9978787899017334,0.6504960093560426,75.0,760.0,0.0
,,"(6, 6)",,,,,,,,
R,U,"[5, 6]",1.0,1.0,0.5820682048797607,3.12282395362854,0.5566850753638933,76.0,761.0,0.0
R,U,"[4, 6]",0.0,1.0,0.6046719551086426,2.229714870452881,0.636299822571891,76.0,762.0,0.0
R,U,"[3, 6]",0.0,1.0,0.875546932220459,2.195204973220825,0.31510375011193326,76.0,763.0,0.0
G,D,"[4, 6]",0.0,1.0,0.4342939853668213,1.8324940204620361,0.3974981501742149,76.0,764.0,0.0
R,U,"[3, 6]",0.0,1.0,0.5758881568908691,2.2698588371276855,0.6836816620766961,76.0,765.0,0.0
R,U,"[2, 6]",0.0,1.0,0.3522629737854004,1.606031894683838,0.2567977279570244,76.0,766.0,0.0
R,U,"[1, 6]",0.0,1.0,0.3023052215576172,1.593660831451416,0.3004071366103793,76.0,767.0,0.0
R,U,"[2, 6]",-3.0,1.0,0.46543312072753906,1.852618932723999,0.38622870801317927,76.0,768.0,0.0
R,U,"[1, 6]",0.0,1.0,0.9162368774414062,2.6167731285095215,0.7025953637992837,76.0,769.0,0.0
R,U,"[2, 6]",-3.0,1.0,0.29257798194885254,1.6735291481018066,0.37634687490809166,76.0,770.0,0.0
,,"(6, 6)",,,,,,,,
R,U,"[5, 6]",1.0,1.0,0.4549579620361328,3.3520851135253906,0.3783801803397763,77.0,771.0,0.0
R,U,"[4, 6]",0.0,1.0,0.634774923324585,2.2302839756011963,0.608480130088077,77.0,772.0,0.0
R,U,"[3, 6]",-1.0,1.0,0.056993961334228516,5.7806549072265625,0.6723214154330549,77.0,773.0,0.0
R,U,"[2, 6]",0.0,1.0,0.40706801414489746,1.725459098815918,0.3145853540910983,77.0,774.0,0.0
R,U,"[1, 6]",0.0,1.0,0.9067540168762207,2.294762134552002,0.3762006482026869,77.0,775.0,0.0
R,U,"[2, 6]",-3.0,1.0,0.5294899940490723,2.0779170989990234,0.5538173863444096,77.0,776.0,0.0
R,U,"[1, 6]",0.0,1.0,0.630058765411377,2.2274529933929443,0.5978119993907551,77.0,777.0,0.0
R,U,"[2, 6]",-3.0,1.0,0.4907851219177246,1.8801507949829102,0.37814377255782744,77.0,778.0,0.0
R,U,"[1, 6]",-2.0,1.0,1.0523228645324707,2.3736369609832764,0.36832046363432946,77.0,779.0,0.0
R,U,"[2, 6]",-3.0,1.0,0.37573885917663574,2.0942800045013428,0.7123198368123331,77.0,780.0,0.0
,,"(6, 6)",,,,,,,,
R,U,"[5, 6]",1.0,1.0,0.3290679454803467,3.202699899673462,0.531811993152496,78.0,781.0,0.0
R,U,"[4, 6]",0.0,1.0,0.3636629581451416,1.817537784576416,0.4493672504718976,78.0,782.0,0.0
G,D,"[5, 6]",0.0,1.0,0.15495896339416504,1.4768719673156738,0.3262058271933183,78.0,783.0,0.0
B,L,"[5, 5]",0.0,1.0,0.43931102752685547,1.9077060222625732,0.46708814486724826,78.0,784.0,0.0
G,D,"[6, 5]",0.0,1.0,0.2756509780883789,1.5738601684570312,0.29117758934519256,78.0,785.0,0.0
R,U,"[5, 5]",0.0,1.0,0.4602217674255371,1.9355309009552002,0.4765522764559674,78.0,786.0,0.0
B,L,"[5, 4]",0.0,1.0,0.3396611213684082,1.7009270191192627,0.3607744268181675,78.0,787.0,0.0
G,D,"[6, 4]",0.0,1.0,0.3805968761444092,1.6521739959716797,0.2796547724559852,78.0,788.0,0.0
Y,R,"[6, 5]",0.0,1.0,0.4329719543457031,1.935619831085205,0.4984760434052103,78.0,789.0,0.0
Y,R,"[6, 6]",0.0,1.0,0.252856969833374,1.6345999240875244,0.3831481195286639,78.0,790.0,0.0
,,"(6, 6)",,,,,,,,
Y,R,"[6, 7]",0.0,0.0,0.7555069923400879,3.475050926208496,0.30812258360218175,79.0,791.0,0.0
Y,R,"[6, 8]",1.0,1.0,0.3496088981628418,1.6567869186401367,0.31497355485610223,79.0,792.0,0.0
Y,R,"[6, 9]",1.0,2.0,0.5018959045410156,1.773388147354126,0.27167517926112317,79.0,793.0,0.0
Y,R,"[6, 10]",1.0,3.0,0.6751468181610107,1.934122085571289,0.2558444657124279,79.0,794.0,0.0
Y,R,"[6, 11]",0.0,3.0,0.410876989364624,1.9987602233886719,0.5874539377566975,79.0,795.0,0.0
Y,R,"[6, 10]",-3.0,3.0,0.1993560791015625,1.4903969764709473,0.2949017717998098,79.0,796.0,0.0
Y,R,"[6, 11]",0.0,3.0,0.23059296607971191,1.7700459957122803,0.5479189201745812,79.0,797.0,0.0
Y,R,"[6, 10]",-3.0,3.0,0.3375840187072754,1.8836088180541992,0.5481971570217543,79.0,798.0,0.0
Y,R,"[6, 11]",0.0,3.0,0.25577688217163086,1.9983329772949219,0.7300137576541226,79.0,799.0,0.0
Y,R,"[6, 10]",-1.0,3.0,0.0244140625,5.715104103088379,0.627968646483549,79.0,800.0,0.0
,,"(6, 6)",,,,,,,,
R,U,"[5, 6]",1.0,1.0,0.5489850044250488,3.6776809692382812,0.5391244813825614,80.0,801.0,0.0
R,U,"[4, 6]",0.0,1.0,0.3504049777984619,1.7003109455108643,0.356261191294936,80.0,802.0,0.0
Y,R,"[4, 7]",0.0,1.0,0.40941905975341797,1.9589130878448486,0.5482820193550288,80.0,803.0,0.0
Y,R,"[4, 8]",0.0,1.0,0.4217050075531006,2.1365251541137695,0.717932466215038,80.0,804.0,0.0
Y,R,"[4, 9]",1.0,2.0,0.43940186500549316,1.7142651081085205,0.2659087460470517,80.0,805.0,0.0
Y,R,"[4, 10]",1.0,3.0,0.694694995880127,2.1201841831207275,0.4191982863640939,80.0,806.0,0.0
Y,R,"[4, 11]",0.0,3.0,0.3829820156097412,1.6788830757141113,0.2982530226362142,80.0,807.0,0.0
Y,R,"[4, 10]",-2.0,3.0,1.370676040649414,2.623643159866333,0.2884997600606668,80.0,808.0,0.0
Y,R,"[4, 11]",0.0,3.0,0.4900510311126709,1.848445177078247,0.35352549810671174,80.0,809.0,0.0
Y,R,"[4, 10]",-3.0,3.0,0.5090470314025879,2.2038590908050537,0.6903737277909834,80.0,810.0,0.0
,,"(6, 6)",,,,,,,,
B,L,"[6, 5]",0.0,0.0,0.574591875076294,6.6036460399627686,0.3607728509059109,81.0,811.0,0.0
B,L,"[6, 4]",0.0,0.0,0.45189595222473145,1.98829984664917,0.5489699976781122,81.0,812.0,0.0
B,L,"[6, 3]",0.0,0.0,0.47585606575012207,1.964228868484497,0.4799126515435859,81.0,813.0,0.0
B,L,"[6, 2]",0.0,0.0,0.35623598098754883,1.9892299175262451,0.6189339614862803,81.0,814.0,0.0
B,L,"[6, 1]",0.0,0.0,0.4368619918823242,2.122521162033081,0.6912512253305443,81.0,815.0,0.0
B,L,"[6, 2]",-3.0,0.0,0.8001880645751953,2.298219919204712,0.5065011020573023,81.0,816.0,0.0
B,L,"[6, 1]",0.0,0.0,0.29614996910095215,1.8698370456695557,0.5761006070921146,81.0,817.0,0.0
B,L,"[6, 2]",-3.0,0.0,0.3044447898864746,1.6029880046844482,0.31269648691151714,81.0,818.0,0.0
B,L,"[6, 1]",-2.0,0.0,1.0008270740509033,2.3710219860076904,0.40022737428135174,81.0,819.0,0.0
B,L,"[6, 2]",-3.0,0.0,0.5001380443572998,1.7704288959503174,0.27064007422025754,81.0,820.0,0.0
,,"(6, 6)",,,,,,,,
G,D,"[7, 6]",0.0,0.0,0.5094161033630371,3.1811108589172363,0.31847297990899015,82.0,821.0,0.0
B,L,"[7, 5]",0.0,0.0,0.4451179504394531,2.026470899581909,0.5778425383897422,82.0,822.0,0.0
B,L,"[7, 4]",0.0,0.0,0.3174319267272949,1.9398438930511475,0.6343983630369023,82.0,823.0,0.0
B,L,"[7, 3]",0.0,0.0,0.2824289798736572,1.7032968997955322,0.4211477126063485,82.0,824.0,0.0
B,L,"[7, 2]",0.0,0.0,0.38832807540893555,1.6462979316711426,0.26762581857600415,82.0,825.0,0.0
B,L,"[7, 1]",0.0,0.0,0.8653759956359863,2.2188220024108887,0.35294692527773214,82.0,826.0,0.0
Y,R,"[7, 2]",0.0,0.0,0.49771714210510254,1.7932660579681396,0.29630081551498993,82.0,827.0,0.0
Y,R,"[7, 3]",0.0,0.0,0.870703935623169,2.193301200866699,0.3227143493028563,82.0,828.0,0.0
Y,R,"[7, 4]",-2.0,0.0,1.2936601638793945,2.847892999649048,0.5871068917680644,82.0,829.0,0.0
B,L,"[7, 3]",-2.0,0.0,2.116344928741455,3.7424910068511963,0.6628133450534581,82.0,830.0,0.0
,,"(6, 6)",,,,,,,,
B,L,"[6, 5]",0.0,0.0,0.5592379570007324,4.174181938171387,0.7368404597449599,83.0,831.0,0.0
B,L,"[6, 4]",0.0,0.0,0.546638011932373,2.029242992401123,0.4829067575071651,83.0,832.0,0.0
B,L,"[6, 3]",0.0,0.0,0.1532440185546875,1.7574419975280762,0.6072208046500541,83.0,833.0,0.0
G,D,"[7, 3]",0.0,0.0,0.7002601623535156,2.4159998893737793,0.7227282436290222,83.0,834.0,0.0
R,U,"[6, 3]",0.0,0.0,0.4588489532470703,1.9580979347229004,0.49758435221651093,83.0,835.0,0.0
G,D,"[7, 3]",0.0,0.0,0.5668590068817139,1.9250202178955078,0.3560440406933052,83.0,836.0,0.0
G,D,"[8, 3]",0.0,0.0,0.6481719017028809,2.3807499408721924,0.7364926144692292,83.0,837.0,0.0
G,D,"[9, 3]",0.0,0.0,0.47585606575012207,2.2221298217773438,0.7419050719832146,83.0,838.0,0.0
B,L,"[9, 2]",0.0,0.0,0.5211279392242432,2.077133893966675,0.5691831549015995,83.0,839.0,0.0
B,L,"[9, 1]",0.0,0.0,0.8476369380950928,2.351580858230591,0.5041064580835047,83.0,840.0,0.0
,,"(6, 6)",,,,,,,,
R,U,"[5, 6]",1.0,1.0,0.2980470657348633,6.851304054260254,0.28883257089545533,84.0,841.0,0.0
Y,R,"[5, 7]",1.0,2.0,0.4007711410522461,1.6635141372680664,0.26888856591385424,84.0,842.0,0.0
Y,R,"[5, 8]",1.0,3.0,0.3245849609375,1.6721420288085938,0.341027720947816,84.0,843.0,0.0
G,D,"[6, 8]",1.0,4.0,0.45760083198547363,2.1855571269989014,0.7262310910691809,84.0,844.0,0.0
Y,R,"[6, 9]",-1.0,4.0,0.06463003158569336,5.642673015594482,0.5189485697365611,84.0,845.0,0.0
G,D,"[7, 9]",0.0,4.0,0.3310508728027344,1.6475830078125,0.31663699445708415,84.0,846.0,0.0
G,D,"[8, 9]",0.0,4.0,0.5769858360290527,2.065340042114258,0.48177448968392017,84.0,847.0,0.0
R,U,"[7, 9]",-1.0,4.0,0.08733892440795898,5.743844985961914,0.5920492183253103,84.0,848.0,0.0
R,U,"[6, 9]",-1.0,4.0,0.06551718711853027,5.787260055541992,0.6625618681419698,84.0,849.0,0.0
R,U,"[5, 9]",-2.0,4.0,1.0189051628112793,2.7245919704437256,0.7369486639237275,84.0,850.0,0.0
,,"(6, 6)",,,,,,,,
R,U,"[5, 6]",-2.0,0.0,1.6971979141235352,6.797306060791016,0.5510677393906371,85.0,851.0,0.0
R,U,"[4, 6]",0.0,0.0,0.9431459903717041,2.202510118484497,0.25378172535038457,85.0,852.0,0.0
R,U,"[3, 6]",-2.0,0.0,1.0531821250915527,2.595292091369629,0.5821568815585627,85.0,853.0,0.0
R,U,"[2, 6]",0.0,0.0,0.4111969470977783,1.7487030029296875,0.3309412125898488,85.0,854.0,0.0
R,U,"[1, 6]",0.0,0.0,0.9992709159851074,2.457381010055542,0.45493655146464124,85.0,855.0,0.0
G,D,"[2, 6]",0.0,0.0,0.44611310958862305,1.730898141860962,0.28587847761711244,85.0,856.0,0.0
R,U,"[1, 6]",0.0,0.0,0.7198450565338135,2.3415441513061523,0.6271449149731915,85.0,857.0,0.0
R,U,"[2, 6]",-3.0,0.0,0.4425618648529053,2.0655219554901123,0.6259694866523215,85.0,858.0,0.0
B,L,"[2, 5]",0.0,0.0,0.4707190990447998,2.1431992053985596,0.6857448230391254,85.0,859.0,0.0
B,L,"[2, 4]",0.0,0.0,0.4847590923309326,1.945958137512207,0.46511610689943883,85.0,860.0,0.0
,,"(6, 6)",,,,,,,,
R,U,"[5, 6]",1.0,1.0,0.5447800159454346,5.217314958572388,0.46576820038292194,86.0,861.0,0.0
G,D,"[6, 6]",0.0,1.0,0.7020449638366699,2.119525909423828,0.41856538075134414,86.0,862.0,0.0
R,U,"[5, 6]",0.0,1.0,0.5763680934906006,2.2972559928894043,0.7155935072955948,86.0,863.0,0.0
R,U,"[4, 6]",0.0,1.0,0.4983839988708496,1.841994047164917,0.34112399521203035,86.0,864.0,0.0
G,D,"[5, 6]",0.0,1.0,0.7109789848327637,2.353055953979492,0.6439498976332318,86.0,865.0,0.0
R,U,"[4, 6]",0.0,1.0,0.3139488697052002,1.6365220546722412,0.3307584384820097,86.0,866.0,0.0
G,D,"[5, 6]",0.0,1.0,0.5243010520935059,1.9163298606872559,0.38034283683785836,86.0,867.0,0.0
R,U,"[4, 6]",0.0,1.0,0.3695499897003174,1.952631950378418,0.5827650265316586,86.0,868.0,0.0
G,D,"[5, 6]",0.0,1.0,0.49431681632995605,2.1933529376983643,0.692466588703727,86.0,869.0,0.0
R,U,"[4, 6]",0.0,1.0,0.45989990234375,1.8464369773864746,0.3892976979027848,86.0,870.0,0.0
,,"(6, 6)",,,,,,,,
R,U,"[5, 6]",1.0,1.0,0.5799319744110107,3.8581509590148926,0.6970647752026333,87.0,871.0,0.0
G,D,"[6, 6]",0.0,1.0,0.4322021007537842,2.172499179840088,0.7365860815626305,87.0,872.0,0.0
G,D,"[7, 6]",0.0,1.0,0.5025110244750977,1.8129689693450928,0.31620732096416276,87.0,873.0,0.0
G,D,"[8, 6]",0.0,1.0,0.5501759052276611,2.0089027881622314,0.4583284831791723,87.0,874.0,0.0
R,U,"[7, 6]",0.0,1.0,0.4573550224304199,1.7421209812164307,0.28388634986917805,87.0,875.0,0.0
R,U,"[6, 6]",0.0,1.0,0.7357749938964844,2.3950231075286865,0.6620390349461927,87.0,876.0,0.0
R,U,"[5, 6]",0.0,1.0,0.28302502632141113,1.727876901626587,0.4564619087631163,87.0,877.0,0.0
Y,R,"[5, 7]",1.0,2.0,0.5852770805358887,1.9842400550842285,0.407352297816865,87.0,878.0,0.0
B,L,"[5, 6]",0.0,2.0,0.5166878700256348,1.7786548137664795,0.2695765394497907,87.0,879.0,0.0
G,D,"[6, 6]",0.0,2.0,0.6284530162811279,2.122215986251831,0.49152293144935594,87.0,880.0,0.0
,,"(6, 6)",,,,,,,,
R,U,"[5, 6]",1.0,1.0,0.5561988353729248,2.9016361236572266,0.37665075238936496,88.0,881.0,0.0
R,U,"[4, 6]",0.0,1.0,0.5736620426177979,1.8297100067138672,0.2562965600707588,88.0,882.0,0.0
G,D,"[5, 6]",0.0,1.0,0.6534268856048584,2.3145508766174316,0.6704668649891992,88.0,883.0,0.0
R,U,"[4, 6]",0.0,1.0,0.4547109603881836,1.7756528854370117,0.3130082888677938,88.0,884.0,0.0
G,D,"[5, 6]",0.0,1.0,0.9153831005096436,2.2078568935394287,0.2876270852605987,88.0,885.0,0.0
R,U,"[4, 6]",0.0,1.0,0.8303768634796143,2.1651527881622314,0.33603799494224,88.0,886.0,0.0
G,D,"[5, 6]",0.0,1.0,0.4320361614227295,1.8069100379943848,0.3760735877556974,88.0,887.0,0.0
R,U,"[4, 6]",0.0,1.0,0.4046471118927002,1.7841379642486572,0.39354031016904545,88.0,888.0,0.0
G,D,"[5, 6]",0.0,1.0,0.8223140239715576,2.262408971786499,0.43930880667616207,88.0,889.0,0.0
G,D,"[6, 6]",0.0,1.0,0.46363210678100586,1.9236960411071777,0.4628802020806366,88.0,890.0,0.0
,,"(6, 6)",,,,,,,,
R,U,"[5, 6]",1.0,1.0,0.5794482231140137,3.5585598945617676,0.338101583438529,89.0,891.0,0.0
R,U,"[4, 6]",-2.0,1.0,1.8348498344421387,3.0972588062286377,0.3021303885187196,89.0,892.0,0.0
R,U,"[3, 6]",0.0,1.0,0.8121829032897949,2.359488010406494,0.5445525880353623,89.0,893.0,0.0
G,D,"[4, 6]",0.0,1.0,0.8861949443817139,2.5687551498413086,0.6965732599614487,89.0,894.0,0.0
G,D,"[5, 6]",0.0,1.0,0.3478820323944092,1.9832820892333984,0.630022736675589,89.0,895.0,0.0
R,U,"[4, 6]",0.0,1.0,0.32660698890686035,1.8918941020965576,0.5550559645971094,89.0,896.0,0.0
R,U,"[3, 6]",0.0,1.0,0.44249701499938965,1.7649590969085693,0.32026733732310103,89.0,897.0,0.0
G,D,"[4, 6]",0.0,1.0,0.8237221240997314,2.1004199981689453,0.2707130376144173,89.0,898.0,0.0
R,U,"[3, 6]",0.0,1.0,0.5564868450164795,2.136807918548584,0.5739009625639182,89.0,899.0,0.0
Y,R,"[3, 7]",0.0,1.0,0.4321599006652832,1.977457046508789,0.5512604097929483,89.0,900.0,0.0
,,"(6, 6)",,,,,,,,
R,U,"[5, 6]",1.0,1.0,0.545896053314209,4.672689914703369,0.34073427314270854,90.0,901.0,0.0
B,L,"[5, 5]",0.0,1.0,0.6996920108795166,2.2913758754730225,0.5984999516869067,90.0,902.0,0.0
Y,R,"[5, 6]",0.0,1.0,0.406160831451416,2.1437768936157227,0.7254706787380161,90.0,903.0,0.0
B,L,"[5, 5]",0.0,1.0,0.3407289981842041,1.609241008758545,0.2685282041503982,90.0,904.0,0.0
G,D,"[6, 5]",-2.0,1.0,1.0461339950561523,2.7039031982421875,0.6886123960983195,90.0,905.0,0.0
R,U,"[5, 5]",0.0,1.0,0.34118199348449707,1.830394983291626,0.4859137401973605,90.0,906.0,0.0
B,L,"[5, 4]",0.0,1.0,0.530750036239624,2.204479932785034,0.6734472190607836,90.0,907.0,0.0
Y,R,"[5, 5]",0.0,1.0,0.4996769428253174,2.2405920028686523,0.747319584650606,90.0,908.0,0.0
B,L,"[5, 4]",0.0,1.0,0.44093894958496094,1.7587828636169434,0.30640034241691094,90.0,909.0,0.0
G,D,"[6, 4]",0.0,1.0,0.8127140998840332,2.294306993484497,0.48393347427614125,90.0,910.0,0.0
,,"(6, 6)",,,,,,,,
R,U,"[5, 6]",1.0,1.0,0.6140620708465576,3.5430381298065186,0.3271006843755379,91.0,911.0,0.0
G,D,"[6, 6]",0.0,1.0,0.8152518272399902,2.497338056564331,0.6906775338279278,91.0,912.0,0.0
B,L,"[6, 5]",0.0,1.0,0.33425188064575195,1.800584077835083,0.47465621177725265,91.0,913.0,0.0
G,D,"[7, 5]",0.0,1.0,0.3962090015411377,1.9490501880645752,0.5569447112936917,91.0,914.0,0.0
Y,R,"[7, 6]",0.0,1.0,0.44524121284484863,2.1545729637145996,0.7113869638713807,91.0,915.0,0.0
B,L,"[7, 5]",0.0,1.0,0.4944441318511963,1.8244638442993164,0.33621391943728757,91.0,916.0,0.0
Y,R,"[7, 6]",0.0,1.0,0.6100039482116699,2.2395520210266113,0.625484873868677,91.0,917.0,0.0
B,L,"[7, 5]",0.0,1.0,0.826524019241333,2.1104049682617188,0.28601023996457836,91.0,918.0,0.0
B,L,"[7, 4]",-2.0,1.0,1.2941620349884033,2.5413551330566406,0.2775118886850942,91.0,919.0,0.0
B,L,"[7, 3]",-2.0,1.0,1.1145379543304443,2.4232261180877686,0.350551095489554,91.0,920.0,0.0
,,"(6, 6)",,,,,,,,
R,U,"[5, 6]",1.0,1.0,0.49578404426574707,3.269423007965088,0.5363072690383426,92.0,921.0,0.0
R,U,"[4, 6]",0.0,1.0,0.4154641628265381,1.696295976638794,0.2828958625306405,92.0,922.0,0.0
R,U,"[3, 6]",0.0,1.0,0.6385390758514404,2.0219271183013916,0.38808552136051877,92.0,923.0,0.0
R,U,"[2, 6]",0.0,1.0,0.5134727954864502,2.210242986679077,0.698479686464458,92.0,924.0,0.0
R,U,"[1, 6]",0.0,1.0,0.6731369495391846,2.136046886444092,0.45081214049090435,92.0,925.0,0.0
G,D,"[2, 6]",0.0,1.0,0.2658360004425049,1.7070178985595703,0.4412077307994714,92.0,926.0,0.0
G,D,"[3, 6]",0.0,1.0,0.159257173538208,1.6075608730316162,0.4487278955285629,92.0,927.0,0.0
G,D,"[4, 6]",0.0,1.0,0.15701603889465332,1.896867036819458,0.7285734897800848,92.0,928.0,0.0
R,U,"[3, 6]",0.0,1.0,0.7980849742889404,2.2903120517730713,0.4858742929927167,92.0,929.0,0.0
G,D,"[4, 6]",0.0,1.0,0.41968798637390137,2.1591219902038574,0.7446544795033254,92.0,930.0,0.0
,,"(6, 6)",,,,,,,,
Y,R,"[6, 7]",-2.0,0.0,1.0357928276062012,4.140510082244873,0.7018000611381376,93.0,931.0,0.0
Y,R,"[6, 8]",1.0,1.0,0.4136230945587158,1.8903889656066895,0.475779965224671,93.0,932.0,0.0
Y,R,"[6, 9]",1.0,2.0,0.5742471218109131,2.042227029800415,0.4679756685472289,93.0,933.0,0.0
Y,R,"[6, 10]",1.0,3.0,0.9003169536590576,2.5571751594543457,0.6582227537819134,93.0,934.0,0.0
Y,R,"[6, 11]",0.0,3.0,0.319288969039917,1.5717191696166992,0.2636653512796013,93.0,935.0,0.0
Y,R,"[6, 10]",-2.0,3.0,1.2188990116119385,2.8788249492645264,0.6920269049189054,93.0,936.0,0.0
Y,R,"[6, 11]",0.0,3.0,0.3961620330810547,1.7515769004821777,0.3605540573983889,93.0,937.0,0.0
Y,R,"[6, 10]",-2.0,3.0,1.1612119674682617,2.579387903213501,0.45646275763764665,93.0,938.0,0.0
Y,R,"[6, 11]",0.0,3.0,0.5108280181884766,2.2267019748687744,0.7162163739782258,93.0,939.0,0.0
B,L,"[6, 10]",0.0,3.0,0.40352511405944824,1.828679084777832,0.42850529207451116,93.0,940.0,0.0
,,"(6, 6)",,,,,,,,
R,U,"[5, 6]",1.0,1.0,0.8105881214141846,3.9308130741119385,0.4758783630957602,94.0,941.0,0.0
R,U,"[4, 6]",0.0,1.0,0.5034699440002441,1.9496419429779053,0.45875900722625074,94.0,942.0,0.0
G,D,"[5, 6]",0.0,1.0,0.44646191596984863,1.9319210052490234,0.4906072170014154,94.0,943.0,0.0
B,L,"[5, 5]",0.0,1.0,0.536175012588501,2.2747719287872314,0.7485059236276181,94.0,944.0,0.0
R,U,"[4, 5]",0.0,1.0,0.19377803802490234,1.5584640502929688,0.35726402230879667,94.0,945.0,0.0
B,L,"[4, 4]",0.0,1.0,0.5687580108642578,1.8494501113891602,0.2901802910038889,94.0,946.0,0.0
R,U,"[3, 4]",-2.0,1.0,1.102043867111206,2.568026065826416,0.507937942601672,94.0,947.0,0.0
G,D,"[4, 4]",0.0,1.0,0.6720750331878662,2.258683919906616,0.5997941589947158,94.0,948.0,0.0
R,U,"[3, 4]",0.0,1.0,0.4713249206542969,1.8782339096069336,0.41161996631581155,94.0,949.0,0.0
R,U,"[2, 4]",0.0,1.0,0.7117550373077393,2.4542670249938965,0.7489410908868716,94.0,950.0,0.0
,,"(6, 6)",,,,,,,,
R,U,"[5, 6]",1.0,1.0,0.6137528419494629,3.3317930698394775,0.5140685360994672,95.0,951.0,0.0
G,D,"[6, 6]",0.0,1.0,0.41562414169311523,1.746636152267456,0.32746420975024765,95.0,952.0,0.0
R,U,"[5, 6]",0.0,1.0,0.4993000030517578,2.210911989212036,0.7212467118773345,95.0,953.0,0.0
G,D,"[6, 6]",0.0,1.0,0.46769094467163086,2.1156649589538574,0.6537197646629804,95.0,954.0,0.0
G,D,"[7, 6]",0.0,1.0,0.49524497985839844,2.0197930335998535,0.5235308780895078,95.0,955.0,0.0
G,D,"[8, 6]",0.0,1.0,0.4943501949310303,1.9227418899536133,0.42973595081689525,95.0,956.0,0.0
G,D,"[9, 6]",0.0,1.0,0.5171051025390625,2.2247350215911865,0.7041799306149823,95.0,957.0,0.0
G,D,"[10, 6]",0.0,1.0,0.42017078399658203,1.9075260162353516,0.49549267422950477,95.0,958.0,0.0
G,D,"[11, 6]",0.0,1.0,0.5518989562988281,1.8908569812774658,0.35275431591194717,95.0,959.0,0.0
G,D,"[10, 6]",-2.0,1.0,1.193237066268921,2.429097890853882,0.2652078372008516,95.0,960.0,0.0
,,"(6, 6)",,,,,,,,
R,U,"[5, 6]",1.0,1.0,0.4894289970397949,4.353332042694092,0.2519617776714047,96.0,961.0,0.0
R,U,"[4, 6]",0.0,1.0,0.699894905090332,2.272757053375244,0.5743869419614481,96.0,962.0,0.0
R,U,"[3, 6]",0.0,1.0,0.5301167964935303,1.7980878353118896,0.2727579476509329,96.0,963.0,0.0
R,U,"[2, 6]",0.0,1.0,0.4602651596069336,1.7876219749450684,0.3269069832189306,96.0,964.0,0.0
R,U,"[1, 6]",0.0,1.0,0.7498180866241455,2.387129068374634,0.6469097748527206,96.0,965.0,0.0
R,U,"[2, 6]",-3.0,1.0,0.3348219394683838,1.803297996520996,0.4671830860597957,96.0,966.0,0.0
R,U,"[1, 6]",0.0,1.0,0.38176894187927246,1.9753990173339844,0.5923775844369531,96.0,967.0,0.0
R,U,"[2, 6]",-3.0,1.0,0.4010791778564453,2.003594160079956,0.6126190525651433,96.0,968.0,0.0
R,U,"[1, 6]",0.0,1.0,0.9233651161193848,2.191633939743042,0.2545754334040808,96.0,969.0,0.0
R,U,"[2, 6]",-3.0,1.0,0.43230390548706055,1.8987810611724854,0.46972042589534785,96.0,970.0,0.0
,,"(6, 6)",,,,,,,,
R,U,"[5, 6]",1.0,1.0,0.4761829376220703,4.804647922515869,0.4909897332150731,97.0,971.0,0.0
R,U,"[4, 6]",0.0,1.0,0.4110898971557617,1.753835916519165,0.34499204361684405,97.0,972.0,0.0
R,U,"[3, 6]",0.0,1.0,0.677954912185669,1.9741289615631104,0.30244230112618037,97.0,973.0,0.0
R,U,"[2, 6]",0.0,1.0,0.3666839599609375,1.845724105834961,0.4812770726099501,97.0,974.0,0.0
R,U,"[1, 6]",0.0,1.0,0.41495609283447266,2.0777180194854736,0.6587577445195518,97.0,975.0,0.0
R,U,"[2, 6]",-3.0,1.0,0.2859489917755127,1.551882028579712,0.27767335197936277,97.0,976.0,0.0
R,U,"[1, 6]",0.0,1.0,0.8609790802001953,2.5308921337127686,0.674845797217066,97.0,977.0,0.0
R,U,"[2, 6]",-3.0,1.0,0.662808895111084,2.224169969558716,0.5656773395694975,97.0,978.0,0.0
R,U,"[1, 6]",0.0,1.0,0.4902961254119873,2.0310399532318115,0.5304117511713716,97.0,979.0,0.0
R,U,"[2, 6]",-3.0,1.0,0.5919411182403564,2.1274490356445312,0.5241191783568777,97.0,980.0,0.0
,,"(6, 6)",,,,,,,,
R,U,"[5, 6]",1.0,1.0,0.6972520351409912,2.9179298877716064,0.4753578605356271,98.0,981.0,0.0
R,U,"[4, 6]",0.0,1.0,0.402540922164917,2.1289138793945312,0.7375577651383628,98.0,982.0,0.0
R,U,"[3, 6]",0.0,1.0,0.44029712677001953,1.8230130672454834,0.3939561301007416,98.0,983.0,0.0
R,U,"[2, 6]",0.0,1.0,0.5835340023040771,2.2116920948028564,0.6388150702646821,98.0,984.0,0.0
R,U,"[1, 6]",0.0,1.0,0.5998480319976807,1.8547351360321045,0.2605968508361175,98.0,985.0,0.0
R,U,"[2, 6]",-3.0,1.0,0.8598029613494873,2.1978559494018555,0.34161362683401586,98.0,986.0,0.0
R,U,"[1, 6]",0.0,1.0,0.481799840927124,1.8065450191497803,0.3148393094453109,98.0,987.0,0.0
R,U,"[2, 6]",-3.0,1.0,0.5436239242553711,2.0908570289611816,0.5387811938540517,98.0,988.0,0.0
R,U,"[1, 6]",0.0,1.0,0.43289709091186523,1.8137950897216797,0.38592820621178026,98.0,989.0,0.0
G,D,"[2, 6]",0.0,1.0,0.5894110202789307,2.0943281650543213,0.4968265099134846,98.0,990.0,0.0
,,"(6, 6)",,,,,,,,
R,U,"[5, 6]",1.0,1.0,0.27072906494140625,2.707292079925537,0.3043431281563948,99.0,991.0,0.0
R,U,"[4, 6]",0.0,1.0,0.9001550674438477,2.175844192504883,0.28009544769550054,99.0,992.0,0.0
R,U,"[3, 6]",0.0,1.0,0.6017551422119141,2.2733099460601807,0.669611700813494,99.0,993.0,0.0
R,U,"[2, 6]",0.0,1.0,0.8550839424133301,2.194300889968872,0.33097014664032487,99.0,994.0,0.0
R,U,"[1, 6]",0.0,1.0,0.7200419902801514,2.081707000732422,0.36255933251088074,99.0,995.0,0.0
R,U,"[2, 6]",-3.0,1.0,0.6926901340484619,2.173628091812134,0.46945263461173997,99.0,996.0,0.0
R,U,"[1, 6]",0.0,1.0,0.686028003692627,2.2519919872283936,0.5712207786421081,99.0,997.0,0.0
R,U,"[2, 6]",-3.0,1.0,0.445004940032959,1.7942249774932861,0.3489731493215882,99.0,998.0,0.0
R,U,"[1, 6]",0.0,1.0,0.8001039028167725,2.427586078643799,0.6262727180999828,99.0,999.0,0.0
R,U,"[2, 6]",-3.0,1.0,0.4573380947113037,1.9504029750823975,0.4934178695271149,99.0,1000.0,0.0
