button_choice,action_choice,coordinate_choice,reward,cumulative_reward,rt,total_trial_time,iti,block_n,trial_n,trial_type
R,U,"[5, 6]",1.0,1.0,0.6528620719909668,2.4281790256500244,0.6787408760888227,0.0,1.0,0.0
Y,R,"[5, 7]",-1.0,1.0,0.06313204765319824,5.458024024963379,0.25388376509171456,0.0,2.0,0.0
Y,R,"[5, 8]",1.0,2.0,0.29440903663635254,1.841336965560913,0.44505780594651595,0.0,3.0,0.0
Y,R,"[5, 9]",0.0,2.0,0.31343913078308105,1.7986328601837158,0.3937298729227814,0.0,4.0,0.0
G,D,"[6, 9]",1.0,3.0,0.2643859386444092,1.902108907699585,0.5458003229908245,0.0,5.0,0.0
Y,R,"[6, 10]",1.0,4.0,0.2408459186553955,1.7184298038482666,0.3810207781581685,0.0,6.0,0.0
Y,R,"[6, 11]",0.0,4.0,0.30532383918762207,1.6810178756713867,0.26231314861851335,0.0,7.0,0.0
R,U,"[5, 11]",0.0,4.0,0.30669689178466797,1.789025068283081,0.3844072535876252,0.0,8.0,0.0
R,U,"[4, 11]",0.0,4.0,0.26568102836608887,1.9103569984436035,0.544737001727039,0.0,9.0,0.0
B,L,"[4, 10]",1.0,5.0,0.3511779308319092,2.0532450675964355,0.6145714586213202,0.0,10.0,0.0
,,"(6, 6)",,,,,,,,
R,U,"[5, 6]",1.0,1.0,0.45873498916625977,4.901554107666016,0.44953089855219375,1.0,11.0,0.0
Y,R,"[5, 7]",1.0,2.0,0.28938794136047363,1.9689769744873047,0.5683323081805478,1.0,12.0,0.0
Y,R,"[5, 8]",1.0,3.0,0.3846859931945801,2.227483034133911,0.7457614110380821,1.0,13.0,0.0
G,D,"[6, 8]",1.0,4.0,0.36848998069763184,2.091856002807617,0.6211932454562734,1.0,14.0,0.0
Y,R,"[6, 9]",1.0,5.0,0.2756640911102295,1.6887731552124023,0.3102730709961029,1.0,15.0,0.0
Y,R,"[6, 10]",1.0,6.0,0.36986398696899414,2.022650957107544,0.5660176247525,1.0,16.0,0.0
R,U,"[5, 10]",1.0,7.0,0.23412585258483887,1.5958359241485596,0.26206616032034585,1.0,17.0,0.0
R,U,"[4, 10]",1.0,8.0,0.2334580421447754,1.9785988330841064,0.6566927802075302,1.0,18.0,0.0
B,L,"[4, 9]",1.0,9.0,0.2650611400604248,1.839432954788208,0.4799607289410167,1.0,19.0,0.0
R,U,"[3, 9]",1.0,10.0,0.28710103034973145,2.063504934310913,0.676632726162762,1.0,20.0,0.0
,,"(6, 6)",,,,,,,,
R,U,"[5, 6]",1.0,1.0,0.5214390754699707,4.742746114730835,0.30344929274335297,2.0,21.0,0.0
Y,R,"[5, 7]",1.0,2.0,0.2694830894470215,1.8241980075836182,0.4606528429088954,2.0,22.0,0.0
Y,R,"[5, 8]",1.0,3.0,0.310697078704834,1.9258980751037598,0.5197230736399242,2.0,23.0,0.0
G,D,"[6, 8]",1.0,4.0,0.25154900550842285,1.867650032043457,0.5208405269715013,2.0,24.0,0.0
Y,R,"[6, 9]",1.0,5.0,0.2569441795349121,1.8189899921417236,0.456495492584186,2.0,25.0,0.0
Y,R,"[6, 10]",1.0,6.0,0.31038784980773926,1.9288020133972168,0.5185746699473059,2.0,26.0,0.0
R,U,"[5, 10]",1.0,7.0,0.24424505233764648,1.903205156326294,0.555036976983549,2.0,27.0,0.0
R,U,"[4, 10]",1.0,8.0,0.22934484481811523,1.8070831298828125,0.4789854819078563,2.0,28.0,0.0
B,L,"[4, 9]",1.0,9.0,0.2922399044036865,1.6515049934387207,0.26404181098543295,2.0,29.0,0.0
R,U,"[3, 9]",1.0,10.0,0.3148651123046875,2.017930030822754,0.5984000921348299,2.0,30.0,0.0
,,"(6, 6)",,,,,,,,
R,U,"[5, 6]",1.0,1.0,0.45346999168395996,3.545970916748047,0.6112330787086915,3.0,31.0,0.0
Y,R,"[5, 7]",1.0,2.0,0.222747802734375,2.012188196182251,0.6896903015538822,3.0,32.0,0.0
Y,R,"[5, 8]",1.0,3.0,0.252147912979126,1.832716941833496,0.4893248373937483,3.0,33.0,0.0
G,D,"[6, 8]",1.0,4.0,0.34386301040649414,2.0021378993988037,0.5581340945226592,3.0,34.0,0.0
Y,R,"[6, 9]",1.0,5.0,0.23035502433776855,1.5845401287078857,0.25962710345463713,3.0,35.0,0.0
Y,R,"[6, 10]",1.0,6.0,0.3170468807220459,1.8331999778747559,0.4260030122105233,3.0,36.0,0.0
R,U,"[5, 10]",1.0,7.0,0.2654860019683838,1.7833118438720703,0.4260264116787656,3.0,37.0,0.0
R,U,"[4, 10]",1.0,8.0,0.2631998062133789,1.8115148544311523,0.45426368942007356,3.0,38.0,0.0
B,L,"[4, 9]",1.0,9.0,0.20160603523254395,1.9363529682159424,0.6404845134932149,3.0,39.0,0.0
R,U,"[3, 9]",1.0,10.0,0.23044800758361816,1.830091953277588,0.5038976691561756,3.0,40.0,0.0
,,"(6, 6)",,,,,,,,
R,U,"[5, 6]",1.0,1.0,0.3840510845184326,2.9709339141845703,0.4416870259025452,4.0,41.0,0.0
Y,R,"[5, 7]",1.0,2.0,0.25440096855163574,1.8796179294586182,0.5211926972061686,4.0,42.0,0.0
Y,R,"[5, 8]",1.0,3.0,0.23452186584472656,1.7769639492034912,0.4482794683768308,4.0,43.0,0.0
G,D,"[6, 8]",1.0,4.0,0.24028611183166504,1.95064377784729,0.5988162082870574,4.0,44.0,0.0
Y,R,"[6, 9]",1.0,5.0,0.17991185188293457,1.6899819374084473,0.40579754292099474,4.0,45.0,0.0
Y,R,"[6, 10]",1.0,6.0,0.22494792938232422,1.648927927017212,0.32146121286917434,4.0,46.0,0.0
R,U,"[5, 10]",1.0,7.0,0.23951983451843262,1.7017579078674316,0.3563612525838346,4.0,47.0,0.0
R,U,"[4, 10]",1.0,8.0,0.22184514999389648,2.0423810482025146,0.7151572572152489,4.0,48.0,0.0
B,L,"[4, 9]",1.0,9.0,0.24096298217773438,1.8228058815002441,0.4715152231904129,4.0,49.0,0.0
R,U,"[3, 9]",1.0,10.0,0.21928811073303223,1.9828240871429443,0.6709195736550275,4.0,50.0,0.0
,,"(6, 6)",,,,,,,,
R,U,"[5, 6]",1.0,1.0,0.4782280921936035,3.2670199871063232,0.504705282170971,5.0,51.0,0.0
Y,R,"[5, 7]",1.0,2.0,0.2513918876647949,2.028892993927002,0.6834553249936305,5.0,52.0,0.0
Y,R,"[5, 8]",-1.0,2.0,0.0838479995727539,5.8485212326049805,0.632158884613747,5.0,53.0,0.0
G,D,"[6, 8]",1.0,3.0,0.40834903717041016,2.0674939155578613,0.5497016984196154,5.0,54.0,0.0
Y,R,"[6, 9]",1.0,4.0,0.32692503929138184,2.1595427989959717,0.7258971374076232,5.0,55.0,0.0
Y,R,"[6, 10]",1.0,5.0,0.3167850971221924,2.0596699714660645,0.6523602926498029,5.0,56.0,0.0
R,U,"[5, 10]",1.0,6.0,0.33162903785705566,1.8785290718078613,0.4477058767800898,5.0,57.0,0.0
R,U,"[4, 10]",1.0,7.0,0.26190805435180664,2.073857069015503,0.7045494934164453,5.0,58.0,0.0
B,L,"[4, 9]",1.0,8.0,0.3334798812866211,1.9606411457061768,0.5322408891417572,5.0,59.0,0.0
R,U,"[3, 9]",1.0,9.0,0.323930025100708,2.0722100734710693,0.6375525338544457,5.0,60.0,0.0
,,"(6, 6)",,,,,,,,
R,U,"[5, 6]",1.0,1.0,0.3777639865875244,3.4324800968170166,0.45356044752535557,6.0,61.0,0.0
Y,R,"[5, 7]",1.0,2.0,0.3462810516357422,2.0739710330963135,0.6274093848513023,6.0,62.0,0.0
Y,R,"[5, 8]",1.0,3.0,0.34426403045654297,2.1101088523864746,0.6709370853659647,6.0,63.0,0.0
G,D,"[6, 8]",1.0,4.0,0.36018800735473633,1.7902429103851318,0.3280906805262358,6.0,64.0,0.0
Y,R,"[6, 9]",1.0,5.0,0.3075580596923828,1.7014122009277344,0.2963458984646044,6.0,65.0,0.0
Y,R,"[6, 10]",1.0,6.0,0.3196539878845215,2.0574419498443604,0.6366415076935461,6.0,66.0,0.0
R,U,"[5, 10]",1.0,7.0,0.2785918712615967,1.8513429164886475,0.47169362338715887,6.0,67.0,0.0
R,U,"[4, 10]",1.0,8.0,0.24608206748962402,1.7169818878173828,0.37206860979026535,6.0,68.0,0.0
B,L,"[4, 9]",1.0,9.0,0.37552785873413086,2.1846320629119873,0.7229762951277505,6.0,69.0,0.0
R,U,"[3, 9]",1.0,10.0,0.3090629577636719,2.1169300079345703,0.7065521026831512,6.0,70.0,0.0
,,"(6, 6)",,,,,,,,
R,U,"[5, 6]",1.0,1.0,0.635383129119873,3.6632490158081055,0.4367729068049035,7.0,71.0,0.0
Y,R,"[5, 7]",1.0,2.0,0.23870182037353516,1.8656888008117676,0.5191936793513121,7.0,72.0,0.0
Y,R,"[5, 8]",1.0,3.0,0.27346014976501465,1.8352470397949219,0.4544526873395149,7.0,73.0,0.0
G,D,"[6, 8]",1.0,4.0,0.32683610916137695,2.0787599086761475,0.6496654527080707,7.0,74.0,0.0
Y,R,"[6, 9]",1.0,5.0,0.31084299087524414,1.9706668853759766,0.5537716489472506,7.0,75.0,0.0
Y,R,"[6, 10]",1.0,6.0,0.27884697914123535,1.7076098918914795,0.32836692160998476,7.0,76.0,0.0
R,U,"[5, 10]",1.0,7.0,0.29824018478393555,1.64725923538208,0.2591161811657381,7.0,77.0,0.0
R,U,"[4, 10]",1.0,8.0,0.23648619651794434,1.6103460788726807,0.28611539112720574,7.0,78.0,0.0
B,L,"[4, 9]",1.0,9.0,0.2957310676574707,1.8165380954742432,0.4190745664148432,7.0,79.0,0.0
R,U,"[3, 9]",1.0,10.0,0.22313714027404785,2.0675458908081055,0.7363412640765593,7.0,80.0,0.0
,,"(6, 6)",,,,,,,,
R,U,"[5, 6]",1.0,1.0,0.4548470973968506,2.663723945617676,0.28405131039669507,8.0,81.0,0.0
Y,R,"[5, 7]",1.0,2.0,0.24616408348083496,2.0543718338012695,0.7045566111336923,8.0,82.0,0.0
Y,R,"[5, 8]",1.0,3.0,0.273953914642334,1.822432041168213,0.4439186117145955,8.0,83.0,0.0
G,D,"[6, 8]",1.0,4.0,0.2753419876098633,1.8645999431610107,0.49188593911579903,8.0,84.0,0.0
Y,R,"[6, 9]",1.0,5.0,0.27974891662597656,1.91324782371521,0.5383990521820015,8.0,85.0,0.0
Y,R,"[6, 10]",1.0,6.0,0.24408721923828125,1.6664478778839111,0.3218624979728003,8.0,86.0,0.0
R,U,"[5, 10]",1.0,7.0,0.29268717765808105,1.9998998641967773,0.6047766583358134,8.0,87.0,0.0
R,U,"[4, 10]",1.0,8.0,0.2807469367980957,2.116780996322632,0.738068746631562,8.0,88.0,0.0
B,L,"[4, 9]",1.0,9.0,0.289031982421875,2.1255810260772705,0.7304271258606679,8.0,89.0,0.0
R,U,"[3, 9]",1.0,10.0,0.3507101535797119,1.9358348846435547,0.4831485669149958,8.0,90.0,0.0
,,"(6, 6)",,,,,,,,
R,U,"[5, 6]",1.0,1.0,0.48531198501586914,2.920886993408203,0.35418577228477177,9.0,91.0,0.0
Y,R,"[5, 7]",1.0,2.0,0.28943300247192383,2.0771379470825195,0.680985382467703,9.0,92.0,0.0
Y,R,"[5, 8]",1.0,3.0,0.34203100204467773,1.917490005493164,0.465378896897077,9.0,93.0,0.0
G,D,"[6, 8]",1.0,4.0,0.4700150489807129,2.0242929458618164,0.45615366732344803,9.0,94.0,0.0
Y,R,"[6, 9]",1.0,5.0,0.25453686714172363,2.0991499423980713,0.7385536157053141,9.0,95.0,0.0
Y,R,"[6, 10]",1.0,6.0,0.3204641342163086,2.074972152709961,0.6637761188747635,9.0,96.0,0.0
R,U,"[5, 10]",1.0,7.0,0.3392360210418701,1.8289010524749756,0.3762991364008703,9.0,97.0,0.0
R,U,"[4, 10]",1.0,8.0,0.26865696907043457,1.8688571453094482,0.5110834860226725,9.0,98.0,0.0
B,L,"[4, 9]",1.0,9.0,0.23799490928649902,1.9327139854431152,0.6109678549677191,9.0,99.0,0.0
R,U,"[3, 9]",1.0,10.0,0.23876595497131348,1.974942922592163,0.6358621869196774,9.0,100.0,0.0
,,"(6, 6)",,,,,,,,
G,D,"[7, 6]",0.0,0.0,0.7139379978179932,3.3788089752197266,0.26500881543559673,10.0,101.0,0.0
Y,R,"[7, 7]",0.0,0.0,0.2743699550628662,2.074897050857544,0.6895250433489941,10.0,102.0,0.0
Y,R,"[7, 8]",0.0,0.0,0.24762797355651855,1.9701471328735352,0.6265171191977013,10.0,103.0,0.0
G,D,"[8, 8]",0.0,0.0,0.32926201820373535,2.135404109954834,0.7118017063985389,10.0,104.0,0.0
Y,R,"[8, 9]",0.0,0.0,0.18366408348083496,1.768937110900879,0.49781274692020894,10.0,105.0,0.0
Y,R,"[8, 10]",0.0,0.0,0.20739102363586426,1.6674621105194092,0.3487109539621825,10.0,106.0,0.0
R,U,"[7, 10]",0.0,0.0,0.284747838973999,2.123892068862915,0.7387909815550865,10.0,107.0,0.0
R,U,"[6, 10]",1.0,1.0,0.23126888275146484,1.8575150966644287,0.5298526648941861,10.0,108.0,0.0
B,L,"[6, 9]",1.0,2.0,0.1966559886932373,1.6894421577453613,0.3861402502897716,10.0,109.0,0.0
R,U,"[5, 9]",0.0,2.0,0.22671008110046387,1.8028991222381592,0.4724045272453246,10.0,110.0,0.0
,,"(6, 6)",,,,,,,,
R,U,"[5, 6]",1.0,1.0,0.5261008739471436,3.5654289722442627,0.6210130158258291,11.0,111.0,0.0
Y,R,"[5, 7]",1.0,2.0,0.24948596954345703,1.6337039470672607,0.28832534166365714,11.0,112.0,0.0
Y,R,"[5, 8]",1.0,3.0,0.3185429573059082,2.1069140434265137,0.6949103370144476,11.0,113.0,0.0
G,D,"[6, 8]",1.0,4.0,0.23267912864685059,1.6297879219055176,0.3084142199221184,11.0,114.0,0.0
Y,R,"[6, 9]",1.0,5.0,0.2792949676513672,1.876945972442627,0.5017520575840546,11.0,115.0,0.0
Y,R,"[6, 10]",1.0,6.0,0.24309301376342773,1.8211719989776611,0.4731118772929641,11.0,116.0,0.0
R,U,"[5, 10]",1.0,7.0,0.24074697494506836,1.7360939979553223,0.3926025646962867,11.0,117.0,0.0
R,U,"[4, 10]",1.0,8.0,0.22129201889038086,1.824152946472168,0.516715353922983,11.0,118.0,0.0
B,L,"[4, 9]",1.0,9.0,0.196929931640625,1.8216378688812256,0.5216089629313276,11.0,119.0,0.0
R,U,"[3, 9]",1.0,10.0,0.2256309986114502,1.589709997177124,0.26167985033748226,11.0,120.0,0.0
,,"(6, 6)",,,,,,,,
R,U,"[5, 6]",1.0,1.0,0.3693242073059082,3.134269952774048,0.6284715607932216,12.0,121.0,0.0
Y,R,"[5, 7]",1.0,2.0,0.22289013862609863,1.5848119258880615,0.26420165727868566,12.0,122.0,0.0
Y,R,"[5, 8]",1.0,3.0,0.27381396293640137,1.9248499870300293,0.5386470664377783,12.0,123.0,0.0
G,D,"[6, 8]",1.0,4.0,0.2515687942504883,1.9139540195465088,0.5693795301213505,12.0,124.0,0.0
Y,R,"[6, 9]",1.0,5.0,0.20303606986999512,1.7481741905212402,0.45106280840135016,12.0,125.0,0.0
Y,R,"[6, 10]",1.0,6.0,0.25751495361328125,2.060800075531006,0.6948637889446185,12.0,126.0,0.0
R,U,"[5, 10]",1.0,7.0,0.26003384590148926,2.0440101623535156,0.6888574364551763,12.0,127.0,0.0
R,U,"[4, 10]",1.0,8.0,0.2729799747467041,1.9883079528808594,0.6107518792790325,12.0,128.0,0.0
B,L,"[4, 9]",1.0,9.0,0.2605898380279541,2.099573850631714,0.7434836114645176,12.0,129.0,0.0
R,U,"[3, 9]",1.0,10.0,0.2416980266571045,1.6709890365600586,0.3315600966348708,12.0,130.0,0.0
,,"(6, 6)",,,,,,,,
R,U,"[5, 6]",1.0,1.0,0.5089190006256104,10.637862920761108,0.6858533021155357,13.0,131.0,0.0
Y,R,"[5, 7]",1.0,2.0,0.2764449119567871,1.6540639400482178,0.2736750115738828,13.0,132.0,0.0
Y,R,"[5, 8]",1.0,3.0,0.29951000213623047,2.104241132736206,0.7110689613462633,13.0,133.0,0.0
G,D,"[6, 8]",1.0,4.0,0.2935760021209717,2.006287097930908,0.6172924489823854,13.0,134.0,0.0
Y,R,"[6, 9]",1.0,5.0,0.22599315643310547,1.62394118309021,0.291484271452025,13.0,135.0,0.0
Y,R,"[6, 10]",1.0,6.0,0.2856900691986084,2.100486993789673,0.7248661358346632,13.0,136.0,0.0
R,U,"[5, 10]",1.0,7.0,0.22945594787597656,1.946774959564209,0.6212475593702366,13.0,137.0,0.0
R,U,"[4, 10]",1.0,8.0,0.22749710083007812,1.735893964767456,0.40801861089551267,13.0,138.0,0.0
B,L,"[4, 9]",1.0,9.0,0.23845601081848145,2.041472911834717,0.6825388225425436,13.0,139.0,0.0
R,U,"[3, 9]",1.0,10.0,0.2862851619720459,2.065401077270508,0.6813163193501275,13.0,140.0,0.0
,,"(6, 6)",,,,,,,,
R,U,"[5, 6]",1.0,1.0,0.618278980255127,3.29362416267395,0.3419410098237658,14.0,141.0,0.0
Y,R,"[5, 7]",1.0,2.0,0.2554631233215332,1.8846960067749023,0.5264564779354513,14.0,142.0,0.0
Y,R,"[5, 8]",1.0,3.0,0.310352087020874,1.7618720531463623,0.35517287844902584,14.0,143.0,0.0
G,D,"[6, 8]",1.0,4.0,0.30043792724609375,2.12090802192688,0.7257393497762719,14.0,144.0,0.0
Y,R,"[6, 9]",1.0,5.0,0.22912001609802246,1.6669468879699707,0.34317438616187984,14.0,145.0,0.0
Y,R,"[6, 10]",1.0,6.0,0.2293109893798828,1.7514889240264893,0.427940422047415,14.0,146.0,0.0
R,U,"[5, 10]",1.0,7.0,0.32142186164855957,1.8402299880981445,0.4348287881546425,14.0,147.0,0.0
R,U,"[4, 10]",1.0,8.0,0.21364808082580566,1.7141139507293701,0.3990418116878772,14.0,148.0,0.0
Y,R,"[4, 11]",0.0,8.0,0.2818889617919922,1.7829251289367676,0.39855250562209066,14.0,149.0,0.0
R,U,"[3, 11]",0.0,8.0,0.23176288604736328,1.6920130252838135,0.3573864045124478,14.0,150.0,0.0
,,"(6, 6)",,,,,,,,
R,U,"[5, 6]",1.0,1.0,0.41231608390808105,3.4829788208007812,0.45684025345700285,15.0,151.0,0.0
Y,R,"[5, 7]",1.0,2.0,0.27010202407836914,2.0469069480895996,0.686821862796726,15.0,152.0,0.0
Y,R,"[5, 8]",1.0,3.0,0.2594459056854248,1.9113600254058838,0.5484644346143615,15.0,153.0,0.0
G,D,"[6, 8]",1.0,4.0,0.24157309532165527,1.7620630264282227,0.4106985169365151,15.0,154.0,0.0
Y,R,"[6, 9]",1.0,5.0,0.2322559356689453,1.8108439445495605,0.4882784126984326,15.0,155.0,0.0
Y,R,"[6, 10]",1.0,6.0,0.23124194145202637,1.59865403175354,0.27025966522556566,15.0,156.0,0.0
R,U,"[5, 10]",1.0,7.0,0.2769479751586914,1.8321659564971924,0.45233796095141765,15.0,157.0,0.0
R,U,"[4, 10]",1.0,8.0,0.3169589042663574,1.924584150314331,0.5101372858625495,15.0,158.0,0.0
B,L,"[4, 9]",1.0,9.0,0.22117400169372559,2.0223491191864014,0.7156446109212757,15.0,159.0,0.0
R,U,"[3, 9]",1.0,10.0,0.20749807357788086,1.8669579029083252,0.5495559642606576,15.0,160.0,0.0
,,"(6, 6)",,,,,,,,
R,U,"[5, 6]",1.0,1.0,0.4081270694732666,3.399280071258545,0.6820477818326711,16.0,161.0,0.0
Y,R,"[5, 7]",1.0,2.0,0.2394258975982666,1.8084230422973633,0.45727518959017205,16.0,162.0,0.0
Y,R,"[5, 8]",1.0,3.0,0.28264498710632324,1.908829927444458,0.5327190300414282,16.0,163.0,0.0
G,D,"[6, 8]",1.0,4.0,0.2359311580657959,1.9482910633087158,0.6143714773111041,16.0,164.0,0.0
Y,R,"[6, 9]",1.0,5.0,0.23411893844604492,1.8721888065338135,0.5367364692533538,16.0,165.0,0.0
Y,R,"[6, 10]",1.0,6.0,0.2511920928955078,1.7434508800506592,0.3969927813544068,16.0,166.0,0.0
R,U,"[5, 10]",1.0,7.0,0.2722940444946289,1.9227118492126465,0.5361956383576394,16.0,167.0,0.0
R,U,"[4, 10]",1.0,8.0,0.21780800819396973,1.8275439739227295,0.5138705501423081,16.0,168.0,0.0
B,L,"[4, 9]",1.0,9.0,0.1995251178741455,1.6276111602783203,0.324966607458895,16.0,169.0,0.0
R,U,"[3, 9]",1.0,10.0,0.32897400856018066,1.739022970199585,0.3140146487166268,16.0,170.0,0.0
,,"(6, 6)",,,,,,,,
R,U,"[5, 6]",1.0,1.0,0.4199199676513672,4.290643930435181,0.7042350445808433,17.0,171.0,0.0
Y,R,"[5, 7]",1.0,2.0,0.2611238956451416,1.6616919040679932,0.2998303161311392,17.0,172.0,0.0
Y,R,"[5, 8]",1.0,3.0,0.22216582298278809,1.8141460418701172,0.48033568853192965,17.0,173.0,0.0
G,D,"[6, 8]",1.0,4.0,0.21856403350830078,1.6796479225158691,0.35978457032867944,17.0,174.0,0.0
Y,R,"[6, 9]",1.0,5.0,0.23896193504333496,1.9802169799804688,0.6400204892916179,17.0,175.0,0.0
Y,R,"[6, 10]",1.0,6.0,0.33771300315856934,1.7479379177093506,0.30507545260364977,17.0,176.0,0.0
R,U,"[5, 10]",1.0,7.0,0.30388712882995605,1.8319339752197266,0.4202004235180973,17.0,177.0,0.0
R,U,"[4, 10]",1.0,8.0,0.27022504806518555,1.9338080883026123,0.5705911480953044,17.0,178.0,0.0
B,L,"[4, 9]",1.0,9.0,0.25584912300109863,1.9832301139831543,0.6204287868529172,17.0,179.0,0.0
R,U,"[3, 9]",1.0,10.0,0.27158403396606445,2.0142080783843994,0.6347416398632497,17.0,180.0,0.0
,,"(6, 6)",,,,,,,,
R,U,"[5, 6]",1.0,1.0,0.37235498428344727,4.067753076553345,0.6525362618529928,18.0,181.0,0.0
Y,R,"[5, 7]",1.0,2.0,0.28897714614868164,1.9035251140594482,0.5062236969218046,18.0,182.0,0.0
Y,R,"[5, 8]",1.0,3.0,0.277817964553833,1.6732561588287354,0.29628862724253296,18.0,183.0,0.0
G,D,"[6, 8]",1.0,4.0,0.27858805656433105,1.855098009109497,0.4680319312767852,18.0,184.0,0.0
Y,R,"[6, 9]",1.0,5.0,0.22780680656433105,1.813870906829834,0.48185077034252577,18.0,185.0,0.0
Y,R,"[6, 10]",1.0,6.0,0.2358849048614502,1.819957971572876,0.48517873345763385,18.0,186.0,0.0
R,U,"[5, 10]",1.0,7.0,0.23458290100097656,1.9347178936004639,0.6031623885923509,18.0,187.0,0.0
R,U,"[4, 10]",1.0,8.0,0.2283329963684082,1.7869269847869873,0.4569553875762559,18.0,188.0,0.0
B,L,"[4, 9]",1.0,9.0,0.20989680290222168,1.9134891033172607,0.6035766780275591,18.0,189.0,0.0
R,U,"[3, 9]",1.0,10.0,0.2279660701751709,1.800671100616455,0.470894516209942,18.0,190.0,0.0
,,"(6, 6)",,,,,,,,
R,U,"[5, 6]",1.0,1.0,0.4096410274505615,3.4014430046081543,0.6890151267512776,19.0,191.0,0.0
Y,R,"[5, 7]",1.0,2.0,0.23952102661132812,1.7663710117340088,0.4223018804813311,19.0,192.0,0.0
Y,R,"[5, 8]",1.0,3.0,0.2519679069519043,2.0064690113067627,0.6618048583291117,19.0,193.0,0.0
G,D,"[6, 8]",-1.0,3.0,0.0207521915435791,5.699826002120972,0.5617979466742128,19.0,194.0,0.0
Y,R,"[6, 9]",1.0,4.0,0.2929980754852295,1.642798900604248,0.25494285225294433,19.0,195.0,0.0
Y,R,"[6, 10]",1.0,5.0,0.2420330047607422,2.0924859046936035,0.7469225334162433,19.0,196.0,0.0
R,U,"[5, 10]",1.0,6.0,0.23120903968811035,2.0790579319000244,0.7426907314861853,19.0,197.0,0.0
R,U,"[4, 10]",1.0,7.0,0.23464512825012207,1.5940189361572266,0.27066599568826644,19.0,198.0,0.0
B,L,"[4, 9]",1.0,8.0,0.2506108283996582,2.045588970184326,0.6990631852314364,19.0,199.0,0.0
R,U,"[3, 9]",1.0,9.0,0.40665292739868164,2.1037259101867676,0.5862747278162643,19.0,200.0,0.0
,,"(6, 6)",,,,,,,,
R,U,"[5, 6]",1.0,1.0,0.6270778179168701,3.6490020751953125,0.25234356798930685,20.0,201.0,0.0
Y,R,"[5, 7]",1.0,2.0,0.22824907302856445,2.021073818206787,0.6895714337097598,20.0,202.0,0.0
Y,R,"[5, 8]",1.0,3.0,0.22531795501708984,2.0539469718933105,0.7268961290602098,20.0,203.0,0.0
G,D,"[6, 8]",1.0,4.0,0.2082529067993164,1.754770040512085,0.4485922611389882,20.0,204.0,0.0
Y,R,"[6, 9]",1.0,5.0,0.2328808307647705,1.993468999862671,0.6583737290559162,20.0,205.0,0.0
Y,R,"[6, 10]",1.0,6.0,0.19063186645507812,1.6722700595855713,0.3811945307329069,20.0,206.0,0.0
R,U,"[5, 10]",1.0,7.0,0.22722196578979492,1.9118080139160156,0.5761447746605297,20.0,207.0,0.0
R,U,"[4, 10]",1.0,8.0,0.24641895294189453,1.592548131942749,0.25247920304163063,20.0,208.0,0.0
B,L,"[4, 9]",1.0,9.0,0.32069897651672363,1.7232789993286133,0.3089363923264284,20.0,209.0,0.0
R,U,"[3, 9]",1.0,10.0,0.2920660972595215,1.8290448188781738,0.4378798524626328,20.0,210.0,0.0
,,"(6, 6)",,,,,,,,
R,U,"[5, 6]",1.0,1.0,0.4765489101409912,3.361751079559326,0.43295698189345466,21.0,211.0,0.0
Y,R,"[5, 7]",1.0,2.0,0.37491893768310547,2.055824041366577,0.5720191030298565,21.0,212.0,0.0
Y,R,"[5, 8]",1.0,3.0,0.2529940605163574,1.7442409992218018,0.3997164703249992,21.0,213.0,0.0
G,D,"[6, 8]",1.0,4.0,0.39702701568603516,1.7915329933166504,0.29143776842486246,21.0,214.0,0.0
Y,R,"[6, 9]",1.0,5.0,0.2747459411621094,1.9344968795776367,0.5589096427828963,21.0,215.0,0.0
Y,R,"[6, 10]",1.0,6.0,0.26146697998046875,1.8052217960357666,0.44767521283132605,21.0,216.0,0.0
R,U,"[5, 10]",1.0,7.0,0.2358720302581787,1.8685009479522705,0.5328973531254217,21.0,217.0,0.0
R,U,"[4, 10]",1.0,8.0,0.22929692268371582,1.645961046218872,0.3123595725677038,21.0,218.0,0.0
B,L,"[4, 9]",1.0,9.0,0.30202293395996094,1.6402249336242676,0.25274497531219997,21.0,219.0,0.0
R,U,"[3, 9]",1.0,10.0,0.26903510093688965,1.8324201107025146,0.4682174641630215,21.0,220.0,0.0
,,"(6, 6)",,,,,,,,
R,U,"[5, 6]",1.0,1.0,0.30550193786621094,3.1845622062683105,0.5860878348592851,22.0,221.0,0.0
Y,R,"[5, 7]",1.0,2.0,0.256580114364624,2.0041120052337646,0.640229752869512,22.0,222.0,0.0
Y,R,"[5, 8]",1.0,3.0,0.19990992546081543,1.8600749969482422,0.567014100337295,22.0,223.0,0.0
G,D,"[6, 8]",1.0,4.0,0.18404722213745117,1.5329408645629883,0.2504019523366318,22.0,224.0,0.0
Y,R,"[6, 9]",1.0,5.0,0.29118800163269043,2.0923149585723877,0.7086339654222014,22.0,225.0,0.0
Y,R,"[6, 10]",1.0,6.0,0.18192100524902344,1.8416111469268799,0.5671582084359248,22.0,226.0,0.0
R,U,"[5, 10]",1.0,7.0,0.2765340805053711,1.8349599838256836,0.4521742105238002,22.0,227.0,0.0
R,U,"[4, 10]",1.0,8.0,0.24644708633422852,1.713446855545044,0.3658191632232163,22.0,228.0,0.0
B,L,"[4, 9]",1.0,9.0,0.25565099716186523,2.099472999572754,0.7317337604754448,22.0,229.0,0.0
R,U,"[3, 9]",1.0,10.0,0.2156989574432373,1.8027100563049316,0.48470421419236825,22.0,230.0,0.0
,,"(6, 6)",,,,,,,,
R,U,"[5, 6]",1.0,1.0,0.5542161464691162,2.9658567905426025,0.3174083549142579,23.0,231.0,0.0
Y,R,"[5, 7]",1.0,2.0,0.2622699737548828,1.7067229747772217,0.3407803502547534,23.0,232.0,0.0
Y,R,"[5, 8]",1.0,3.0,0.23430109024047852,2.014984130859375,0.6888313220048485,23.0,233.0,0.0
G,D,"[6, 8]",1.0,4.0,0.24665403366088867,1.8253841400146484,0.4810249309893606,23.0,234.0,0.0
Y,R,"[6, 9]",1.0,5.0,0.22953104972839355,2.0577080249786377,0.7218413859298274,23.0,235.0,0.0
Y,R,"[6, 10]",1.0,6.0,0.2194349765777588,1.702911138534546,0.39178101681856053,23.0,236.0,0.0
R,U,"[5, 10]",1.0,7.0,0.2305309772491455,2.055535078048706,0.730399720900178,23.0,237.0,0.0
R,U,"[4, 10]",1.0,8.0,0.2920389175415039,2.060365915298462,0.657480190729294,23.0,238.0,0.0
B,L,"[4, 9]",1.0,9.0,0.25899815559387207,1.9489521980285645,0.5899017739406522,23.0,239.0,0.0
R,U,"[3, 9]",1.0,10.0,0.26641297340393066,1.9176509380340576,0.557431819980013,23.0,240.0,0.0
,,"(6, 6)",,,,,,,,
R,U,"[5, 6]",1.0,1.0,0.47382283210754395,3.4688808917999268,0.26007140819460417,24.0,241.0,0.0
Y,R,"[5, 7]",1.0,2.0,0.3407268524169922,1.8671369552612305,0.42716014011599307,24.0,242.0,0.0
Y,R,"[5, 8]",1.0,3.0,0.2494640350341797,2.052485227584839,0.7127123170828895,24.0,243.0,0.0
G,D,"[6, 8]",1.0,4.0,0.23673796653747559,1.9824340343475342,0.6453578780777978,24.0,244.0,0.0
Y,R,"[6, 9]",1.0,5.0,0.25329113006591797,1.9896290302276611,0.6515699761538919,24.0,245.0,0.0
Y,R,"[6, 10]",1.0,6.0,0.18533992767333984,1.8260688781738281,0.5443932222241183,24.0,246.0,0.0
R,U,"[5, 10]",1.0,7.0,0.2015399932861328,1.8229689598083496,0.5342250936888813,24.0,247.0,0.0
R,U,"[4, 10]",1.0,8.0,0.22245311737060547,1.8939900398254395,0.5613461296310265,24.0,248.0,0.0
B,L,"[4, 9]",1.0,9.0,0.2802259922027588,1.6386361122131348,0.2669010835233939,24.0,249.0,0.0
R,U,"[3, 9]",1.0,10.0,0.2400650978088379,1.825829029083252,0.4758890876846953,24.0,250.0,0.0
,,"(6, 6)",,,,,,,,
R,U,"[5, 6]",1.0,1.0,0.45119309425354004,3.4470608234405518,0.4064188572055547,25.0,251.0,0.0
Y,R,"[5, 7]",1.0,2.0,0.2804529666900635,1.9396319389343262,0.5624871590474085,25.0,252.0,0.0
Y,R,"[5, 8]",1.0,3.0,0.26042985916137695,2.00144100189209,0.6306870522875375,25.0,253.0,0.0
G,D,"[6, 8]",1.0,4.0,0.238692045211792,1.8127939701080322,0.46025201211000355,25.0,254.0,0.0
Y,R,"[6, 9]",1.0,5.0,0.4718139171600342,2.056241989135742,0.49988901479826514,25.0,255.0,0.0
Y,R,"[6, 10]",1.0,6.0,0.320127010345459,1.8000478744506836,0.38337509507153744,25.0,256.0,0.0
R,U,"[5, 10]",1.0,7.0,0.378187894821167,2.0855588912963867,0.6020244180921307,25.0,257.0,0.0
R,U,"[4, 10]",1.0,8.0,0.2519099712371826,1.7174978256225586,0.369722634116739,25.0,258.0,0.0
B,L,"[4, 9]",1.0,9.0,0.4942748546600342,1.9329500198364258,0.3360748938959522,25.0,259.0,0.0
R,U,"[3, 9]",1.0,10.0,0.27921605110168457,1.714601993560791,0.3341195329805756,25.0,260.0,0.0
,,"(6, 6)",,,,,,,,
R,U,"[5, 6]",1.0,1.0,0.42217397689819336,3.4187920093536377,0.36957301960181255,26.0,261.0,0.0
Y,R,"[5, 7]",1.0,2.0,0.23911094665527344,1.8462729454040527,0.4990001779803384,26.0,262.0,0.0
Y,R,"[5, 8]",1.0,3.0,0.21193504333496094,1.7227368354797363,0.4053176637963274,26.0,263.0,0.0
G,D,"[6, 8]",1.0,4.0,0.2294769287109375,1.8370280265808105,0.5088741428382502,26.0,264.0,0.0
Y,R,"[6, 9]",1.0,5.0,0.20804786682128906,1.8167588710784912,0.5089397944416953,26.0,265.0,0.0
Y,R,"[6, 10]",1.0,6.0,0.22144794464111328,1.7189249992370605,0.4114085015289444,26.0,266.0,0.0
R,U,"[5, 10]",1.0,7.0,0.21184492111206055,1.6447482109069824,0.3395237837275296,26.0,267.0,0.0
R,U,"[4, 10]",1.0,8.0,0.2588388919830322,1.7157530784606934,0.355259691247134,26.0,268.0,0.0
B,L,"[4, 9]",1.0,9.0,0.23054194450378418,1.9153480529785156,0.5865631953360568,26.0,269.0,0.0
R,U,"[3, 9]",1.0,10.0,0.2532968521118164,1.672882080078125,0.3267558941369443,26.0,270.0,0.0
,,"(6, 6)",,,,,,,,
R,U,"[5, 6]",1.0,1.0,0.45705413818359375,2.7548611164093018,0.28196805836426264,27.0,271.0,0.0
Y,R,"[5, 7]",1.0,2.0,0.2584221363067627,2.097191095352173,0.7287585831782794,27.0,272.0,0.0
Y,R,"[5, 8]",1.0,3.0,0.21624088287353516,1.9858901500701904,0.6811517824819229,27.0,273.0,0.0
G,D,"[6, 8]",1.0,4.0,0.21033596992492676,1.9204249382019043,0.6018149365789226,27.0,274.0,0.0
Y,R,"[6, 9]",1.0,5.0,0.2560739517211914,1.944375991821289,0.5794325755779014,27.0,275.0,0.0
Y,R,"[6, 10]",1.0,6.0,0.24402689933776855,1.891279935836792,0.5375200265793632,27.0,276.0,0.0
R,U,"[5, 10]",1.0,7.0,0.24021315574645996,2.0483360290527344,0.7022923286773987,27.0,277.0,0.0
R,U,"[4, 10]",1.0,8.0,0.24060916900634766,1.9126479625701904,0.5652212685862963,27.0,278.0,0.0
B,L,"[4, 9]",1.0,9.0,0.23297715187072754,1.7911198139190674,0.456491621251625,27.0,279.0,0.0
R,U,"[3, 9]",1.0,10.0,0.21459484100341797,1.5870471000671387,0.27703619686902453,27.0,280.0,0.0
,,"(6, 6)",,,,,,,,
R,U,"[5, 6]",1.0,1.0,0.2707939147949219,3.373807907104492,0.533899648659699,28.0,281.0,0.0
Y,R,"[5, 7]",1.0,2.0,0.20457792282104492,1.7503478527069092,0.45099906022474506,28.0,282.0,0.0
Y,R,"[5, 8]",1.0,3.0,0.22646403312683105,1.9402990341186523,0.6079773136525224,28.0,283.0,0.0
G,D,"[6, 8]",1.0,4.0,0.3109731674194336,2.105937957763672,0.6970392645078445,28.0,284.0,0.0
Y,R,"[6, 9]",1.0,5.0,0.26354408264160156,2.065300941467285,0.6956266090486505,28.0,285.0,0.0
Y,R,"[6, 10]",1.0,6.0,0.2667429447174072,2.0257959365844727,0.6547946318122375,28.0,286.0,0.0
R,U,"[5, 10]",1.0,7.0,0.30933094024658203,2.066200017929077,0.6544930385301041,28.0,287.0,0.0
R,U,"[4, 10]",1.0,8.0,0.2569119930267334,1.7878928184509277,0.4259108913615061,28.0,288.0,0.0
B,L,"[4, 9]",1.0,9.0,0.21228814125061035,2.0430588722229004,0.7354322999699845,28.0,289.0,0.0
R,U,"[3, 9]",1.0,10.0,0.2173759937286377,1.9632349014282227,0.6487915517783287,28.0,290.0,0.0
,,"(6, 6)",,,,,,,,
R,U,"[5, 6]",1.0,1.0,0.23497509956359863,2.6320838928222656,0.3644220523982521,29.0,291.0,0.0
Y,R,"[5, 7]",1.0,2.0,0.22859501838684082,1.8645567893981934,0.5288759291059432,29.0,292.0,0.0
Y,R,"[5, 8]",1.0,3.0,0.22472095489501953,1.831800937652588,0.5106684923014666,29.0,293.0,0.0
G,D,"[6, 8]",1.0,4.0,0.21132612228393555,1.6620171070098877,0.35611147199948356,29.0,294.0,0.0
Y,R,"[6, 9]",1.0,5.0,0.24875807762145996,1.6507740020751953,0.30703593381929717,29.0,295.0,0.0
Y,R,"[6, 10]",1.0,6.0,0.2519669532775879,1.6533548831939697,0.31040193691674023,29.0,296.0,0.0
R,U,"[5, 10]",1.0,7.0,0.2437889575958252,2.01003098487854,0.6701536061231695,29.0,297.0,0.0
R,U,"[4, 10]",1.0,8.0,0.21298503875732422,1.6085290908813477,0.2956241711129957,29.0,298.0,0.0
B,L,"[4, 9]",1.0,9.0,0.23337912559509277,1.5778498649597168,0.25706440022082566,29.0,299.0,0.0
R,U,"[3, 9]",1.0,10.0,0.2929549217224121,1.8510971069335938,0.458156877215844,29.0,300.0,0.0
,,"(6, 6)",,,,,,,,
R,U,"[5, 6]",-999.0,0.0,0.40419888496398926,3.0046310424804688,0.39599381196007755,30.0,301.0,-4.0
Y,R,"[5, 7]",-999.0,0.0,0.3813319206237793,2.067901849746704,0.5804502712932218,30.0,302.0,-4.0
Y,R,"[5, 8]",-999.0,0.0,0.2597379684448242,1.8027808666229248,0.43343866652652324,30.0,303.0,-4.0
G,D,"[6, 8]",-999.0,0.0,0.2889671325683594,1.6584389209747314,0.27544787578494573,30.0,304.0,-4.0
Y,R,"[6, 9]",-999.0,0.0,0.2750530242919922,1.6259160041809082,0.2681130868667445,30.0,305.0,-4.0
Y,R,"[6, 10]",-999.0,0.0,0.23856592178344727,1.9262309074401855,0.5940206692278998,30.0,306.0,-4.0
R,U,"[5, 10]",-999.0,0.0,0.2580571174621582,1.64044189453125,0.3016252145968415,30.0,307.0,-4.0
R,U,"[4, 10]",-999.0,0.0,0.2112560272216797,1.6905498504638672,0.37538890680052167,30.0,308.0,-4.0
R,U,"[3, 10]",-999.0,0.0,0.5688691139221191,1.9560089111328125,0.2982386887401283,30.0,309.0,-4.0
R,U,"[2, 10]",-999.0,0.0,0.6192178726196289,2.4275050163269043,0.7087320782241304,30.0,310.0,1.0
,,"(6, 6)",,,,,,,,
R,U,"[5, 6]",-999.0,0.0,0.43108510971069336,4.498862981796265,0.7077166413328071,31.0,311.0,-4.0
Y,R,"[5, 7]",-999.0,0.0,0.22084283828735352,1.9574470520019531,0.6485419965431625,31.0,312.0,-4.0
Y,R,"[5, 8]",-999.0,0.0,0.1952810287475586,2.017362117767334,0.7155213662405356,31.0,313.0,-4.0
R,U,"[4, 8]",-999.0,0.0,0.6198060512542725,2.1979451179504395,0.48088736094911416,31.0,314.0,-4.0
R,U,"[3, 8]",-999.0,0.0,0.776688814163208,2.1433210372924805,0.2578521913449662,31.0,315.0,1.0
,,"(6, 6)",,,,,,,,
B,L,"[3, 8]",-999.0,0.0,0.8758788108825684,6.656989097595215,0.46511560736770247,32.0,316.0,-5.0
B,L,"[3, 8]",-999.0,0.0,0.5381510257720947,1.9165220260620117,0.28153473298034715,32.0,317.0,-5.0
R,U,"[3, 8]",-999.0,0.0,0.5732519626617432,2.212479829788208,0.5439050831846628,32.0,318.0,-5.0
R,U,"[3, 8]",-999.0,0.0,0.4505491256713867,2.262784957885742,0.7232214493206782,32.0,319.0,-5.0
R,U,"[2, 8]",-2.0,0.0,1.2828857898712158,2.965222120285034,0.6553753520404451,32.0,320.0,1.0
,,"(6, 6)",,,,,,,,
R,U,"[5, 6]",1.0,1.0,0.4223470687866211,4.2617480754852295,0.7178010736713692,33.0,321.0,0.0
Y,R,"[5, 7]",1.0,2.0,0.20170092582702637,1.8002839088439941,0.501062746058133,33.0,322.0,0.0
Y,R,"[5, 8]",1.0,3.0,0.19572210311889648,1.634795904159546,0.33604867055490983,33.0,323.0,0.0
G,D,"[6, 8]",1.0,4.0,0.27356696128845215,1.7424559593200684,0.3618338216143782,33.0,324.0,0.0
Y,R,"[6, 9]",1.0,5.0,0.2223069667816162,1.6011090278625488,0.2795278548450545,33.0,325.0,0.0
Y,R,"[6, 10]",1.0,6.0,0.2195580005645752,1.803002119064331,0.48256884062750666,33.0,326.0,0.0
R,U,"[5, 10]",1.0,7.0,0.23095297813415527,1.6514852046966553,0.31773472977751793,33.0,327.0,0.0
R,U,"[4, 10]",1.0,8.0,0.21565890312194824,1.5806810855865479,0.26496288011756836,33.0,328.0,0.0
B,L,"[4, 9]",1.0,9.0,0.23346996307373047,1.944978952407837,0.6097962842716191,33.0,329.0,0.0
R,U,"[3, 9]",1.0,10.0,0.22426700592041016,1.9022350311279297,0.5787056979966323,33.0,330.0,0.0
,,"(6, 6)",,,,,,,,
R,U,"[5, 6]",1.0,1.0,0.39014101028442383,2.931828022003174,0.4774456009719504,34.0,331.0,0.0
Y,R,"[5, 7]",1.0,2.0,0.22801899909973145,1.5835959911346436,0.26138140682080796,34.0,332.0,0.0
Y,R,"[5, 8]",1.0,3.0,0.2366499900817871,1.7731778621673584,0.450939889755017,34.0,333.0,0.0
G,D,"[6, 8]",1.0,4.0,0.2193770408630371,1.9365489482879639,0.6205122017248552,34.0,334.0,0.0
Y,R,"[6, 9]",1.0,5.0,0.24605393409729004,1.684359073638916,0.3388050677935308,34.0,335.0,0.0
Y,R,"[6, 10]",1.0,6.0,0.2419440746307373,1.7754180431365967,0.4308377594147511,34.0,336.0,0.0
R,U,"[5, 10]",1.0,7.0,0.2306520938873291,1.7144508361816406,0.3787534561058719,34.0,337.0,0.0
R,U,"[4, 10]",1.0,8.0,0.23185300827026367,1.7037160396575928,0.3825354890473894,34.0,338.0,0.0
B,L,"[4, 9]",1.0,9.0,0.20430397987365723,1.6754491329193115,0.37474772543500745,34.0,339.0,0.0
R,U,"[3, 9]",1.0,10.0,0.20562386512756348,1.58052396774292,0.2721453285501659,34.0,340.0,0.0
,,"(6, 6)",,,,,,,,
R,U,"[5, 6]",-999.0,0.0,0.38744616508483887,3.8646488189697266,0.6197495677052046,35.0,341.0,-4.0
Y,R,"[5, 7]",-999.0,0.0,0.3783891201019287,1.999485969543457,0.5194805639878216,35.0,342.0,-4.0
Y,R,"[5, 8]",-999.0,0.0,0.3516719341278076,1.7269279956817627,0.27995288467324175,35.0,343.0,-4.0
R,U,"[4, 8]",-999.0,0.0,0.46746397018432617,2.096566915512085,0.5264628025828282,35.0,344.0,-4.0
R,U,"[3, 8]",-999.0,0.0,0.6918890476226807,2.254117965698242,0.4639050613600715,35.0,345.0,1.0
,,"(6, 6)",,,,,,,,
R,U,"[5, 6]",1.0,1.0,0.4005410671234131,4.287106037139893,0.7342596817698288,36.0,346.0,0.0
Y,R,"[5, 7]",1.0,2.0,0.2064530849456787,2.002005100250244,0.686393421487127,36.0,347.0,0.0
Y,R,"[5, 8]",1.0,3.0,0.23151612281799316,2.0479910373687744,0.7178062645423217,36.0,348.0,0.0
G,D,"[6, 8]",1.0,4.0,0.20365118980407715,1.73482084274292,0.4361487555739749,36.0,349.0,0.0
Y,R,"[6, 9]",1.0,5.0,0.2193920612335205,2.0536019802093506,0.739504456677627,36.0,350.0,0.0
,,"(6, 6)",,,,,,,,
G,D,"[6, 9]",-2.0,0.0,1.0650770664215088,4.466603994369507,0.5730850579857014,37.0,351.0,-5.0
G,D,"[6, 9]",-999.0,0.0,0.38182783126831055,2.157153844833374,0.680174217374344,37.0,352.0,-5.0
G,D,"[6, 9]",-999.0,0.0,0.4422450065612793,2.2436540126800537,0.6905425298162761,37.0,353.0,-5.0
B,L,"[6, 9]",-999.0,0.0,0.4509451389312744,1.8399310111999512,0.2976172896542973,37.0,354.0,-5.0
B,L,"[6, 9]",-999.0,0.0,0.4481208324432373,2.214660882949829,0.661962309571714,37.0,355.0,-5.0
R,U,"[6, 9]",-999.0,0.0,0.5654888153076172,1.9906389713287354,0.31978114759946946,37.0,356.0,-5.0
R,U,"[6, 9]",-999.0,0.0,0.3495490550994873,1.9238569736480713,0.4768045052925667,37.0,357.0,-5.0
B,L,"[6, 9]",-999.0,0.0,0.7106239795684814,2.3033339977264404,0.49693031992694003,37.0,358.0,-5.0
B,L,"[6, 9]",-999.0,0.0,0.37916016578674316,2.010556936264038,0.5240833979432918,37.0,359.0,-5.0
R,U,"[5, 9]",-999.0,0.0,0.6850800514221191,2.369019031524658,0.593217109291876,37.0,360.0,1.0
,,"(6, 6)",,,,,,,,
R,U,"[5, 6]",1.0,1.0,0.34551501274108887,3.69354510307312,0.636725215426813,38.0,361.0,0.0
Y,R,"[5, 7]",1.0,2.0,0.23030805587768555,1.9179959297180176,0.5880694150559753,38.0,362.0,0.0
Y,R,"[5, 8]",1.0,3.0,0.19436001777648926,1.5586929321289062,0.26394867106395964,38.0,363.0,0.0
G,D,"[6, 8]",1.0,4.0,0.33037495613098145,2.0606770515441895,0.6243237676497368,38.0,364.0,0.0
Y,R,"[6, 9]",1.0,5.0,0.1834578514099121,1.8104281425476074,0.5348896190839247,38.0,365.0,0.0
Y,R,"[6, 10]",1.0,6.0,0.22089004516601562,1.6068661212921143,0.27532373566145274,38.0,366.0,0.0
R,U,"[5, 10]",1.0,7.0,0.4559938907623291,1.9185450077056885,0.3604604541701503,38.0,367.0,0.0
R,U,"[4, 10]",1.0,8.0,0.2263021469116211,1.9235649108886719,0.6006337288472379,38.0,368.0,0.0
B,L,"[4, 9]",1.0,9.0,0.18798184394836426,1.8417799472808838,0.5591731153351014,38.0,369.0,0.0
R,U,"[3, 9]",1.0,10.0,0.17684102058410645,1.6484510898590088,0.3744098096088625,38.0,370.0,0.0
,,"(6, 6)",,,,,,,,
R,U,"[5, 6]",1.0,1.0,0.5265748500823975,3.5986812114715576,0.6896310049240755,39.0,371.0,0.0
Y,R,"[5, 7]",1.0,2.0,0.18040108680725098,1.7066080570220947,0.4297704957294781,39.0,372.0,0.0
Y,R,"[5, 8]",1.0,3.0,0.23627400398254395,1.9835951328277588,0.6465207102048175,39.0,373.0,0.0
G,D,"[6, 8]",1.0,4.0,0.272083044052124,1.9357819557189941,0.5491289543458955,39.0,374.0,0.0
Y,R,"[6, 9]",1.0,5.0,0.19873905181884766,1.9370489120483398,0.636218252712659,39.0,375.0,0.0
Y,R,"[6, 10]",1.0,6.0,0.19506502151489258,1.6202287673950195,0.3234958295233287,39.0,376.0,0.0
R,U,"[5, 10]",1.0,7.0,0.29589200019836426,1.7312650680541992,0.3380136752146311,39.0,377.0,0.0
R,U,"[4, 10]",1.0,8.0,0.22601318359375,1.7124578952789307,0.3838177606098927,39.0,378.0,0.0
B,L,"[4, 9]",1.0,9.0,0.20394396781921387,1.578014850616455,0.2786604067755082,39.0,379.0,0.0
R,U,"[3, 9]",1.0,10.0,0.2715480327606201,1.633241891860962,0.2785895989894053,39.0,380.0,0.0
,,"(6, 6)",,,,,,,,
R,U,"[5, 6]",1.0,1.0,0.31182003021240234,2.9751479625701904,0.45370436112387325,40.0,381.0,0.0
Y,R,"[5, 7]",1.0,2.0,0.2182021141052246,1.929901123046875,0.6168260236544285,40.0,382.0,0.0
Y,R,"[5, 8]",1.0,3.0,0.1865689754486084,1.8353440761566162,0.5356090302671018,40.0,383.0,0.0
G,D,"[6, 8]",1.0,4.0,0.2234640121459961,1.841968059539795,0.5108601754253392,40.0,384.0,0.0
Y,R,"[6, 9]",1.0,5.0,0.22502613067626953,1.751697063446045,0.42950036735699815,40.0,385.0,0.0
Y,R,"[6, 10]",1.0,6.0,0.22151613235473633,1.7897868156433105,0.4692808594539593,40.0,386.0,0.0
R,U,"[5, 10]",1.0,7.0,0.25917601585388184,1.7559640407562256,0.3919273283935076,40.0,387.0,0.0
R,U,"[4, 10]",1.0,8.0,0.25015711784362793,2.0106329917907715,0.6691575222904327,40.0,388.0,0.0
B,L,"[4, 9]",1.0,9.0,0.19870519638061523,1.8837261199951172,0.5862443615126559,40.0,389.0,0.0
R,U,"[3, 9]",1.0,10.0,0.2723519802093506,1.7605931758880615,0.38059850509395937,40.0,390.0,0.0
,,"(6, 6)",,,,,,,,
R,U,"[5, 6]",1.0,1.0,0.35672807693481445,3.4183220863342285,0.34903638823995364,41.0,391.0,0.0
Y,R,"[5, 7]",1.0,2.0,0.23914885520935059,2.0100150108337402,0.6586824235390014,41.0,392.0,0.0
Y,R,"[5, 8]",1.0,3.0,0.21147799491882324,1.8310778141021729,0.5232963054600264,41.0,393.0,0.0
G,D,"[6, 8]",1.0,4.0,0.1901378631591797,1.9541809558868408,0.6606549550376756,41.0,394.0,0.0
Y,R,"[6, 9]",1.0,5.0,0.2020120620727539,1.9221851825714111,0.6330665904151914,41.0,395.0,0.0
Y,R,"[6, 10]",1.0,6.0,0.21796894073486328,1.6751220226287842,0.35822462701080676,41.0,396.0,0.0
R,U,"[5, 10]",1.0,7.0,0.24123001098632812,2.070772886276245,0.7290451372659861,41.0,397.0,0.0
R,U,"[4, 10]",1.0,8.0,0.19916009902954102,1.6407849788665771,0.32010797649709954,41.0,398.0,0.0
B,L,"[4, 9]",1.0,9.0,0.2696828842163086,1.9381680488586426,0.5747154676292601,41.0,399.0,0.0
R,U,"[3, 9]",1.0,10.0,0.19622802734375,2.033360004425049,0.7411167841651594,41.0,400.0,0.0
,,"(6, 6)",,,,,,,,
R,U,"[5, 6]",1.0,1.0,0.5097270011901855,3.4894049167633057,0.6477210864852214,42.0,401.0,0.0
Y,R,"[5, 7]",1.0,2.0,0.1881868839263916,1.6108760833740234,0.3254651323853724,42.0,402.0,0.0
Y,R,"[5, 8]",1.0,3.0,0.23726820945739746,1.7753560543060303,0.4508010660870384,42.0,403.0,0.0
G,D,"[6, 8]",1.0,4.0,0.18796896934509277,1.8115758895874023,0.5289607589508025,42.0,404.0,0.0
Y,R,"[6, 9]",1.0,5.0,0.19603204727172852,1.7896521091461182,0.5021561577703535,42.0,405.0,0.0
Y,R,"[6, 10]",1.0,6.0,0.1832420825958252,1.7292218208312988,0.4481352397778685,42.0,406.0,0.0
R,U,"[5, 10]",1.0,7.0,0.28496718406677246,1.892927885055542,0.5077359315683458,42.0,407.0,0.0
R,U,"[4, 10]",1.0,8.0,0.2214350700378418,1.943120002746582,0.6339873721425813,42.0,408.0,0.0
B,L,"[4, 9]",1.0,9.0,0.20747995376586914,2.0605220794677734,0.7445167096161738,42.0,409.0,0.0
R,U,"[3, 9]",1.0,10.0,0.21269011497497559,1.632072925567627,0.3270734514774012,42.0,410.0,0.0
,,"(6, 6)",,,,,,,,
R,U,"[5, 6]",-999.0,0.0,0.5497829914093018,4.971285820007324,0.6648251360064463,43.0,411.0,-4.0
Y,R,"[5, 7]",-999.0,0.0,0.3612711429595947,2.192905902862549,0.7243044340173109,43.0,412.0,-4.0
Y,R,"[5, 8]",-999.0,0.0,0.28098201751708984,1.726505994796753,0.3512939983526907,43.0,413.0,-4.0
R,U,"[4, 8]",-999.0,0.0,0.8038160800933838,2.2815661430358887,0.38284493107329026,43.0,414.0,-4.0
R,U,"[3, 8]",-2.0,0.0,1.3405768871307373,2.7324700355529785,0.34876587499443173,43.0,415.0,1.0
,,"(6, 6)",,,,,,,,
R,U,"[5, 6]",1.0,1.0,0.5499141216278076,3.838892936706543,0.6872094127809774,44.0,416.0,0.0
Y,R,"[5, 7]",1.0,2.0,0.19780802726745605,1.7237141132354736,0.42807809985992923,44.0,417.0,0.0
Y,R,"[5, 8]",1.0,3.0,0.23866701126098633,1.6713480949401855,0.34919458225049715,44.0,418.0,0.0
G,D,"[6, 8]",1.0,4.0,0.2670619487762451,2.0257790088653564,0.6584088731519713,44.0,419.0,0.0
Y,R,"[6, 9]",1.0,5.0,0.23580098152160645,1.8402819633483887,0.5155709312500629,44.0,420.0,0.0
,,"(6, 6)",,,,,,,,
G,D,"[6, 9]",-999.0,0.0,0.8405320644378662,3.937397003173828,0.2698716049707836,45.0,421.0,-5.0
G,D,"[6, 9]",-999.0,0.0,0.5201151371002197,2.279968023300171,0.6665504647063999,45.0,422.0,-5.0
G,D,"[6, 9]",-999.0,0.0,0.4400811195373535,2.2626609802246094,0.7289687162829102,45.0,423.0,-5.0
B,L,"[6, 9]",-999.0,0.0,0.5895180702209473,2.0371150970458984,0.3496665331433499,45.0,424.0,-5.0
B,L,"[6, 9]",-999.0,0.0,0.29437708854675293,1.9254701137542725,0.5252013184118848,45.0,425.0,-5.0
R,U,"[6, 9]",-999.0,0.0,0.6455948352813721,2.3866071701049805,0.6449904873602145,45.0,426.0,-5.0
R,U,"[6, 9]",-999.0,0.0,0.585625171661377,1.9814040660858154,0.31020045418188574,45.0,427.0,-5.0
B,L,"[6, 9]",-999.0,0.0,0.6089999675750732,2.3377809524536133,0.6475774808830386,45.0,428.0,-5.0
B,L,"[6, 9]",-999.0,0.0,0.36146092414855957,2.048691987991333,0.5796859059671634,45.0,429.0,-5.0
Y,R,"[6, 10]",-999.0,0.0,0.7571592330932617,2.417232036590576,0.5471859914268642,45.0,430.0,1.0
,,"(6, 6)",,,,,,,,
R,U,"[5, 6]",-999.0,0.0,0.5700809955596924,4.572441816329956,0.48639725757355473,46.0,431.0,-4.0
Y,R,"[5, 7]",-999.0,0.0,0.3653261661529541,1.8425328731536865,0.3790830458818021,46.0,432.0,-4.0
Y,R,"[5, 8]",-999.0,0.0,0.267366886138916,1.737527847290039,0.36656682965834364,46.0,433.0,-4.0
R,U,"[4, 8]",-999.0,0.0,0.5011088848114014,2.228618860244751,0.6283553264792472,46.0,434.0,-4.0
Y,R,"[4, 9]",-2.0,0.0,1.0986690521240234,2.473451852798462,0.3355549699765831,46.0,435.0,1.0
,,"(6, 6)",,,,,,,,
G,D,"[4, 9]",-2.0,0.0,1.2417998313903809,3.9540629386901855,0.37308999342643345,47.0,436.0,-5.0
G,D,"[4, 9]",-999.0,0.0,0.3723430633544922,1.7148051261901855,0.25437990017171297,47.0,437.0,-5.0
G,D,"[4, 9]",-999.0,0.0,0.27524399757385254,1.8410730361938477,0.4622369476810717,47.0,438.0,-5.0
B,L,"[4, 9]",-999.0,0.0,0.2974679470062256,1.8139700889587402,0.40957294053615523,47.0,439.0,-5.0
B,L,"[4, 9]",-999.0,0.0,0.24086904525756836,1.8916451930999756,0.5344668548036978,47.0,440.0,-5.0
,,"(6, 6)",,,,,,,,
R,U,"[5, 6]",-999.0,0.0,0.6252601146697998,3.549078941345215,0.2839679227138943,48.0,441.0,-4.0
Y,R,"[5, 7]",-999.0,0.0,0.5379199981689453,1.954103946685791,0.32134553545598593,48.0,442.0,-4.0
Y,R,"[5, 8]",-999.0,0.0,0.2514801025390625,1.8440461158752441,0.4986743972249133,48.0,443.0,-4.0
G,D,"[6, 8]",-999.0,0.0,0.6251130104064941,2.295600175857544,0.577479019779227,48.0,444.0,-4.0
Y,R,"[6, 9]",-999.0,0.0,0.32976198196411133,2.162487030029297,0.7399309134501035,48.0,445.0,-4.0
Y,R,"[6, 10]",-999.0,0.0,0.20218515396118164,2.021015167236328,0.7275833310993619,48.0,446.0,-4.0
R,U,"[5, 10]",-999.0,0.0,0.2855870723724365,2.013000011444092,0.640846716039353,48.0,447.0,-4.0
R,U,"[4, 10]",-999.0,0.0,0.23100805282592773,2.0560460090637207,0.7300532837832332,48.0,448.0,-4.0
R,U,"[3, 10]",-999.0,0.0,0.3925199508666992,2.1820459365844727,0.6954896361373109,48.0,449.0,-4.0
Y,R,"[3, 11]",-2.0,0.0,1.3181719779968262,2.8924779891967773,0.538285870207943,48.0,450.0,1.0
,,"(6, 6)",,,,,,,,
B,L,"[3, 11]",-999.0,0.0,0.8673019409179688,3.7967441082000732,0.7015497207924968,49.0,451.0,-5.0
B,L,"[3, 11]",-999.0,0.0,0.31597089767456055,1.8427739143371582,0.4280003896072787,49.0,452.0,-5.0
R,U,"[3, 11]",-999.0,0.0,0.5247750282287598,1.8835160732269287,0.2785000042964665,49.0,453.0,-5.0
R,U,"[3, 11]",-999.0,0.0,0.33591485023498535,1.7508699893951416,0.3292607836043653,49.0,454.0,-5.0
B,L,"[3, 10]",-999.0,0.0,0.8879220485687256,2.2395119667053223,0.25224575838323915,49.0,455.0,1.0
,,"(6, 6)",,,,,,,,
R,U,"[5, 6]",1.0,1.0,0.40526890754699707,3.240000009536743,0.27539414661667294,50.0,456.0,0.0
Y,R,"[5, 7]",1.0,2.0,0.22333097457885742,1.6728641986846924,0.3485497011576334,50.0,457.0,0.0
Y,R,"[5, 8]",1.0,3.0,0.19602394104003906,1.9479100704193115,0.6460635766641857,50.0,458.0,0.0
G,D,"[6, 8]",1.0,4.0,0.23119688034057617,1.711756944656372,0.3748404485489593,50.0,459.0,0.0
Y,R,"[6, 9]",1.0,5.0,0.20626187324523926,1.9788579940795898,0.6700801057453845,50.0,460.0,0.0
,,"(6, 6)",,,,,,,,
R,U,"[5, 6]",-999.0,0.0,0.7746407985687256,3.9077179431915283,0.42814723499321977,51.0,461.0,-4.0
Y,R,"[5, 7]",-999.0,0.0,0.5961811542510986,2.0386929512023926,0.35008069200245956,51.0,462.0,-4.0
Y,R,"[5, 8]",-999.0,0.0,0.3301219940185547,1.9314801692962646,0.4984103868083708,51.0,463.0,-4.0
G,D,"[6, 8]",-999.0,0.0,0.5248589515686035,2.15883207321167,0.5238833810531524,51.0,464.0,-4.0
Y,R,"[6, 9]",-999.0,0.0,0.533912181854248,1.9333469867706299,0.3073483133803093,51.0,465.0,-4.0
Y,R,"[6, 10]",-999.0,0.0,0.26165103912353516,1.958137035369873,0.5986588824299663,51.0,466.0,-4.0
R,U,"[5, 10]",-999.0,0.0,0.3612051010131836,1.8084628582000732,0.3407251423751365,51.0,467.0,-4.0
R,U,"[4, 10]",-999.0,0.0,0.25215911865234375,1.9967670440673828,0.6542744473104041,51.0,468.0,-4.0
R,U,"[3, 10]",-999.0,0.0,0.3359038829803467,1.820871114730835,0.391894827289918,51.0,469.0,-4.0
B,L,"[3, 9]",-999.0,0.0,0.8256320953369141,2.4537339210510254,0.528782056715807,51.0,470.0,1.0
,,"(6, 6)",,,,,,,,
R,U,"[5, 6]",1.0,1.0,0.32764410972595215,3.404258966445923,0.716342166885577,52.0,471.0,0.0
Y,R,"[5, 7]",1.0,2.0,0.23908114433288574,2.0714571475982666,0.7211733743048843,52.0,472.0,0.0
Y,R,"[5, 8]",1.0,3.0,0.22194695472717285,1.9036099910736084,0.575005697183512,52.0,473.0,0.0
G,D,"[6, 8]",1.0,4.0,0.28755998611450195,1.7256522178649902,0.35080075118904436,52.0,474.0,0.0
Y,R,"[6, 9]",1.0,5.0,0.27841615676879883,1.7683560848236084,0.38594845566675173,52.0,475.0,0.0
Y,R,"[6, 10]",1.0,6.0,0.28889989852905273,1.9196958541870117,0.5221701038483809,52.0,476.0,0.0
R,U,"[5, 10]",1.0,7.0,0.2590360641479492,1.9984967708587646,0.6372940044474489,52.0,477.0,0.0
R,U,"[4, 10]",1.0,8.0,0.23285317420959473,1.9635820388793945,0.6342078281874242,52.0,478.0,0.0
B,L,"[4, 9]",1.0,9.0,0.17438411712646484,1.8960320949554443,0.6135682527497814,52.0,479.0,0.0
R,U,"[3, 9]",1.0,10.0,0.20360994338989258,1.6684870719909668,0.3656627602610784,52.0,480.0,0.0
,,"(6, 6)",,,,,,,,
R,U,"[5, 6]",-999.0,0.0,0.44966697692871094,3.3816850185394287,0.2809985388526939,53.0,481.0,-4.0
Y,R,"[5, 7]",-999.0,0.0,0.25604987144470215,1.673374891281128,0.3210665001489308,53.0,482.0,-4.0
Y,R,"[5, 8]",-999.0,0.0,0.2128279209136963,2.040432929992676,0.7277664014047973,53.0,483.0,-4.0
R,U,"[4, 8]",-999.0,0.0,0.5179200172424316,2.1716930866241455,0.5663823262157205,53.0,484.0,-4.0
Y,R,"[4, 9]",-2.0,0.0,1.1396369934082031,2.4823200702667236,0.2989196047691858,53.0,485.0,1.0
,,"(6, 6)",,,,,,,,
R,U,"[5, 6]",1.0,1.0,0.5571470260620117,3.4341049194335938,0.4830164994406478,54.0,486.0,0.0
Y,R,"[5, 7]",1.0,2.0,0.18093204498291016,1.7264950275421143,0.44276323387362787,54.0,487.0,0.0
Y,R,"[5, 8]",1.0,3.0,0.19256806373596191,2.0016300678253174,0.7108896159597691,54.0,488.0,0.0
G,D,"[6, 8]",1.0,4.0,0.1443040370941162,1.977961778640747,0.7387549592262261,54.0,489.0,0.0
Y,R,"[6, 9]",-1.0,4.0,0.04363298416137695,5.7776899337768555,0.6167422708023922,54.0,490.0,0.0
,,"(6, 6)",,,,,,,,
B,L,"[6, 9]",-999.0,0.0,0.8226718902587891,4.388321876525879,0.738401943563288,55.0,491.0,-5.0
B,L,"[6, 9]",-999.0,0.0,0.318878173828125,1.7742688655853271,0.3632235110299558,55.0,492.0,-5.0
R,U,"[6, 9]",-999.0,0.0,0.6997058391571045,2.2687108516693115,0.4651480946815463,55.0,493.0,-5.0
R,U,"[6, 9]",-999.0,0.0,0.4924430847167969,1.9147789478302002,0.31336897715108397,55.0,494.0,-5.0
Y,R,"[6, 10]",-999.0,0.0,0.8275580406188965,2.440330982208252,0.5036084909068974,55.0,495.0,1.0
,,"(6, 6)",,,,,,,,
R,U,"[5, 6]",1.0,1.0,0.43894410133361816,3.390443801879883,0.5277363873500833,56.0,496.0,0.0
Y,R,"[5, 7]",1.0,2.0,0.21004581451416016,1.905998945236206,0.6001645424818731,56.0,497.0,0.0
Y,R,"[5, 8]",1.0,3.0,0.31180810928344727,1.7106561660766602,0.2944039344460132,56.0,498.0,0.0
G,D,"[6, 8]",1.0,4.0,0.3557100296020508,1.809744119644165,0.35394557869787924,56.0,499.0,0.0
Y,R,"[6, 9]",1.0,5.0,0.26487302780151367,2.0824289321899414,0.7197491923159836,56.0,500.0,0.0
,,"(6, 6)",,,,,,,,
R,U,"[5, 6]",1.0,1.0,0.40680813789367676,3.3488638401031494,0.33552945741402185,57.0,501.0,0.0
Y,R,"[5, 7]",1.0,2.0,0.24595284461975098,1.7230050563812256,0.3750728643087135,57.0,502.0,0.0
Y,R,"[5, 8]",1.0,3.0,0.2661159038543701,1.8342890739440918,0.4761877310460097,57.0,503.0,0.0
G,D,"[6, 8]",1.0,4.0,0.22676301002502441,1.6052579879760742,0.2816490677131538,57.0,504.0,0.0
Y,R,"[6, 9]",1.0,5.0,0.24368000030517578,1.808995008468628,0.45718656354098713,57.0,505.0,0.0
Y,R,"[6, 10]",1.0,6.0,0.28835201263427734,2.0205190181732178,0.6440698379814911,57.0,506.0,0.0
R,U,"[5, 10]",1.0,7.0,0.369732141494751,1.774627923965454,0.3192310748447792,57.0,507.0,0.0
R,U,"[4, 10]",1.0,8.0,0.2634921073913574,1.830535888671875,0.4661424604139294,57.0,508.0,0.0
B,L,"[4, 9]",1.0,9.0,0.2643928527832031,1.6254291534423828,0.25857135981754065,57.0,509.0,0.0
R,U,"[3, 9]",1.0,10.0,0.26267099380493164,1.6482560634613037,0.2901720676970325,57.0,510.0,0.0
,,"(6, 6)",,,,,,,,
R,U,"[5, 6]",1.0,1.0,0.32616496086120605,3.3572919368743896,0.6805061986842009,58.0,511.0,0.0
Y,R,"[5, 7]",1.0,2.0,0.19207096099853516,1.6802611351013184,0.3778282776809098,58.0,512.0,0.0
Y,R,"[5, 8]",1.0,3.0,0.22648000717163086,1.7180531024932861,0.39594048154180117,58.0,513.0,0.0
G,D,"[6, 8]",1.0,4.0,0.2367110252380371,1.8251368999481201,0.5041020223866526,58.0,514.0,0.0
Y,R,"[6, 9]",1.0,5.0,0.20622587203979492,1.9716620445251465,0.6590951455470364,58.0,515.0,0.0
Y,R,"[6, 10]",1.0,6.0,0.20696592330932617,1.7091000080108643,0.4018644217676078,58.0,516.0,0.0
R,U,"[5, 10]",1.0,7.0,0.20351195335388184,1.6378870010375977,0.33989079792288046,58.0,517.0,0.0
R,U,"[4, 10]",1.0,8.0,0.22504091262817383,1.7128398418426514,0.38608649300210174,58.0,518.0,0.0
B,L,"[4, 9]",1.0,9.0,0.19820594787597656,1.7966949939727783,0.49924323370853135,58.0,519.0,0.0
R,U,"[3, 9]",1.0,10.0,0.19371414184570312,1.7882280349731445,0.4876619279302338,58.0,520.0,0.0
,,"(6, 6)",,,,,,,,
R,U,"[5, 6]",-999.0,0.0,0.5449609756469727,3.5567100048065186,0.5776640375823092,59.0,521.0,-4.0
Y,R,"[5, 7]",-999.0,0.0,0.6313400268554688,2.114241123199463,0.3920808426733063,59.0,522.0,-4.0
Y,R,"[5, 8]",-999.0,0.0,0.30882692337036133,1.9042651653289795,0.49618246132346916,59.0,523.0,-4.0
R,U,"[4, 8]",-999.0,0.0,0.5872130393981934,1.9537570476531982,0.26683632554461567,59.0,524.0,-4.0
Y,R,"[4, 9]",-999.0,0.0,0.9445130825042725,2.3282411098480225,0.27863439769083354,59.0,525.0,1.0
,,"(6, 6)",,,,,,,,
B,L,"[4, 9]",-999.0,0.0,0.967907190322876,4.656248092651367,0.6844890688857679,60.0,526.0,-5.0
B,L,"[4, 9]",-999.0,0.0,0.4792330265045166,2.0261709690093994,0.44428862549035913,60.0,527.0,-5.0
R,U,"[4, 9]",-999.0,0.0,0.6767449378967285,2.222970962524414,0.45063924330167987,60.0,528.0,-5.0
R,U,"[4, 9]",-999.0,0.0,0.36040496826171875,1.9666781425476074,0.5004973188285212,60.0,529.0,-5.0
B,L,"[4, 8]",-999.0,0.0,0.8467400074005127,2.5028879642486572,0.5534977528283316,60.0,530.0,1.0
,,"(6, 6)",,,,,,,,
R,U,"[5, 6]",1.0,1.0,0.9231820106506348,3.9859249591827393,0.42287710004032375,61.0,531.0,0.0
Y,R,"[5, 7]",1.0,2.0,0.21300888061523438,1.915766954421997,0.6053307602654372,61.0,532.0,0.0
Y,R,"[5, 8]",1.0,3.0,0.21315884590148926,2.026890993118286,0.7152665461621212,61.0,533.0,0.0
G,D,"[6, 8]",1.0,4.0,0.2238931655883789,1.6496179103851318,0.31542032455568186,61.0,534.0,0.0
Y,R,"[6, 9]",1.0,5.0,0.26874303817749023,1.7504441738128662,0.3825262041482911,61.0,535.0,0.0
Y,R,"[6, 10]",1.0,6.0,0.23979806900024414,1.741011142730713,0.39031126707019037,61.0,536.0,0.0
R,U,"[5, 10]",1.0,7.0,0.22271108627319336,1.9997749328613281,0.6730790877560617,61.0,537.0,0.0
R,U,"[4, 10]",1.0,8.0,0.2094738483428955,1.8733279705047607,0.5631777410950471,61.0,538.0,0.0
B,L,"[4, 9]",1.0,9.0,0.21147704124450684,1.90264892578125,0.5825870528107491,61.0,539.0,0.0
R,U,"[3, 9]",1.0,10.0,0.2393639087677002,1.803433895111084,0.4528946507737797,61.0,540.0,0.0
,,"(6, 6)",,,,,,,,
R,U,"[5, 6]",1.0,1.0,0.3624567985534668,3.1817569732666016,0.25156107851416054,62.0,541.0,0.0
Y,R,"[5, 7]",1.0,2.0,0.23162102699279785,1.6838390827178955,0.3519988250516438,62.0,542.0,0.0
Y,R,"[5, 8]",1.0,3.0,0.22592401504516602,1.6052160263061523,0.2740288512728376,62.0,543.0,0.0
G,D,"[6, 8]",1.0,4.0,0.20597219467163086,1.618474006652832,0.3091323352838608,62.0,544.0,0.0
Y,R,"[6, 9]",1.0,5.0,0.21041321754455566,1.6967878341674805,0.38915924992282935,62.0,545.0,0.0
Y,R,"[6, 10]",1.0,6.0,0.20649099349975586,1.871541976928711,0.5772195030704401,62.0,546.0,0.0
R,U,"[5, 10]",1.0,7.0,0.1508169174194336,1.5224430561065674,0.2834169257632038,62.0,547.0,0.0
R,U,"[4, 10]",1.0,8.0,0.24951815605163574,1.6630260944366455,0.3130474696177247,62.0,548.0,0.0
B,L,"[4, 9]",1.0,9.0,0.274914026260376,1.8388268947601318,0.45182418220144804,62.0,549.0,0.0
R,U,"[3, 9]",1.0,10.0,0.21886301040649414,1.6221091747283936,0.3074330350291731,62.0,550.0,0.0
,,"(6, 6)",,,,,,,,
R,U,"[5, 6]",1.0,1.0,0.2750051021575928,3.362865924835205,0.570018735171115,63.0,551.0,0.0
Y,R,"[5, 7]",1.0,2.0,0.1903700828552246,1.9935259819030762,0.6967621686546166,63.0,552.0,0.0
Y,R,"[5, 8]",1.0,3.0,0.20864605903625488,1.7537620067596436,0.45085207786955095,63.0,553.0,0.0
G,D,"[6, 8]",1.0,4.0,0.20181894302368164,1.962904930114746,0.663530030077986,63.0,554.0,0.0
Y,R,"[6, 9]",1.0,5.0,0.18912696838378906,1.733267068862915,0.43047934218053635,63.0,555.0,0.0
Y,R,"[6, 10]",1.0,6.0,0.19971513748168945,1.5980110168457031,0.29540527159363966,63.0,556.0,0.0
R,U,"[5, 10]",1.0,7.0,0.20964598655700684,1.708664894104004,0.40399977645569896,63.0,557.0,0.0
R,U,"[4, 10]",1.0,8.0,0.19164800643920898,1.5612308979034424,0.26540041013565197,63.0,558.0,0.0
B,L,"[4, 9]",1.0,9.0,0.13424110412597656,1.8077459335327148,0.5727614253204434,63.0,559.0,0.0
R,U,"[3, 9]",1.0,10.0,0.2042989730834961,1.8515310287475586,0.5577117621158149,63.0,560.0,0.0
,,"(6, 6)",,,,,,,,
R,U,"[5, 6]",-999.0,0.0,0.34879517555236816,3.293462038040161,0.31814707958765154,64.0,561.0,-4.0
Y,R,"[5, 7]",-999.0,0.0,0.2914881706237793,1.9017400741577148,0.5197948115596588,64.0,562.0,-4.0
Y,R,"[5, 8]",-999.0,0.0,0.2549929618835449,1.907667875289917,0.5608063155894512,64.0,563.0,-4.0
G,D,"[6, 8]",-999.0,0.0,0.7034440040588379,2.110666036605835,0.3216799513338239,64.0,564.0,-4.0
Y,R,"[6, 9]",-999.0,0.0,0.3181788921356201,1.9378468990325928,0.5260543483625366,64.0,565.0,-4.0
Y,R,"[6, 10]",-999.0,0.0,0.25601696968078613,1.8183269500732422,0.477873750041896,64.0,566.0,-4.0
R,U,"[5, 10]",-999.0,0.0,0.2810828685760498,2.0348739624023438,0.6625676024992875,64.0,567.0,-4.0
R,U,"[4, 10]",-999.0,0.0,0.2340991497039795,2.0080678462982178,0.6706262253767478,64.0,568.0,-4.0
R,U,"[3, 10]",-999.0,0.0,0.374906063079834,1.9480388164520264,0.46888317781133976,64.0,569.0,-4.0
B,L,"[3, 9]",-999.0,0.0,0.5813860893249512,2.06095290184021,0.37997414737596774,64.0,570.0,1.0
,,"(6, 6)",,,,,,,,
R,U,"[5, 6]",1.0,1.0,0.596215009689331,3.891371011734009,0.5545802473477928,65.0,571.0,0.0
Y,R,"[5, 7]",-1.0,1.0,0.09864211082458496,5.8626320362091064,0.6339561841881435,65.0,572.0,0.0
Y,R,"[5, 8]",1.0,2.0,0.26720690727233887,1.7603371143341064,0.3945128538667954,65.0,573.0,0.0
G,D,"[6, 8]",1.0,3.0,0.20809483528137207,1.9571220874786377,0.6514131125420008,65.0,574.0,0.0
Y,R,"[6, 9]",1.0,4.0,0.2035231590270996,1.7572741508483887,0.4589011735780068,65.0,575.0,0.0
Y,R,"[6, 10]",1.0,5.0,0.21956777572631836,2.0436949729919434,0.7356356138183937,65.0,576.0,0.0
R,U,"[5, 10]",1.0,6.0,0.23060393333435059,1.6847538948059082,0.3541860927789246,65.0,577.0,0.0
R,U,"[4, 10]",1.0,7.0,0.27204203605651855,2.0976908206939697,0.7181559251294545,65.0,578.0,0.0
B,L,"[4, 9]",1.0,8.0,0.20843911170959473,2.012450933456421,0.6974682949048077,65.0,579.0,0.0
R,U,"[3, 9]",1.0,9.0,0.23293805122375488,1.959153175354004,0.6232968034195255,65.0,580.0,0.0
,,"(6, 6)",,,,,,,,
R,U,"[5, 6]",1.0,1.0,0.10715413093566895,3.269411087036133,0.6428538923218658,66.0,581.0,0.0
Y,R,"[5, 7]",1.0,2.0,0.20531702041625977,1.6546270847320557,0.3477321800930033,66.0,582.0,0.0
Y,R,"[5, 8]",1.0,3.0,0.20593595504760742,1.8142621517181396,0.49519101176418134,66.0,583.0,0.0
G,D,"[6, 8]",1.0,4.0,0.245894193649292,1.84306001663208,0.504965353080061,66.0,584.0,0.0
Y,R,"[6, 9]",1.0,5.0,0.18675899505615234,1.8005671501159668,0.5220640131990772,66.0,585.0,0.0
Y,R,"[6, 10]",1.0,6.0,0.18878507614135742,1.9348411560058594,0.6404330544948159,66.0,586.0,0.0
R,U,"[5, 10]",1.0,7.0,0.20753693580627441,1.9355449676513672,0.6258662944831281,66.0,587.0,0.0
R,U,"[4, 10]",1.0,8.0,0.223311185836792,1.6508162021636963,0.34380531379802903,66.0,588.0,0.0
B,L,"[4, 9]",1.0,9.0,0.2853670120239258,1.9267981052398682,0.5536213176084468,66.0,589.0,0.0
R,U,"[3, 9]",1.0,10.0,0.20194387435913086,1.9348928928375244,0.6384112063945837,66.0,590.0,0.0
,,"(6, 6)",,,,,,,,
B,L,"[3, 9]",-999.0,0.0,0.8912508487701416,5.517237901687622,0.35644179010576993,67.0,591.0,-5.0
B,L,"[3, 9]",-999.0,0.0,0.2775440216064453,1.728308916091919,0.35112870623307507,67.0,592.0,-5.0
R,U,"[3, 9]",-999.0,0.0,0.5153701305389404,2.294358968734741,0.678480482938568,67.0,593.0,-5.0
R,U,"[3, 9]",-999.0,0.0,0.4600679874420166,2.070068120956421,0.4988421228329987,67.0,594.0,-5.0
B,L,"[3, 8]",-999.0,0.0,0.6925370693206787,2.4226040840148926,0.6213148081214052,67.0,595.0,1.0
,,"(6, 6)",,,,,,,,
B,L,"[3, 8]",-999.0,0.0,0.7764999866485596,3.957711935043335,0.6624653632414581,68.0,596.0,-5.0
B,L,"[3, 8]",-999.0,0.0,0.24933195114135742,1.626939058303833,0.2732350385866484,68.0,597.0,-5.0
R,U,"[3, 8]",-999.0,0.0,0.36270880699157715,2.186527967453003,0.726040688413119,68.0,598.0,-5.0
R,U,"[3, 8]",-999.0,0.0,0.23656392097473145,1.7785849571228027,0.4548810419881561,68.0,599.0,-5.0
Y,R,"[3, 9]",-999.0,0.0,0.4861938953399658,2.08213210105896,0.5036582910907472,68.0,600.0,1.0
,,"(6, 6)",,,,,,,,
R,U,"[5, 6]",1.0,1.0,0.5822238922119141,3.340419054031372,0.3441909346020582,69.0,601.0,0.0
Y,R,"[5, 7]",1.0,2.0,0.2252359390258789,1.774569034576416,0.45200323896284816,69.0,602.0,0.0
Y,R,"[5, 8]",1.0,3.0,0.23160004615783691,2.0638279914855957,0.7322182065382654,69.0,603.0,0.0
G,D,"[6, 8]",1.0,4.0,0.24095606803894043,1.7132019996643066,0.3626538961723796,69.0,604.0,0.0
Y,R,"[6, 9]",1.0,5.0,0.24149298667907715,2.0863828659057617,0.7318568609251717,69.0,605.0,0.0
Y,R,"[6, 10]",1.0,6.0,0.23702406883239746,1.6433029174804688,0.30915776515789506,69.0,606.0,0.0
R,U,"[5, 10]",1.0,7.0,0.2467660903930664,1.7098920345306396,0.368938759545582,69.0,607.0,0.0
R,U,"[4, 10]",1.0,8.0,0.2563028335571289,1.9185779094696045,0.5540947066158894,69.0,608.0,0.0
B,L,"[4, 9]",1.0,9.0,0.22623801231384277,1.757810115814209,0.4287574019579428,69.0,609.0,0.0
R,U,"[3, 9]",1.0,10.0,0.2335801124572754,1.7950551509857178,0.47366710273840623,69.0,610.0,0.0
,,"(6, 6)",,,,,,,,
R,U,"[5, 6]",-999.0,0.0,0.6363768577575684,5.546195030212402,0.6864945104256477,70.0,611.0,-4.0
Y,R,"[5, 7]",-999.0,0.0,0.6066439151763916,2.0019941329956055,0.30557331762088696,70.0,612.0,-4.0
Y,R,"[5, 8]",-999.0,0.0,0.26911282539367676,1.71425199508667,0.3531283695628553,70.0,613.0,-4.0
G,D,"[6, 8]",-999.0,0.0,0.3071708679199219,1.7442259788513184,0.34749339885576924,70.0,614.0,-4.0
Y,R,"[6, 9]",-999.0,0.0,0.2153489589691162,2.035506010055542,0.7158766484268672,70.0,615.0,-4.0
Y,R,"[6, 10]",-999.0,0.0,0.22497987747192383,1.802098035812378,0.4682838147444432,70.0,616.0,-4.0
R,U,"[5, 10]",-999.0,0.0,0.2890448570251465,1.9177138805389404,0.5360972875892489,70.0,617.0,-4.0
R,U,"[4, 10]",-999.0,0.0,0.24560809135437012,1.7146408557891846,0.36746569919403105,70.0,618.0,-4.0
R,U,"[3, 10]",-999.0,0.0,0.26401591300964355,1.6169610023498535,0.25120406225782044,70.0,619.0,-4.0
B,L,"[3, 9]",-999.0,0.0,0.43617796897888184,1.9114160537719727,0.3792805294502475,70.0,620.0,1.0
,,"(6, 6)",,,,,,,,
R,U,"[5, 6]",1.0,1.0,0.34737491607666016,3.6130480766296387,0.7421109070537389,71.0,621.0,0.0
Y,R,"[5, 7]",1.0,2.0,0.18688011169433594,1.9858241081237793,0.7111593053993608,71.0,622.0,0.0
Y,R,"[5, 8]",1.0,3.0,0.20171713829040527,1.7381410598754883,0.4495682880288477,71.0,623.0,0.0
G,D,"[6, 8]",1.0,4.0,0.23559117317199707,2.0347471237182617,0.7007968166376481,71.0,624.0,0.0
Y,R,"[6, 9]",1.0,5.0,0.16238808631896973,1.9637541770935059,0.698494742351516,71.0,625.0,0.0
Y,R,"[6, 10]",1.0,6.0,0.4607658386230469,2.1967151165008545,0.6281157010068359,71.0,626.0,0.0
R,U,"[5, 10]",1.0,7.0,0.2575211524963379,1.9601819515228271,0.6050555499729084,71.0,627.0,0.0
R,U,"[4, 10]",1.0,8.0,0.23288702964782715,1.9559462070465088,0.6280639471109715,71.0,628.0,0.0
B,L,"[4, 9]",1.0,9.0,0.3319509029388428,2.172292947769165,0.7499213632391839,71.0,629.0,0.0
R,U,"[3, 9]",1.0,10.0,0.25671911239624023,1.838068962097168,0.4714782099020579,71.0,630.0,0.0
,,"(6, 6)",,,,,,,,
R,U,"[5, 6]",1.0,1.0,0.4375431537628174,4.220349073410034,0.49210562482605064,72.0,631.0,0.0
Y,R,"[5, 7]",1.0,2.0,0.2198338508605957,1.8558399677276611,0.5479124604768772,72.0,632.0,0.0
Y,R,"[5, 8]",1.0,3.0,0.2574348449707031,2.037580966949463,0.6688144249607701,72.0,633.0,0.0
G,D,"[6, 8]",1.0,4.0,0.20624089241027832,1.8446881771087646,0.5302566257084043,72.0,634.0,0.0
Y,R,"[6, 9]",1.0,5.0,0.21512413024902344,1.6453189849853516,0.3257012808441539,72.0,635.0,0.0
Y,R,"[6, 10]",1.0,6.0,0.24282598495483398,1.9656310081481934,0.6245309920885831,72.0,636.0,0.0
R,U,"[5, 10]",1.0,7.0,0.2531869411468506,2.044736862182617,0.7022484868968809,72.0,637.0,0.0
R,U,"[4, 10]",1.0,8.0,0.1957380771636963,1.9279389381408691,0.6304872391813878,72.0,638.0,0.0
B,L,"[4, 9]",1.0,9.0,0.20192909240722656,1.9255151748657227,0.6227990628922645,72.0,639.0,0.0
R,U,"[3, 9]",1.0,10.0,0.2054750919342041,1.7793500423431396,0.4691975117285171,72.0,640.0,0.0
,,"(6, 6)",,,,,,,,
R,U,"[5, 6]",1.0,1.0,0.30115699768066406,3.3917341232299805,0.36081520299824066,73.0,641.0,0.0
Y,R,"[5, 7]",1.0,2.0,0.19999480247497559,1.6868350505828857,0.3975994540873637,73.0,642.0,0.0
Y,R,"[5, 8]",1.0,3.0,0.18793511390686035,1.5948600769042969,0.29204108792784556,73.0,643.0,0.0
G,D,"[6, 8]",1.0,4.0,0.25465893745422363,1.8452210426330566,0.5043758555595061,73.0,644.0,0.0
Y,R,"[6, 9]",1.0,5.0,0.19446706771850586,1.755565881729126,0.45997452243100023,73.0,645.0,0.0
Y,R,"[6, 10]",1.0,6.0,0.228043794631958,1.732550859451294,0.40936707666342664,73.0,646.0,0.0
R,U,"[5, 10]",1.0,7.0,0.25963902473449707,2.0076990127563477,0.6502120408950891,73.0,647.0,0.0
R,U,"[4, 10]",-1.0,7.0,0.04913496971130371,5.568103075027466,0.38529560246565225,73.0,648.0,0.0
B,L,"[4, 9]",1.0,8.0,0.21761488914489746,2.0405869483947754,0.7255870223769785,73.0,649.0,0.0
R,U,"[3, 9]",1.0,9.0,0.29262495040893555,2.0536348819732666,0.6793100895947909,73.0,650.0,0.0
,,"(6, 6)",,,,,,,,
R,U,"[5, 6]",1.0,1.0,0.5317349433898926,5.3071839809417725,0.35348603638719983,74.0,651.0,0.0
Y,R,"[5, 7]",1.0,2.0,0.22239398956298828,1.7753081321716309,0.44551744959173667,74.0,652.0,0.0
Y,R,"[5, 8]",1.0,3.0,0.23507213592529297,1.9926910400390625,0.6713114066081975,74.0,653.0,0.0
G,D,"[6, 8]",1.0,4.0,0.2513589859008789,1.6837489604949951,0.33863220657803733,74.0,654.0,0.0
Y,R,"[6, 9]",1.0,5.0,0.35103797912597656,1.9735088348388672,0.5286944560107207,74.0,655.0,0.0
Y,R,"[6, 10]",1.0,6.0,0.2218470573425293,1.5960769653320312,0.2750494278121635,74.0,656.0,0.0
R,U,"[5, 10]",1.0,7.0,0.3193321228027344,1.888840913772583,0.4804157361214932,74.0,657.0,0.0
R,U,"[4, 10]",1.0,8.0,0.252763032913208,1.928372859954834,0.5753467296898166,74.0,658.0,0.0
B,L,"[4, 9]",1.0,9.0,0.21298003196716309,2.0370359420776367,0.7289852755413594,74.0,659.0,0.0
R,U,"[3, 9]",1.0,10.0,0.2765531539916992,2.0664310455322266,0.6955167317917514,74.0,660.0,0.0
,,"(6, 6)",,,,,,,,
R,U,"[5, 6]",1.0,1.0,0.5370469093322754,4.0779759883880615,0.47372054740402275,75.0,661.0,0.0
Y,R,"[5, 7]",1.0,2.0,0.22896885871887207,2.0548689365386963,0.7282681126723626,75.0,662.0,0.0
Y,R,"[5, 8]",1.0,3.0,0.2148289680480957,1.9640190601348877,0.6590952109580606,75.0,663.0,0.0
G,D,"[6, 8]",1.0,4.0,0.2554600238800049,1.7515318393707275,0.39426532037953893,75.0,664.0,0.0
Y,R,"[6, 9]",1.0,5.0,0.25252795219421387,1.899742841720581,0.5606143742346676,75.0,665.0,0.0
Y,R,"[6, 10]",1.0,6.0,0.23052501678466797,1.6742498874664307,0.35183852688226375,75.0,666.0,0.0
R,U,"[5, 10]",1.0,7.0,0.34010887145996094,1.763110876083374,0.3149209802246523,75.0,667.0,0.0
R,U,"[4, 10]",1.0,8.0,0.251392126083374,1.8767750263214111,0.5248557655941922,75.0,668.0,0.0
B,L,"[4, 9]",1.0,9.0,0.22886300086975098,1.884876012802124,0.5598408529897982,75.0,669.0,0.0
R,U,"[3, 9]",1.0,10.0,0.2805960178375244,1.7494170665740967,0.37612874772436156,75.0,670.0,0.0
,,"(6, 6)",,,,,,,,
R,U,"[5, 6]",1.0,1.0,0.36420178413391113,3.8392720222473145,0.681747526731576,76.0,671.0,0.0
Y,R,"[5, 7]",1.0,2.0,0.22300291061401367,1.8776650428771973,0.5596705080479392,76.0,672.0,0.0
Y,R,"[5, 8]",1.0,3.0,0.2471930980682373,1.8833599090576172,0.5430595387018227,76.0,673.0,0.0
G,D,"[6, 8]",1.0,4.0,0.22798919677734375,1.6183080673217773,0.29493570417082987,76.0,674.0,0.0
Y,R,"[6, 9]",1.0,5.0,0.34523606300354004,1.9719269275665283,0.5334656215022747,76.0,675.0,0.0
Y,R,"[6, 10]",1.0,6.0,0.22398090362548828,1.8602080345153809,0.5268950166651533,76.0,676.0,0.0
R,U,"[5, 10]",1.0,7.0,0.20408415794372559,1.5689129829406738,0.27941880347717757,76.0,677.0,0.0
R,U,"[4, 10]",1.0,8.0,0.24498295783996582,2.006535053253174,0.6522482874822582,76.0,678.0,0.0
B,L,"[4, 9]",1.0,9.0,0.23112010955810547,1.5821831226348877,0.25159516701258977,76.0,679.0,0.0
R,U,"[3, 9]",1.0,10.0,0.3686208724975586,2.000308036804199,0.5349026270716004,76.0,680.0,0.0
,,"(6, 6)",,,,,,,,
R,U,"[5, 6]",1.0,1.0,0.4009711742401123,4.023430824279785,0.5418878131214542,77.0,681.0,0.0
Y,R,"[5, 7]",1.0,2.0,0.2210710048675537,1.977154016494751,0.6522510088976884,77.0,682.0,0.0
Y,R,"[5, 8]",1.0,3.0,0.4328780174255371,1.838258981704712,0.3074183211117681,77.0,683.0,0.0
G,D,"[6, 8]",1.0,4.0,0.301577091217041,1.766113042831421,0.3734633954035626,77.0,684.0,0.0
Y,R,"[6, 9]",1.0,5.0,0.24554204940795898,1.6145610809326172,0.27151489318968564,77.0,685.0,0.0
Y,R,"[6, 10]",1.0,6.0,0.269726037979126,1.9659509658813477,0.6038890543052933,77.0,686.0,0.0
R,U,"[5, 10]",1.0,7.0,0.42343807220458984,2.201077938079834,0.6716559356825662,77.0,687.0,0.0
R,U,"[4, 10]",1.0,8.0,0.2478628158569336,1.7732319831848145,0.4283731878831243,77.0,688.0,0.0
B,L,"[4, 9]",1.0,9.0,0.2364189624786377,1.8980059623718262,0.5763130782757753,77.0,689.0,0.0
R,U,"[3, 9]",1.0,10.0,0.2182919979095459,2.0552890300750732,0.7482029955957761,77.0,690.0,0.0
,,"(6, 6)",,,,,,,,
B,L,"[3, 9]",-999.0,0.0,0.7424769401550293,4.993389129638672,0.3921120733016627,78.0,691.0,-5.0
B,L,"[3, 9]",-999.0,0.0,0.2936091423034668,1.9860479831695557,0.5946262455184559,78.0,692.0,-5.0
R,U,"[3, 9]",-999.0,0.0,0.7053501605987549,2.265944004058838,0.4772575013406829,78.0,693.0,-5.0
R,U,"[3, 9]",-999.0,0.0,0.33209705352783203,1.8964791297912598,0.47397943464513126,78.0,694.0,-5.0
B,L,"[3, 8]",-999.0,0.0,0.6507649421691895,2.268362045288086,0.5256247570187427,78.0,695.0,1.0
,,"(6, 6)",,,,,,,,
B,L,"[3, 8]",-999.0,0.0,0.953373908996582,3.4404051303863525,0.6159348938950325,79.0,696.0,-5.0
B,L,"[3, 8]",-999.0,0.0,0.3452610969543457,2.0066750049591064,0.556067788975777,79.0,697.0,-5.0
R,U,"[3, 8]",-999.0,0.0,0.22133493423461914,1.9556260108947754,0.6448807474237862,79.0,698.0,-5.0
R,U,"[3, 8]",-999.0,0.0,0.2407240867614746,1.918673038482666,0.5969303909053285,79.0,699.0,-5.0
G,D,"[4, 8]",-999.0,0.0,0.7401821613311768,2.271260976791382,0.41849690993735755,79.0,700.0,1.0
,,"(6, 6)",,,,,,,,
R,U,"[5, 6]",1.0,1.0,0.5687680244445801,3.183844804763794,0.3524899843301042,80.0,701.0,0.0
Y,R,"[5, 7]",1.0,2.0,0.2295081615447998,1.9601049423217773,0.6288759225357465,80.0,702.0,0.0
Y,R,"[5, 8]",1.0,3.0,0.2583489418029785,1.76777982711792,0.41352951128821597,80.0,703.0,0.0
G,D,"[6, 8]",1.0,4.0,0.22409605979919434,2.0454978942871094,0.7089740769400841,80.0,704.0,0.0
Y,R,"[6, 9]",1.0,5.0,0.17400884628295898,1.6812210083007812,0.40700056959308534,80.0,705.0,0.0
Y,R,"[6, 10]",1.0,6.0,0.2385408878326416,1.8120150566101074,0.4690758288614646,80.0,706.0,0.0
R,U,"[5, 10]",1.0,7.0,0.2239389419555664,1.9055910110473633,0.5746124852137015,80.0,707.0,0.0
R,U,"[4, 10]",1.0,8.0,0.20400595664978027,1.8279569149017334,0.5359706086366408,80.0,708.0,0.0
B,L,"[4, 9]",1.0,9.0,0.21872806549072266,1.978801965713501,0.6647394861095528,80.0,709.0,0.0
R,U,"[3, 9]",1.0,10.0,0.24051380157470703,1.6889770030975342,0.33706954709475173,80.0,710.0,0.0
,,"(6, 6)",,,,,,,,
R,U,"[5, 6]",1.0,1.0,0.42298078536987305,3.154439926147461,0.4916433397298939,81.0,711.0,0.0
Y,R,"[5, 7]",1.0,2.0,0.21725201606750488,1.9017388820648193,0.5932483255057017,81.0,712.0,0.0
Y,R,"[5, 8]",1.0,3.0,0.19165515899658203,1.8512489795684814,0.5613219066809303,81.0,713.0,0.0
G,D,"[6, 8]",1.0,4.0,0.22434401512145996,1.998095989227295,0.6759398777474769,81.0,714.0,0.0
Y,R,"[6, 9]",1.0,5.0,0.21346592903137207,1.816608190536499,0.5093586504141816,81.0,715.0,0.0
Y,R,"[6, 10]",1.0,6.0,0.3078458309173584,1.8307991027832031,0.4236043603080346,81.0,716.0,0.0
R,U,"[5, 10]",1.0,7.0,0.2708170413970947,1.8996469974517822,0.5233201319707077,81.0,717.0,0.0
R,U,"[4, 10]",1.0,8.0,0.16882705688476562,1.9027371406555176,0.6425354427182048,81.0,718.0,0.0
B,L,"[4, 9]",1.0,9.0,0.19300293922424316,2.023792028427124,0.7329906707987925,81.0,719.0,0.0
R,U,"[3, 9]",1.0,10.0,0.19443607330322266,1.7744958400726318,0.47451948797849797,81.0,720.0,0.0
,,"(6, 6)",,,,,,,,
G,D,"[3, 9]",-999.0,0.0,0.7310450077056885,3.863379955291748,0.6044246026698026,82.0,721.0,-5.0
G,D,"[3, 9]",-999.0,0.0,0.2844119071960449,1.6692330837249756,0.2902945292112342,82.0,722.0,-5.0
G,D,"[3, 9]",-999.0,0.0,0.44768190383911133,2.242213010787964,0.6992629850345674,82.0,723.0,-5.0
B,L,"[3, 9]",-999.0,0.0,0.3966519832611084,1.8101119995117188,0.3097436877104861,82.0,724.0,-5.0
B,L,"[3, 9]",-999.0,0.0,0.368710994720459,1.948199987411499,0.49112945713769096,82.0,725.0,-5.0
R,U,"[3, 9]",-999.0,0.0,0.5817911624908447,2.1290600299835205,0.4536797107180782,82.0,726.0,-5.0
R,U,"[3, 9]",-999.0,0.0,0.5751709938049316,2.367011070251465,0.7036167454316224,82.0,727.0,-5.0
B,L,"[3, 9]",-999.0,0.0,0.7986330986022949,2.6105360984802246,0.7142599562344749,82.0,728.0,-5.0
B,L,"[3, 9]",-999.0,0.0,0.34737491607666016,1.8437321186065674,0.39167602371187765,82.0,729.0,-5.0
Y,R,"[3, 10]",-999.0,0.0,0.6372270584106445,2.036864995956421,0.3121264945785707,82.0,730.0,1.0
,,"(6, 6)",,,,,,,,
R,U,"[5, 6]",1.0,1.0,0.2960081100463867,3.2155210971832275,0.3277846808510935,83.0,731.0,0.0
Y,R,"[5, 7]",1.0,2.0,0.29555583000183105,1.8466150760650635,0.4572468507076658,83.0,732.0,0.0
Y,R,"[5, 8]",1.0,3.0,0.20850706100463867,1.7221269607543945,0.412905856582689,83.0,733.0,0.0
G,D,"[6, 8]",1.0,4.0,0.2621040344238281,1.7074899673461914,0.33705613711108723,83.0,734.0,0.0
Y,R,"[6, 9]",1.0,5.0,0.26486897468566895,1.6143200397491455,0.251603920824046,83.0,735.0,0.0
Y,R,"[6, 10]",1.0,6.0,0.2695128917694092,1.961514949798584,0.5961007155963371,83.0,736.0,0.0
R,U,"[5, 10]",1.0,7.0,0.23119497299194336,1.8869469165802002,0.5498894453666173,83.0,737.0,0.0
R,U,"[4, 10]",1.0,8.0,0.2245349884033203,1.7074298858642578,0.3741226235143899,83.0,738.0,0.0
B,L,"[4, 9]",1.0,9.0,0.22582411766052246,1.767815113067627,0.44198297039156376,83.0,739.0,0.0
R,U,"[3, 9]",1.0,10.0,0.18909382820129395,1.9831550121307373,0.6914959854372575,83.0,740.0,0.0
,,"(6, 6)",,,,,,,,
R,U,"[5, 6]",1.0,1.0,0.44284510612487793,2.99584698677063,0.5709785063038879,84.0,741.0,0.0
Y,R,"[5, 7]",1.0,2.0,0.20644307136535645,1.5681359767913818,0.25600476946957923,84.0,742.0,0.0
Y,R,"[5, 8]",1.0,3.0,0.2323288917541504,1.9605917930603027,0.6334849194699844,84.0,743.0,0.0
G,D,"[6, 8]",1.0,4.0,0.19573283195495605,1.7529399394989014,0.4528233550168652,84.0,744.0,0.0
Y,R,"[6, 9]",1.0,5.0,0.21780705451965332,2.049238920211792,0.735061947935838,84.0,745.0,0.0
Y,R,"[6, 10]",1.0,6.0,0.23920702934265137,1.7251501083374023,0.3772880757753106,84.0,746.0,0.0
R,U,"[5, 10]",1.0,7.0,0.22373080253601074,1.906050205230713,0.5831722924272835,84.0,747.0,0.0
R,U,"[4, 10]",1.0,8.0,0.22867393493652344,1.6918091773986816,0.3586241450830043,84.0,748.0,0.0
B,L,"[4, 9]",1.0,9.0,0.22935700416564941,1.652561902999878,0.32786633162106105,84.0,749.0,0.0
R,U,"[3, 9]",1.0,10.0,0.4296741485595703,2.2720718383789062,0.7495001336928624,84.0,750.0,0.0
,,"(6, 6)",,,,,,,,
R,U,"[5, 6]",-999.0,0.0,0.3370361328125,3.5562820434570312,0.2729940272452934,85.0,751.0,-4.0
Y,R,"[5, 7]",-999.0,0.0,0.462324857711792,2.124969005584717,0.5645100915522485,85.0,752.0,-4.0
Y,R,"[5, 8]",-999.0,0.0,0.24755501747131348,1.7251369953155518,0.37310775550336056,85.0,753.0,-4.0
R,U,"[4, 8]",-999.0,0.0,0.5923798084259033,2.137998104095459,0.46074389581016667,85.0,754.0,-4.0
B,L,"[4, 7]",-999.0,0.0,0.9122240543365479,2.2755348682403564,0.2701015289534341,85.0,755.0,1.0
,,"(6, 6)",,,,,,,,
R,U,"[5, 6]",1.0,1.0,0.37325501441955566,2.9678890705108643,0.25483398378411665,86.0,756.0,0.0
Y,R,"[5, 7]",1.0,2.0,0.25583887100219727,2.004210948944092,0.6420266979738682,86.0,757.0,0.0
Y,R,"[5, 8]",1.0,3.0,0.24143195152282715,1.900399923324585,0.5590851826671679,86.0,758.0,0.0
G,D,"[6, 8]",1.0,4.0,0.23558902740478516,2.0081701278686523,0.6838685132539344,86.0,759.0,0.0
Y,R,"[6, 9]",1.0,5.0,0.21387815475463867,1.902292013168335,0.5861946769446185,86.0,760.0,0.0
,,"(6, 6)",,,,,,,,
R,U,"[5, 6]",-999.0,0.0,0.4126319885253906,3.9925220012664795,0.27891878968185796,87.0,761.0,-4.0
Y,R,"[5, 7]",-999.0,0.0,0.22507095336914062,1.732787847518921,0.4118566074364268,87.0,762.0,-4.0
Y,R,"[5, 8]",-999.0,0.0,0.25542497634887695,1.8289189338684082,0.49078295942635974,87.0,763.0,-4.0
R,U,"[4, 8]",-999.0,0.0,0.6541709899902344,2.4178969860076904,0.6750881908031947,87.0,764.0,-4.0
Y,R,"[4, 9]",-999.0,0.0,0.3956148624420166,1.842365026473999,0.35104051399763103,87.0,765.0,1.0
,,"(6, 6)",,,,,,,,
R,U,"[5, 6]",-999.0,0.0,0.4216129779815674,3.6093599796295166,0.5272320549139349,88.0,766.0,-4.0
Y,R,"[5, 7]",-999.0,0.0,0.24589204788208008,1.959583044052124,0.6196301127598319,88.0,767.0,-4.0
Y,R,"[5, 8]",-999.0,0.0,0.22698187828063965,1.8477799892425537,0.5178517990203224,88.0,768.0,-4.0
G,D,"[6, 8]",-999.0,0.0,0.3495299816131592,1.7821390628814697,0.33355710661492416,88.0,769.0,-4.0
Y,R,"[6, 9]",-999.0,0.0,0.3340120315551758,2.1046390533447266,0.671060831142323,88.0,770.0,-4.0
,,"(6, 6)",,,,,,,,
G,D,"[6, 9]",-999.0,0.0,0.8868598937988281,4.169741153717041,0.49129139389353405,89.0,771.0,-5.0
G,D,"[6, 9]",-999.0,0.0,0.4895308017730713,2.0940561294555664,0.5185969096508487,89.0,772.0,-5.0
G,D,"[6, 9]",-999.0,0.0,0.3377950191497803,1.9594800472259521,0.5280838694944148,89.0,773.0,-5.0
B,L,"[6, 9]",-999.0,0.0,0.572800874710083,2.0040299892425537,0.34899844478498504,89.0,774.0,-5.0
B,L,"[6, 9]",-999.0,0.0,0.3420419692993164,2.1684679985046387,0.7172156472495553,89.0,775.0,-5.0
R,U,"[6, 9]",-999.0,0.0,0.7806851863861084,2.2949790954589844,0.41230558346729673,89.0,776.0,-5.0
R,U,"[6, 9]",-999.0,0.0,0.42061901092529297,2.1605000495910645,0.6393368019163441,89.0,777.0,-5.0
B,L,"[6, 9]",-999.0,0.0,0.45191287994384766,1.858091115951538,0.31455148761037616,89.0,778.0,-5.0
B,L,"[6, 9]",-999.0,0.0,0.5299770832061768,2.310943126678467,0.6751504049787864,89.0,779.0,-5.0
G,D,"[7, 9]",-2.0,0.0,1.0109260082244873,2.3879029750823975,0.3467572856279428,89.0,780.0,1.0
,,"(6, 6)",,,,,,,,
R,U,"[5, 6]",1.0,1.0,0.5435729026794434,3.7063310146331787,0.7360840915321023,90.0,781.0,0.0
Y,R,"[5, 7]",1.0,2.0,0.2124619483947754,1.8192470073699951,0.5056597384116721,90.0,782.0,0.0
Y,R,"[5, 8]",1.0,3.0,0.2186570167541504,1.8741559982299805,0.563161600964238,90.0,783.0,0.0
G,D,"[6, 8]",1.0,4.0,0.24490904808044434,2.0033390522003174,0.6496561370184597,90.0,784.0,0.0
Y,R,"[6, 9]",1.0,5.0,0.22564387321472168,1.6890511512756348,0.35567854276238836,90.0,785.0,0.0
Y,R,"[6, 10]",1.0,6.0,0.2503700256347656,1.9506540298461914,0.6062699816587415,90.0,786.0,0.0
R,U,"[5, 10]",1.0,7.0,0.249298095703125,2.0166828632354736,0.6727755495178567,90.0,787.0,0.0
R,U,"[4, 10]",1.0,8.0,0.212630033493042,1.672252893447876,0.3620506216450545,90.0,788.0,0.0
B,L,"[4, 9]",1.0,9.0,0.2680361270904541,1.7854218482971191,0.43069512878586097,90.0,789.0,0.0
R,U,"[3, 9]",1.0,10.0,0.26012110710144043,2.0634429454803467,0.6940067206756486,90.0,790.0,0.0
,,"(6, 6)",,,,,,,,
R,U,"[5, 6]",-999.0,0.0,0.6721441745758057,10.321439027786255,0.6157384226260916,91.0,791.0,-4.0
Y,R,"[5, 7]",-999.0,0.0,0.36414194107055664,2.0060338973999023,0.5385586586904101,91.0,792.0,-4.0
Y,R,"[5, 8]",-999.0,0.0,0.2713320255279541,1.6841440200805664,0.3229709607056884,91.0,793.0,-4.0
G,D,"[6, 8]",-999.0,0.0,0.3267800807952881,2.152111053466797,0.724670866235734,91.0,794.0,-4.0
Y,R,"[6, 9]",-999.0,0.0,0.26799702644348145,1.6633191108703613,0.3049732951423144,91.0,795.0,-4.0
Y,R,"[6, 10]",-999.0,0.0,0.24668383598327637,2.0244228839874268,0.6791949186646368,91.0,796.0,-4.0
R,U,"[5, 10]",-999.0,0.0,0.6481490135192871,2.0927979946136475,0.3388673364065144,91.0,797.0,-4.0
R,U,"[4, 10]",-999.0,0.0,0.25205516815185547,2.0072519779205322,0.6624379191549545,91.0,798.0,-4.0
R,U,"[3, 10]",-999.0,0.0,0.2672600746154785,1.8781049251556396,0.5074831707512759,91.0,799.0,-4.0
B,L,"[3, 9]",-999.0,0.0,0.6466550827026367,2.2287590503692627,0.48632359289023863,91.0,800.0,1.0
,,"(6, 6)",,,,,,,,
R,U,"[5, 6]",1.0,1.0,0.6482369899749756,20.180583000183105,0.30073931945062143,92.0,801.0,0.0
Y,R,"[5, 7]",1.0,2.0,0.21790599822998047,1.583014965057373,0.2671584055169211,92.0,802.0,0.0
Y,R,"[5, 8]",1.0,3.0,0.21445703506469727,1.5712838172912598,0.2550467590196888,92.0,803.0,0.0
G,D,"[6, 8]",1.0,4.0,0.21896886825561523,1.6873669624328613,0.3757316644708755,92.0,804.0,0.0
Y,R,"[6, 9]",1.0,5.0,0.22012710571289062,2.0470690727233887,0.7392217104569019,92.0,805.0,0.0
Y,R,"[6, 10]",1.0,6.0,0.1855919361114502,1.7013628482818604,0.42408467592596877,92.0,806.0,0.0
R,U,"[5, 10]",1.0,7.0,0.21468400955200195,1.9326200485229492,0.6232658047836533,92.0,807.0,0.0
R,U,"[4, 10]",1.0,8.0,0.20507597923278809,1.5816609859466553,0.28867053718823527,92.0,808.0,0.0
B,L,"[4, 9]",1.0,9.0,0.23012089729309082,1.997290849685669,0.6689285993797212,92.0,809.0,0.0
R,U,"[3, 9]",-1.0,9.0,0.02968907356262207,5.661098003387451,0.496986941028619,92.0,810.0,0.0
,,"(6, 6)",,,,,,,,
R,U,"[5, 6]",1.0,1.0,0.503101110458374,2.8899199962615967,0.5702180538029873,93.0,811.0,0.0
Y,R,"[5, 7]",1.0,2.0,0.2079479694366455,1.6977479457855225,0.38414825906950717,93.0,812.0,0.0
Y,R,"[5, 8]",1.0,3.0,0.19777894020080566,1.6666619777679443,0.36825493317268676,93.0,813.0,0.0
G,D,"[6, 8]",1.0,4.0,0.2489910125732422,1.7943840026855469,0.44581481825195596,93.0,814.0,0.0
Y,R,"[6, 9]",1.0,5.0,0.2140970230102539,2.033535957336426,0.7123190981573588,93.0,815.0,0.0
Y,R,"[6, 10]",1.0,6.0,0.21080708503723145,1.6376399993896484,0.3172123626431878,93.0,816.0,0.0
R,U,"[5, 10]",1.0,7.0,0.26358509063720703,1.7091951370239258,0.3430561131466564,93.0,817.0,0.0
R,U,"[4, 10]",1.0,8.0,0.25967907905578613,2.081563949584961,0.7243010577137845,93.0,818.0,0.0
B,L,"[4, 9]",1.0,9.0,0.25232410430908203,1.638848066329956,0.29693249587355697,93.0,819.0,0.0
R,U,"[3, 9]",1.0,10.0,0.27237391471862793,2.0397610664367676,0.6530163499672895,93.0,820.0,0.0
,,"(6, 6)",,,,,,,,
R,U,"[5, 6]",1.0,1.0,0.36177897453308105,3.1612420082092285,0.39805813229052883,94.0,821.0,0.0
Y,R,"[5, 7]",1.0,2.0,0.21141910552978516,1.8731930255889893,0.5542412305231612,94.0,822.0,0.0
Y,R,"[5, 8]",1.0,3.0,0.2611517906188965,2.0456430912017822,0.6832215703520095,94.0,823.0,0.0
G,D,"[6, 8]",1.0,4.0,0.2319321632385254,1.598161220550537,0.2650655125256448,94.0,824.0,0.0
Y,R,"[6, 9]",1.0,5.0,0.2619600296020508,1.6689560413360596,0.30076105290427013,94.0,825.0,0.0
Y,R,"[6, 10]",1.0,6.0,0.25651001930236816,1.7964279651641846,0.43039789183135185,94.0,826.0,0.0
R,U,"[5, 10]",1.0,7.0,0.24659013748168945,1.657282829284668,0.30457645276976064,94.0,827.0,0.0
R,U,"[4, 10]",1.0,8.0,0.23707914352416992,1.6744859218597412,0.34562885955955397,94.0,828.0,0.0
B,L,"[4, 9]",1.0,9.0,0.1849050521850586,1.9430129528045654,0.6717158761797049,94.0,829.0,0.0
R,U,"[3, 9]",1.0,10.0,0.24603986740112305,2.0014519691467285,0.6563990916935645,94.0,830.0,0.0
,,"(6, 6)",,,,,,,,
R,U,"[5, 6]",1.0,1.0,0.6771471500396729,4.129925966262817,0.6865733938055243,95.0,831.0,0.0
Y,R,"[5, 7]",1.0,2.0,0.22186017036437988,1.9083619117736816,0.5781843236188777,95.0,832.0,0.0
Y,R,"[5, 8]",1.0,3.0,0.2158510684967041,2.019282102584839,0.7140380889575757,95.0,833.0,0.0
G,D,"[6, 8]",1.0,4.0,0.26490092277526855,1.8110990524291992,0.442109869287512,95.0,834.0,0.0
Y,R,"[6, 9]",1.0,5.0,0.26500487327575684,1.757249116897583,0.399477921184114,95.0,835.0,0.0
Y,R,"[6, 10]",1.0,6.0,0.2799410820007324,2.1168370246887207,0.7325956664173039,95.0,836.0,0.0
R,U,"[5, 10]",1.0,7.0,0.2808680534362793,1.9636499881744385,0.5797223539699438,95.0,837.0,0.0
R,U,"[4, 10]",1.0,8.0,0.2050020694732666,1.771493911743164,0.45146959408189224,95.0,838.0,0.0
B,L,"[4, 9]",1.0,9.0,0.2052299976348877,2.0325300693511963,0.7337671717769324,95.0,839.0,0.0
R,U,"[3, 9]",1.0,10.0,0.21993207931518555,1.9564669132232666,0.6404376287672071,95.0,840.0,0.0
,,"(6, 6)",,,,,,,,
R,U,"[5, 6]",-999.0,0.0,0.43049192428588867,3.1389880180358887,0.3631729137711305,96.0,841.0,-4.0
Y,R,"[5, 7]",-999.0,0.0,0.2937488555908203,1.7620999813079834,0.35862533036042316,96.0,842.0,-4.0
Y,R,"[5, 8]",-999.0,0.0,0.22345900535583496,1.6436409950256348,0.33566393212453804,96.0,843.0,-4.0
G,D,"[6, 8]",-999.0,0.0,0.343425989151001,1.768428087234497,0.3206638056450235,96.0,844.0,-4.0
Y,R,"[6, 9]",-999.0,0.0,0.2723839282989502,1.8222270011901855,0.4595086097687911,96.0,845.0,-4.0
Y,R,"[6, 10]",-999.0,0.0,0.22801613807678223,1.7482311725616455,0.42453376051515895,96.0,846.0,-4.0
R,U,"[5, 10]",-999.0,0.0,0.3242931365966797,2.0442800521850586,0.6352166928317241,96.0,847.0,-4.0
R,U,"[4, 10]",-999.0,0.0,0.2773158550262451,1.9071261882781982,0.525718206618538,96.0,848.0,-4.0
R,U,"[3, 10]",-999.0,0.0,0.5562448501586914,2.0615549087524414,0.4208069730467433,96.0,849.0,-4.0
B,L,"[3, 9]",-999.0,0.0,0.3526029586791992,2.0607171058654785,0.6146116857673378,96.0,850.0,1.0
,,"(6, 6)",,,,,,,,
G,D,"[3, 9]",-999.0,0.0,0.8334188461303711,3.6862590312957764,0.5678205697562562,97.0,851.0,-5.0
G,D,"[3, 9]",-999.0,0.0,0.26181983947753906,1.77829909324646,0.4128274160578554,97.0,852.0,-5.0
G,D,"[3, 9]",-999.0,0.0,0.3266630172729492,1.7946038246154785,0.35751375090877796,97.0,853.0,-5.0
B,L,"[3, 9]",-999.0,0.0,0.27837395668029785,2.0351579189300537,0.6591022653707417,97.0,854.0,-5.0
B,L,"[3, 9]",-999.0,0.0,0.29513001441955566,2.0927340984344482,0.7020162704579677,97.0,855.0,-5.0
R,U,"[3, 9]",-999.0,0.0,0.4500770568847656,2.2673439979553223,0.7191902410222675,97.0,856.0,-5.0
R,U,"[3, 9]",-999.0,0.0,0.36449384689331055,1.7575929164886475,0.2938803444283023,97.0,857.0,-5.0
B,L,"[3, 9]",-999.0,0.0,0.7745559215545654,2.141587018966675,0.28555736511704966,97.0,858.0,-5.0
B,L,"[3, 9]",-999.0,0.0,0.6716220378875732,2.3424429893493652,0.5777654334664362,97.0,859.0,-5.0
R,U,"[2, 9]",-999.0,0.0,0.4153330326080322,1.7714247703552246,0.266129439015807,97.0,860.0,1.0
,,"(6, 6)",,,,,,,,
G,D,"[2, 9]",-999.0,0.0,0.8325250148773193,6.1056060791015625,0.4050188214856232,98.0,861.0,-5.0
G,D,"[2, 9]",-999.0,0.0,0.41823387145996094,2.048574924468994,0.5368540103040922,98.0,862.0,-5.0
G,D,"[2, 9]",-999.0,0.0,0.2621631622314453,2.0294179916381836,0.6661604634262457,98.0,863.0,-5.0
B,L,"[2, 9]",-999.0,0.0,0.32199692726135254,2.080501079559326,0.6634051611370618,98.0,864.0,-5.0
B,L,"[2, 9]",-999.0,0.0,0.27397799491882324,2.071319103240967,0.7012927876382433,98.0,865.0,-5.0
R,U,"[2, 9]",-999.0,0.0,0.34222912788391113,1.7225430011749268,0.29092846146369117,98.0,866.0,-5.0
R,U,"[2, 9]",-999.0,0.0,0.6156320571899414,2.289802074432373,0.5803321011347653,98.0,867.0,-5.0
B,L,"[2, 9]",-999.0,0.0,0.7419888973236084,2.238085985183716,0.36884087817173133,98.0,868.0,-5.0
B,L,"[2, 9]",-999.0,0.0,0.3074300289154053,1.8318359851837158,0.43397959943590225,98.0,869.0,-5.0
Y,R,"[2, 10]",-999.0,0.0,0.8160419464111328,2.184178113937378,0.26845059368772195,98.0,870.0,1.0
,,"(6, 6)",,,,,,,,
G,D,"[2, 10]",-999.0,0.0,0.9287221431732178,4.786427974700928,0.7043854388628861,99.0,871.0,-5.0
G,D,"[2, 10]",-999.0,0.0,0.482867956161499,1.87910795211792,0.3006463798419101,99.0,872.0,-5.0
G,D,"[2, 10]",-999.0,0.0,0.7094287872314453,2.13918399810791,0.323119262314238,99.0,873.0,-5.0
B,L,"[2, 10]",-999.0,0.0,0.5890119075775146,2.3577239513397217,0.6804376322978914,99.0,874.0,-5.0
B,L,"[2, 10]",-999.0,0.0,0.29157519340515137,2.0314741134643555,0.6454724123287846,99.0,875.0,-5.0
R,U,"[2, 10]",-2.0,0.0,1.5973260402679443,3.04603910446167,0.40848966710102724,99.0,876.0,-5.0
R,U,"[2, 10]",-999.0,0.0,0.3370630741119385,1.716482162475586,0.2917953947659023,99.0,877.0,-5.0
B,L,"[2, 10]",-999.0,0.0,0.8766419887542725,2.504676103591919,0.5295402788833019,99.0,878.0,-5.0
B,L,"[2, 10]",-999.0,0.0,0.4293370246887207,2.099040985107422,0.5618466225456689,99.0,879.0,-5.0
Y,R,"[2, 11]",-999.0,0.0,0.7682430744171143,2.3345329761505127,0.4633208763209643,99.0,880.0,1.0
,,"(6, 6)",,,,,,,,
R,U,"[5, 6]",1.0,1.0,0.37891483306884766,3.8246729373931885,0.6710157107158805,100.0,881.0,0.0
Y,R,"[5, 7]",1.0,2.0,0.23008298873901367,1.61427903175354,0.2858709222890368,100.0,882.0,0.0
Y,R,"[5, 8]",1.0,3.0,0.2874579429626465,1.7279090881347656,0.33035643601103104,100.0,883.0,0.0
G,D,"[6, 8]",1.0,4.0,0.24031591415405273,1.8308930397033691,0.4778384112312509,100.0,884.0,0.0
Y,R,"[6, 9]",1.0,5.0,0.22156405448913574,1.7496061325073242,0.4441340888647679,100.0,885.0,0.0
Y,R,"[6, 10]",1.0,6.0,0.20769214630126953,1.6258840560913086,0.3202042383369806,100.0,886.0,0.0
R,U,"[5, 10]",1.0,7.0,0.23518109321594238,2.064065933227539,0.7338053171693626,100.0,887.0,0.0
R,U,"[4, 10]",1.0,8.0,0.2447071075439453,1.8004701137542725,0.45117640014240823,100.0,888.0,0.0
B,L,"[4, 9]",1.0,9.0,0.2505970001220703,1.8908331394195557,0.5421238499796499,100.0,889.0,0.0
R,U,"[3, 9]",1.0,10.0,0.28183603286743164,1.8586421012878418,0.484167439451015,100.0,890.0,0.0
,,"(6, 6)",,,,,,,,
R,U,"[5, 6]",1.0,1.0,0.2928588390350342,8.90906310081482,0.7262449491658397,101.0,891.0,0.0
Y,R,"[5, 7]",1.0,2.0,0.1985318660736084,1.911125898361206,0.6208254278388949,101.0,892.0,0.0
Y,R,"[5, 8]",1.0,3.0,0.22341203689575195,2.0212790966033936,0.6920542217834259,101.0,893.0,0.0
G,D,"[6, 8]",1.0,4.0,0.22552990913391113,2.0337839126586914,0.7092697202029261,101.0,894.0,0.0
Y,R,"[6, 9]",1.0,5.0,0.23491382598876953,1.9302918910980225,0.6063981642560586,101.0,895.0,0.0
Y,R,"[6, 10]",1.0,6.0,0.21802902221679688,2.040226936340332,0.729933201927449,101.0,896.0,0.0
R,U,"[5, 10]",1.0,7.0,0.2348320484161377,2.038735866546631,0.702023325620931,101.0,897.0,0.0
R,U,"[4, 10]",1.0,8.0,0.20692205429077148,1.78593111038208,0.47146200214419626,101.0,898.0,0.0
B,L,"[4, 9]",1.0,9.0,0.2282869815826416,1.9319350719451904,0.6034340123753343,101.0,899.0,0.0
R,U,"[3, 9]",1.0,10.0,0.2796671390533447,2.097581148147583,0.7175907441196647,101.0,900.0,0.0
,,"(6, 6)",,,,,,,,
R,U,"[5, 6]",1.0,1.0,0.25462913513183594,8.916889905929565,0.33500288444977794,102.0,901.0,0.0
Y,R,"[5, 7]",1.0,2.0,0.2026529312133789,1.970181941986084,0.6716209933811018,102.0,902.0,0.0
Y,R,"[5, 8]",1.0,3.0,0.22727108001708984,1.6090898513793945,0.28105512925866083,102.0,903.0,0.0
G,D,"[6, 8]",1.0,4.0,0.22671103477478027,1.8666448593139648,0.5308024152462574,102.0,904.0,0.0
Y,R,"[6, 9]",1.0,5.0,0.20122504234313965,1.6058390140533447,0.30358740954730035,102.0,905.0,0.0
Y,R,"[6, 10]",1.0,6.0,0.22124004364013672,1.777662992477417,0.4311094611440347,102.0,906.0,0.0
R,U,"[5, 10]",1.0,7.0,0.20972585678100586,1.6769890785217285,0.3582171710099006,102.0,907.0,0.0
R,U,"[4, 10]",1.0,8.0,0.2428898811340332,1.7703251838684082,0.4284568005728133,102.0,908.0,0.0
B,L,"[4, 9]",1.0,9.0,0.18424606323242188,1.9759759902954102,0.7039995028795469,102.0,909.0,0.0
R,U,"[3, 9]",1.0,10.0,0.3666820526123047,1.8901138305664062,0.4280111990013205,102.0,910.0,0.0
,,"(6, 6)",,,,,,,,
R,U,"[5, 6]",1.0,1.0,0.3017449378967285,3.1812078952789307,0.4757073154100772,103.0,911.0,0.0
Y,R,"[5, 7]",1.0,2.0,0.23455119132995605,1.758206844329834,0.43400335741104606,103.0,912.0,0.0
Y,R,"[5, 8]",1.0,3.0,0.19406485557556152,1.7636590003967285,0.4643689915497352,103.0,913.0,0.0
G,D,"[6, 8]",1.0,4.0,0.2273421287536621,1.8993890285491943,0.5636785044646186,103.0,914.0,0.0
Y,R,"[6, 9]",1.0,5.0,0.22732901573181152,1.9044928550720215,0.5681566321757897,103.0,915.0,0.0
Y,R,"[6, 10]",1.0,6.0,0.20952415466308594,1.9560987949371338,0.6407415737930047,103.0,916.0,0.0
R,U,"[5, 10]",1.0,7.0,0.20738005638122559,1.882904052734375,0.5738808826667363,103.0,917.0,0.0
R,U,"[4, 10]",1.0,8.0,0.21140003204345703,1.7304069995880127,0.4213110925828554,103.0,918.0,0.0
B,L,"[4, 9]",1.0,9.0,0.22338008880615234,1.9001891613006592,0.5711694808940149,103.0,919.0,0.0
R,U,"[3, 9]",1.0,10.0,0.19635581970214844,1.9979500770568848,0.7023708264598663,103.0,920.0,0.0
,,"(6, 6)",,,,,,,,
R,U,"[5, 6]",1.0,1.0,0.49219298362731934,4.006169080734253,0.5420898691167895,104.0,921.0,0.0
Y,R,"[5, 7]",1.0,2.0,0.21720290184020996,1.9311339855194092,0.6232173488817712,104.0,922.0,0.0
Y,R,"[5, 8]",1.0,3.0,0.409757137298584,2.1815528869628906,0.6715390592801112,104.0,923.0,0.0
G,D,"[6, 8]",1.0,4.0,0.2458360195159912,1.927584171295166,0.5824375943432245,104.0,924.0,0.0
Y,R,"[6, 9]",1.0,5.0,0.20624113082885742,1.643707036972046,0.3264490589808695,104.0,925.0,0.0
Y,R,"[6, 10]",1.0,6.0,0.2931480407714844,2.1300930976867676,0.7394666723033756,104.0,926.0,0.0
R,U,"[5, 10]",1.0,7.0,0.2989509105682373,2.135996103286743,0.742091318759696,104.0,927.0,0.0
R,U,"[4, 10]",1.0,8.0,0.2365100383758545,1.7074041366577148,0.38346504233067036,104.0,928.0,0.0
B,L,"[4, 9]",1.0,9.0,0.26496410369873047,1.94657301902771,0.5798209816471622,104.0,929.0,0.0
R,U,"[3, 9]",-1.0,9.0,0.06825709342956543,5.471930027008057,0.2686694713590712,104.0,930.0,0.0
,,"(6, 6)",,,,,,,,
R,U,"[5, 6]",1.0,1.0,0.549307107925415,4.354611873626709,0.34003425789456027,105.0,931.0,0.0
Y,R,"[5, 7]",1.0,2.0,0.22488689422607422,1.8076879978179932,0.48081457232626085,105.0,932.0,0.0
Y,R,"[5, 8]",1.0,3.0,0.7612559795379639,2.3855228424072266,0.5164520413913501,105.0,933.0,0.0
G,D,"[6, 8]",1.0,4.0,0.2497880458831787,1.8690638542175293,0.5187846461010296,105.0,934.0,0.0
Y,R,"[6, 9]",1.0,5.0,0.2112131118774414,1.8669769763946533,0.5524011158920976,105.0,935.0,0.0
Y,R,"[6, 10]",1.0,6.0,0.2619638442993164,1.9227910041809082,0.5585292233091087,105.0,936.0,0.0
R,U,"[5, 10]",1.0,7.0,0.23406100273132324,1.6371190547943115,0.3126668139636825,105.0,937.0,0.0
R,U,"[4, 10]",1.0,8.0,0.27290797233581543,1.6974561214447021,0.2935370181134967,105.0,938.0,0.0
B,L,"[4, 9]",1.0,9.0,0.21373605728149414,1.7998950481414795,0.4932593390502974,105.0,939.0,0.0
R,U,"[3, 9]",1.0,10.0,0.24385309219360352,2.0264229774475098,0.6860852291947209,105.0,940.0,0.0
,,"(6, 6)",,,,,,,,
R,U,"[5, 6]",1.0,1.0,0.4816620349884033,3.4576339721679688,0.6104864482586083,106.0,941.0,0.0
Y,R,"[5, 7]",1.0,2.0,0.20383596420288086,1.8852789402008057,0.5958646913829652,106.0,942.0,0.0
Y,R,"[5, 8]",1.0,3.0,0.19595813751220703,1.6075289249420166,0.30381564852286586,106.0,943.0,0.0
G,D,"[6, 8]",1.0,4.0,0.2565310001373291,2.037191867828369,0.6739271797581923,106.0,944.0,0.0
Y,R,"[6, 9]",1.0,5.0,0.238508939743042,1.655655860900879,0.313281052331325,106.0,945.0,0.0
Y,R,"[6, 10]",1.0,6.0,0.2371668815612793,1.8246288299560547,0.4875873108690271,106.0,946.0,0.0
R,U,"[5, 10]",1.0,7.0,0.25388503074645996,1.6180720329284668,0.27283424955145663,106.0,947.0,0.0
R,U,"[4, 10]",1.0,8.0,0.2929391860961914,1.8755919933319092,0.481422696548873,106.0,948.0,0.0
B,L,"[4, 9]",1.0,9.0,0.2303941249847412,1.8483779430389404,0.5131651729581219,106.0,949.0,0.0
R,U,"[3, 9]",1.0,10.0,0.2015979290008545,1.7568280696868896,0.45340301558934537,106.0,950.0,0.0
,,"(6, 6)",,,,,,,,
R,U,"[5, 6]",1.0,1.0,0.5990030765533447,3.3366429805755615,0.32356023385827665,107.0,951.0,0.0
Y,R,"[5, 7]",1.0,2.0,0.16148996353149414,1.544847011566162,0.2851150171490364,107.0,952.0,0.0
Y,R,"[5, 8]",1.0,3.0,0.2914409637451172,1.8484001159667969,0.450070469780891,107.0,953.0,0.0
G,D,"[6, 8]",1.0,4.0,0.14553093910217285,1.7622730731964111,0.5122403134096547,107.0,954.0,0.0
Y,R,"[6, 9]",1.0,5.0,0.27240490913391113,1.6753511428833008,0.30462787200478947,107.0,955.0,0.0
Y,R,"[6, 10]",1.0,6.0,0.3388519287109375,1.7646100521087646,0.3191582684771838,107.0,956.0,0.0
R,U,"[5, 10]",1.0,7.0,0.27371907234191895,2.075613021850586,0.6944300404174959,107.0,957.0,0.0
R,U,"[4, 10]",1.0,8.0,0.24902105331420898,1.9007740020751953,0.5619696649399539,107.0,958.0,0.0
B,L,"[4, 9]",1.0,9.0,0.21733379364013672,1.7737770080566406,0.4693099931637967,107.0,959.0,0.0
R,U,"[3, 9]",1.0,10.0,0.21782207489013672,1.9389960765838623,0.6249159819025649,107.0,960.0,0.0
,,"(6, 6)",,,,,,,,
R,U,"[5, 6]",1.0,1.0,0.3264598846435547,3.5721161365509033,0.5304643321180005,108.0,961.0,0.0
Y,R,"[5, 7]",1.0,2.0,0.18750214576721191,1.6988489627838135,0.4126976704147953,108.0,962.0,0.0
Y,R,"[5, 8]",1.0,3.0,0.34651899337768555,1.9144580364227295,0.4439760991334451,108.0,963.0,0.0
G,D,"[6, 8]",1.0,4.0,0.19698691368103027,1.566014051437378,0.2768328578041574,108.0,964.0,0.0
Y,R,"[6, 9]",1.0,5.0,0.23484396934509277,1.6811139583587646,0.3578766989067875,108.0,965.0,0.0
Y,R,"[6, 10]",1.0,6.0,0.2555680274963379,1.9801840782165527,0.6210313502651938,108.0,966.0,0.0
R,U,"[5, 10]",1.0,7.0,0.2257688045501709,1.7924249172210693,0.48030724509734485,108.0,967.0,0.0
R,U,"[4, 10]",1.0,8.0,0.23051190376281738,2.0374398231506348,0.7002745765316388,108.0,968.0,0.0
B,L,"[4, 9]",1.0,9.0,0.21950292587280273,1.9952988624572754,0.6796474694312934,108.0,969.0,0.0
R,U,"[3, 9]",1.0,10.0,0.21935796737670898,1.9932498931884766,0.6729260518753081,108.0,970.0,0.0
,,"(6, 6)",,,,,,,,
R,U,"[5, 6]",1.0,1.0,0.3507061004638672,3.9649808406829834,0.6878588796530255,109.0,971.0,0.0
Y,R,"[5, 7]",-1.0,1.0,0.07496786117553711,5.91674280166626,0.7045287101181974,109.0,972.0,0.0
Y,R,"[5, 8]",1.0,2.0,0.24303317070007324,2.08931303024292,0.7439030793318953,109.0,973.0,0.0
G,D,"[6, 8]",1.0,3.0,0.22578001022338867,2.025658130645752,0.7030243808780217,109.0,974.0,0.0
Y,R,"[6, 9]",1.0,4.0,0.22527408599853516,1.9026529788970947,0.572479261001719,109.0,975.0,0.0
Y,R,"[6, 10]",1.0,5.0,0.27738094329833984,1.8166530132293701,0.4392176722316103,109.0,976.0,0.0
R,U,"[5, 10]",1.0,6.0,0.23876619338989258,1.8549129962921143,0.5108294287400219,109.0,977.0,0.0
R,U,"[4, 10]",1.0,7.0,0.23816990852355957,1.603085994720459,0.2808608077134111,109.0,978.0,0.0
B,L,"[4, 9]",1.0,8.0,0.24412298202514648,1.7913610935211182,0.43863761427323134,109.0,979.0,0.0
R,U,"[3, 9]",1.0,9.0,0.23981380462646484,1.8524610996246338,0.507850565105578,109.0,980.0,0.0
,,"(6, 6)",,,,,,,,
R,U,"[5, 6]",1.0,1.0,0.3485908508300781,3.5067989826202393,0.6313501706592651,110.0,981.0,0.0
Y,R,"[5, 7]",1.0,2.0,0.5614359378814697,2.196197032928467,0.5276355369019662,110.0,982.0,0.0
Y,R,"[5, 8]",1.0,3.0,0.26707911491394043,1.9552040100097656,0.5999121127910743,110.0,983.0,0.0
G,D,"[6, 8]",1.0,4.0,0.21445989608764648,1.7500059604644775,0.4329986206827962,110.0,984.0,0.0
Y,R,"[6, 9]",1.0,5.0,0.21883416175842285,2.051271915435791,0.7339094281733254,110.0,985.0,0.0
Y,R,"[6, 10]",1.0,6.0,0.6211850643157959,1.9841539859771729,0.2519508592999209,110.0,986.0,0.0
R,U,"[5, 10]",1.0,7.0,0.6384890079498291,2.043760061264038,0.31249061227634806,110.0,987.0,0.0
R,U,"[4, 10]",1.0,8.0,0.2652130126953125,1.790410041809082,0.4360609425630394,110.0,988.0,0.0
B,L,"[4, 9]",1.0,9.0,0.1974658966064453,1.8718597888946533,0.5743498400791252,110.0,989.0,0.0
R,U,"[3, 9]",1.0,10.0,0.23661398887634277,1.5899128913879395,0.26471710059892406,110.0,990.0,0.0
,,"(6, 6)",,,,,,,,
R,U,"[5, 6]",1.0,1.0,0.19920706748962402,3.227797031402588,0.6587174163284535,111.0,991.0,0.0
Y,R,"[5, 7]",1.0,2.0,0.20212984085083008,1.6316499710083008,0.34082350580459947,111.0,992.0,0.0
Y,R,"[5, 8]",1.0,3.0,0.2118840217590332,1.941452980041504,0.6322761208828678,111.0,993.0,0.0
G,D,"[6, 8]",1.0,4.0,0.1803741455078125,1.57704496383667,0.29252114754498015,111.0,994.0,0.0
Y,R,"[6, 9]",1.0,5.0,0.21667885780334473,1.7185029983520508,0.4110358992259791,111.0,995.0,0.0
Y,R,"[6, 10]",1.0,6.0,0.21011805534362793,1.7692639827728271,0.48038553647351795,111.0,996.0,0.0
R,U,"[5, 10]",1.0,7.0,0.20849895477294922,1.6654000282287598,0.3459089478794105,111.0,997.0,0.0
R,U,"[4, 10]",1.0,8.0,0.2304379940032959,1.7141249179840088,0.39333176864107305,111.0,998.0,0.0
B,L,"[4, 9]",1.0,9.0,0.22416996955871582,1.6608178615570068,0.33763092546106216,111.0,999.0,0.0
R,U,"[3, 9]",1.0,10.0,0.26195287704467773,1.6778619289398193,0.31553429491793533,111.0,1000.0,0.0
