button_choice,action_choice,coordinate_choice,reward,cumulative_reward,rt,total_trial_time,iti,block_n,trial_n,trial_type
Y,R,"[6, 7]",0.0,0.0,0.3578150272369385,1.633742094039917,0.2515641396872258,0.0,1.0,0.0
R,U,"[5, 7]",1.0,1.0,0.30484485626220703,2.0035300254821777,0.7046064898785795,0.0,2.0,0.0
Y,R,"[5, 8]",1.0,2.0,0.19488883018493652,1.4871749877929688,0.29210358827947014,0.0,3.0,0.0
Y,R,"[5, 9]",0.0,2.0,0.4976038932800293,2.071280002593994,0.5799217402329441,0.0,4.0,0.0
Y,R,"[5, 10]",1.0,3.0,0.4529449939727783,1.7169301509857178,0.2636044445949181,0.0,5.0,0.0
Y,R,"[5, 11]",0.0,3.0,0.5122630596160889,1.9446680545806885,0.42469163269588517,0.0,6.0,0.0
R,U,"[4, 11]",0.0,3.0,0.3251149654388428,1.636387825012207,0.3111991538813444,0.0,7.0,0.0
R,U,"[3, 11]",0.0,3.0,0.3698761463165283,1.8931939601898193,0.5374931372111469,0.0,8.0,0.0
R,U,"[2, 11]",0.0,3.0,0.2725210189819336,1.7931971549987793,0.5139867515900034,0.0,9.0,0.0
B,L,"[2, 10]",0.0,3.0,0.9310429096221924,2.5581181049346924,0.6219435575758376,0.0,10.0,0.0
,,"(6, 6)",,,,,,,,
R,U,"[5, 6]",1.0,1.0,0.7232160568237305,5.8687169551849365,0.7070506293694447,1.0,11.0,0.0
Y,R,"[5, 7]",1.0,2.0,0.2058718204498291,1.895442008972168,0.6860863947547384,1.0,12.0,0.0
Y,R,"[5, 8]",1.0,3.0,0.3118128776550293,1.7875239849090576,0.47351982495722245,1.0,13.0,0.0
G,D,"[6, 8]",1.0,4.0,0.5654611587524414,2.2923779487609863,0.7322484580505619,1.0,14.0,0.0
Y,R,"[6, 9]",1.0,5.0,0.26146697998046875,1.7242858409881592,0.4568084995640819,1.0,15.0,0.0
Y,R,"[6, 10]",1.0,6.0,0.39585208892822266,1.9896800518035889,0.5963134861943937,1.0,16.0,0.0
R,U,"[5, 10]",1.0,7.0,0.2790560722351074,1.7076969146728516,0.4207986435099282,1.0,17.0,0.0
R,U,"[4, 10]",1.0,8.0,0.33870506286621094,1.7583198547363281,0.4290100826158743,1.0,18.0,0.0
B,L,"[4, 9]",1.0,9.0,0.32012319564819336,1.6622810363769531,0.3413286677670166,1.0,19.0,0.0
R,U,"[3, 9]",1.0,10.0,0.42913293838500977,1.9970290660858154,0.5714510959645418,1.0,20.0,0.0
,,"(6, 6)",,,,,,,,
R,U,"[5, 6]",1.0,1.0,0.6937899589538574,5.617532968521118,0.47220794049407755,2.0,21.0,0.0
Y,R,"[5, 7]",1.0,2.0,0.21433377265930176,1.7230260372161865,0.5118866845269174,2.0,22.0,0.0
Y,R,"[5, 8]",1.0,3.0,0.33126115798950195,1.8210859298706055,0.4996244697874172,2.0,23.0,0.0
G,D,"[6, 8]",1.0,4.0,0.36634087562561035,2.082115888595581,0.7148263163463888,2.0,24.0,0.0
Y,R,"[6, 9]",1.0,5.0,0.2460179328918457,1.5803780555725098,0.32886188123759624,2.0,25.0,0.0
Y,R,"[6, 10]",1.0,6.0,0.3076779842376709,1.5921111106872559,0.27104598400793234,2.0,26.0,0.0
R,U,"[5, 10]",1.0,7.0,0.5583188533782959,2.2989559173583984,0.7365856248750777,2.0,27.0,0.0
R,U,"[4, 10]",1.0,8.0,0.1592409610748291,1.5175039768218994,0.35396811094438513,2.0,28.0,0.0
B,L,"[4, 9]",1.0,9.0,0.5076100826263428,1.9167430400848389,0.4038506293554807,2.0,29.0,0.0
R,U,"[3, 9]",1.0,10.0,0.40335702896118164,1.8745689392089844,0.47840279600376767,2.0,30.0,0.0
,,"(6, 6)",,,,,,,,
R,U,"[5, 6]",1.0,1.0,0.6556801795959473,3.998370885848999,0.6764228470535734,3.0,31.0,0.0
Y,R,"[5, 7]",1.0,2.0,0.17522406578063965,1.7489509582519531,0.575539976291175,3.0,32.0,0.0
Y,R,"[5, 8]",1.0,3.0,0.38144588470458984,1.6419661045074463,0.26765141245884955,3.0,33.0,0.0
G,D,"[6, 8]",1.0,4.0,0.5472409725189209,1.9321608543395996,0.38295454069896695,3.0,34.0,0.0
Y,R,"[6, 9]",1.0,5.0,0.5078890323638916,2.075453042984009,0.5582925117658639,3.0,35.0,0.0
Y,R,"[6, 10]",1.0,6.0,0.3031749725341797,1.8019731044769287,0.5102292617765506,3.0,36.0,0.0
R,U,"[5, 10]",1.0,7.0,0.4291558265686035,1.9603300094604492,0.5371127298860663,3.0,37.0,0.0
R,U,"[4, 10]",1.0,8.0,0.5684859752655029,1.9872581958770752,0.4245739613684221,3.0,38.0,0.0
B,L,"[4, 9]",1.0,9.0,0.4274730682373047,1.8438010215759277,0.4182751560938842,3.0,39.0,0.0
R,U,"[3, 9]",1.0,10.0,0.4400959014892578,1.962296962738037,0.5303266258567734,3.0,40.0,0.0
,,"(6, 6)",,,,,,,,
R,U,"[5, 6]",1.0,1.0,0.8854110240936279,3.14284086227417,0.4898884484241335,4.0,41.0,0.0
Y,R,"[5, 7]",1.0,2.0,0.33319997787475586,1.854675054550171,0.5277542058071321,4.0,42.0,0.0
Y,R,"[5, 8]",1.0,3.0,0.30041003227233887,1.8027050495147705,0.5137842534059969,4.0,43.0,0.0
G,D,"[6, 8]",1.0,4.0,0.24272894859313965,1.7349770069122314,0.48217207553096386,4.0,44.0,0.0
Y,R,"[6, 9]",1.0,5.0,0.360065221786499,1.818882942199707,0.4510855922136986,4.0,45.0,0.0
Y,R,"[6, 10]",1.0,6.0,0.258450984954834,1.7186400890350342,0.45286941708860584,4.0,46.0,0.0
R,U,"[5, 10]",-2.0,6.0,1.1487250328063965,2.8230080604553223,0.7089680855697713,4.0,47.0,0.0
R,U,"[4, 10]",1.0,7.0,0.31797099113464355,1.9124879837036133,0.6048095070574722,4.0,48.0,0.0
B,L,"[4, 9]",1.0,8.0,0.2523329257965088,1.686173915863037,0.44141178618567245,4.0,49.0,0.0
R,U,"[3, 9]",1.0,9.0,0.4009559154510498,2.0356621742248535,0.6431833121527475,4.0,50.0,0.0
,,"(6, 6)",,,,,,,,
R,U,"[5, 6]",1.0,1.0,0.4425201416015625,4.406524181365967,0.33330734667833745,5.0,51.0,0.0
Y,R,"[5, 7]",1.0,2.0,0.35985589027404785,1.9893360137939453,0.6223285520856654,5.0,52.0,0.0
Y,R,"[5, 8]",1.0,3.0,0.32460498809814453,1.9510581493377686,0.6233300330481735,5.0,53.0,0.0
G,D,"[6, 8]",1.0,4.0,0.26459598541259766,1.8211491107940674,0.5611571105207951,5.0,54.0,0.0
Y,R,"[6, 9]",1.0,5.0,0.35892391204833984,1.6360969543457031,0.280840400395835,5.0,55.0,0.0
Y,R,"[6, 10]",1.0,6.0,0.3561739921569824,1.758552074432373,0.38916424448297987,5.0,56.0,0.0
R,U,"[5, 10]",1.0,7.0,0.6859290599822998,1.936913013458252,0.25941145267894344,5.0,57.0,0.0
R,U,"[4, 10]",1.0,8.0,0.47759389877319336,1.7964348793029785,0.32255708301167413,5.0,58.0,0.0
B,L,"[4, 9]",1.0,9.0,0.49654293060302734,2.1334400177001953,0.639313874523944,5.0,59.0,0.0
R,U,"[3, 9]",1.0,10.0,0.2795701026916504,1.6729300022125244,0.3953474763488069,5.0,60.0,0.0
,,"(6, 6)",,,,,,,,
R,U,"[5, 6]",1.0,1.0,0.3517570495605469,5.332489013671875,0.6608724270082889,6.0,61.0,0.0
Y,R,"[5, 7]",1.0,2.0,0.20409822463989258,1.8376810550689697,0.6484564746337709,6.0,62.0,0.0
Y,R,"[5, 8]",1.0,3.0,0.4331209659576416,1.8614370822906494,0.42685035717439707,6.0,63.0,0.0
G,D,"[6, 8]",1.0,4.0,0.3862791061401367,1.8864729404449463,0.5131457826301087,6.0,64.0,0.0
Y,R,"[6, 9]",1.0,5.0,0.4691309928894043,1.977674961090088,0.507444086224049,6.0,65.0,0.0
Y,R,"[6, 10]",1.0,6.0,0.5294361114501953,1.9513640403747559,0.42552171355766427,6.0,66.0,0.0
R,U,"[5, 10]",1.0,7.0,0.4103579521179199,1.7329339981079102,0.325128643246041,6.0,67.0,0.0
R,U,"[4, 10]",1.0,8.0,0.3131229877471924,1.7626550197601318,0.4543419427192029,6.0,68.0,0.0
B,L,"[4, 9]",1.0,9.0,0.37942004203796387,2.120558977127075,0.741470032313537,6.0,69.0,0.0
R,U,"[3, 9]",1.0,10.0,0.2837350368499756,1.749150037765503,0.47401185908537014,6.0,70.0,0.0
,,"(6, 6)",,,,,,,,
Y,R,"[6, 7]",0.0,0.0,0.7339122295379639,4.2490551471710205,0.6559765894441315,7.0,71.0,0.0
Y,R,"[6, 8]",1.0,1.0,0.44667816162109375,1.8550879955291748,0.4112326125227058,7.0,72.0,0.0
Y,R,"[6, 9]",1.0,2.0,0.5387558937072754,1.8474478721618652,0.3255358371941534,7.0,73.0,0.0
G,D,"[7, 9]",0.0,2.0,0.48263096809387207,2.2053890228271484,0.7304799758340028,7.0,74.0,0.0
Y,R,"[7, 10]",0.0,2.0,0.18602299690246582,1.4603221416473389,0.2745329417942007,7.0,75.0,0.0
Y,R,"[7, 11]",0.0,2.0,0.38707590103149414,1.9641048908233643,0.5882585262393574,7.0,76.0,0.0
R,U,"[6, 11]",0.0,2.0,0.8534951210021973,2.2241718769073486,0.37928644061805594,7.0,77.0,0.0
B,L,"[6, 10]",1.0,3.0,0.46396613121032715,1.7869060039520264,0.31627688211405813,7.0,78.0,0.0
R,U,"[5, 10]",1.0,4.0,0.5479509830474854,1.8513069152832031,0.3007974171250216,7.0,79.0,0.0
R,U,"[4, 10]",1.0,5.0,0.31455302238464355,1.6591968536376953,0.34333945405473004,7.0,80.0,0.0
,,"(6, 6)",,,,,,,,
R,U,"[5, 6]",1.0,1.0,0.4645090103149414,4.48063588142395,0.6568655042842654,8.0,81.0,0.0
Y,R,"[5, 7]",1.0,2.0,0.2731509208679199,1.5438830852508545,0.2677225126287241,8.0,82.0,0.0
Y,R,"[5, 8]",1.0,3.0,0.41545796394348145,1.7028911113739014,0.287289726291701,8.0,83.0,0.0
G,D,"[6, 8]",1.0,4.0,0.5231518745422363,2.1547820568084717,0.6415821277859595,8.0,84.0,0.0
Y,R,"[6, 9]",1.0,5.0,0.2351529598236084,1.8922131061553955,0.6669582918716186,8.0,85.0,0.0
Y,R,"[6, 10]",1.0,6.0,0.19313907623291016,1.6113879680633545,0.41195138522112046,8.0,86.0,0.0
R,U,"[5, 10]",1.0,7.0,0.5187668800354004,2.010213851928711,0.5054348165735916,8.0,87.0,0.0
R,U,"[4, 10]",1.0,8.0,0.28847408294677734,1.5378530025482178,0.2600447733456882,8.0,88.0,0.0
B,L,"[4, 9]",1.0,9.0,0.5100781917572021,2.069591999053955,0.5626512749762593,8.0,89.0,0.0
R,U,"[3, 9]",1.0,10.0,0.17978787422180176,1.5873501300811768,0.40023847795910816,8.0,90.0,0.0
,,"(6, 6)",,,,,,,,
R,U,"[5, 6]",1.0,1.0,0.3881540298461914,4.142090082168579,0.6085452110545455,9.0,91.0,0.0
Y,R,"[5, 7]",1.0,2.0,0.20355606079101562,1.8168821334838867,0.6254995337653022,9.0,92.0,0.0
Y,R,"[5, 8]",1.0,3.0,0.3163421154022217,1.7495970726013184,0.4419036254025186,9.0,93.0,0.0
G,D,"[6, 8]",1.0,4.0,0.1782999038696289,1.8175079822540283,0.6423758711641788,9.0,94.0,0.0
Y,R,"[6, 9]",1.0,5.0,0.15666818618774414,1.494426965713501,0.33720069015022985,9.0,95.0,0.0
Y,R,"[6, 10]",1.0,6.0,0.30173707008361816,1.8840742111206055,0.5880101095944967,9.0,96.0,0.0
R,U,"[5, 10]",1.0,7.0,0.3133108615875244,1.8294169902801514,0.5170227846843867,9.0,97.0,0.0
R,U,"[4, 10]",1.0,8.0,0.16094589233398438,1.4634599685668945,0.2973937310688373,9.0,98.0,0.0
B,L,"[4, 9]",1.0,9.0,0.45026493072509766,1.8711280822753906,0.4184482181275622,9.0,99.0,0.0
R,U,"[3, 9]",1.0,10.0,0.2257080078125,1.5209381580352783,0.28934032471815235,9.0,100.0,0.0
,,"(6, 6)",,,,,,,,
R,U,"[5, 6]",1.0,1.0,0.27193593978881836,3.7038180828094482,0.5428082103321825,10.0,101.0,0.0
Y,R,"[5, 7]",1.0,2.0,0.3069179058074951,1.8290321826934814,0.5218776254411023,10.0,102.0,0.0
Y,R,"[5, 8]",1.0,3.0,0.2096090316772461,1.863192081451416,0.6516393365107326,10.0,103.0,0.0
G,D,"[6, 8]",1.0,4.0,0.20792412757873535,1.5675899982452393,0.35278103895993157,10.0,104.0,0.0
Y,R,"[6, 9]",1.0,5.0,0.2273881435394287,1.4965269565582275,0.26603422585525316,10.0,105.0,0.0
Y,R,"[6, 10]",1.0,6.0,0.29223108291625977,1.738976001739502,0.438160807921772,10.0,106.0,0.0
R,U,"[5, 10]",1.0,7.0,0.443497896194458,1.9646449089050293,0.5193503216043414,10.0,107.0,0.0
R,U,"[4, 10]",1.0,8.0,0.1802668571472168,1.6326940059661865,0.45202075708971007,10.0,108.0,0.0
B,L,"[4, 9]",1.0,9.0,0.3570277690887451,1.8962209224700928,0.5314605763394435,10.0,109.0,0.0
R,U,"[3, 9]",1.0,10.0,0.29291510581970215,1.5953419208526611,0.293649399741521,10.0,110.0,0.0
,,"(6, 6)",,,,,,,,
R,U,"[5, 6]",1.0,1.0,0.28868889808654785,3.6096088886260986,0.26977969035672056,11.0,111.0,0.0
Y,R,"[5, 7]",1.0,2.0,0.3988471031188965,1.9861550331115723,0.588930149283844,11.0,112.0,0.0
R,U,"[4, 7]",0.0,2.0,0.3574800491333008,1.7733099460601807,0.41244345950667993,11.0,113.0,0.0
G,D,"[5, 7]",0.0,2.0,0.9751091003417969,2.3579061031341553,0.3704909731919231,11.0,114.0,0.0
G,D,"[6, 7]",0.0,2.0,0.8102591037750244,2.412055015563965,0.5987796688425219,11.0,115.0,0.0
Y,R,"[6, 8]",1.0,3.0,0.19742488861083984,1.930326223373413,0.729014905389159,11.0,116.0,0.0
R,U,"[5, 8]",1.0,4.0,0.22606897354125977,1.9334709644317627,0.6958167657408219,11.0,117.0,0.0
R,U,"[4, 8]",0.0,4.0,0.179779052734375,1.841594934463501,0.6539778756137399,11.0,118.0,0.0
B,L,"[4, 7]",0.0,4.0,0.31259679794311523,2.0196521282196045,0.7068054108976711,11.0,119.0,0.0
R,U,"[3, 7]",0.0,4.0,0.27968883514404297,1.9912760257720947,0.7148152605260354,11.0,120.0,0.0
,,"(6, 6)",,,,,,,,
R,U,"[5, 6]",1.0,1.0,0.25830602645874023,6.914763927459717,0.6628228525105329,12.0,121.0,0.0
Y,R,"[5, 7]",1.0,2.0,0.2559239864349365,1.9251561164855957,0.6712024819713369,12.0,122.0,0.0
Y,R,"[5, 8]",1.0,3.0,0.21800017356872559,1.7981631755828857,0.5861170457767227,12.0,123.0,0.0
G,D,"[6, 8]",1.0,4.0,0.28870391845703125,1.832719087600708,0.5354909252052621,12.0,124.0,0.0
Y,R,"[6, 9]",1.0,5.0,0.26395702362060547,1.861847162246704,0.5972431167199286,12.0,125.0,0.0
Y,R,"[6, 10]",1.0,6.0,0.22829914093017578,1.5030789375305176,0.2673432616180945,12.0,126.0,0.0
R,U,"[5, 10]",1.0,7.0,0.5193588733673096,2.134026050567627,0.617809100716708,12.0,127.0,0.0
R,U,"[4, 10]",1.0,8.0,0.20488905906677246,1.5044119358062744,0.3054978539669131,12.0,128.0,0.0
B,L,"[4, 9]",1.0,9.0,0.6579029560089111,2.097559928894043,0.4363053315199661,12.0,129.0,0.0
R,U,"[3, 9]",1.0,10.0,0.264833927154541,1.834359884262085,0.5704538569494343,12.0,130.0,0.0
,,"(6, 6)",,,,,,,,
R,U,"[5, 6]",1.0,1.0,0.6965270042419434,3.0635101795196533,0.5339798498437778,13.0,131.0,0.0
Y,R,"[5, 7]",1.0,2.0,0.2738521099090576,1.845548152923584,0.5628224117386031,13.0,132.0,0.0
Y,R,"[5, 8]",1.0,3.0,0.42787885665893555,1.8658161163330078,0.42858531522016163,13.0,133.0,0.0
G,D,"[6, 8]",1.0,4.0,0.31941795349121094,1.87813401222229,0.573302059599055,13.0,134.0,0.0
Y,R,"[6, 9]",1.0,5.0,0.2134401798248291,1.7130799293518066,0.5030723664638101,13.0,135.0,0.0
Y,R,"[6, 10]",1.0,6.0,0.26781702041625977,1.7417008876800537,0.4780446028566049,13.0,136.0,0.0
R,U,"[5, 10]",1.0,7.0,0.3085958957672119,2.023869037628174,0.7183440338382947,13.0,137.0,0.0
R,U,"[4, 10]",1.0,8.0,0.1635739803314209,1.8201079368591309,0.6551531446534189,13.0,138.0,0.0
B,L,"[4, 9]",1.0,9.0,0.21848797798156738,1.7226288318634033,0.5112216341148994,13.0,139.0,0.0
R,U,"[3, 9]",1.0,10.0,0.18475699424743652,1.840080976486206,0.6677767798560859,13.0,140.0,0.0
,,"(6, 6)",,,,,,,,
R,U,"[5, 6]",1.0,1.0,0.6984288692474365,5.184051990509033,0.6184523747112347,14.0,141.0,0.0
Y,R,"[5, 7]",1.0,2.0,0.16337013244628906,1.72285795211792,0.5578959239047001,14.0,142.0,0.0
Y,R,"[5, 8]",1.0,3.0,0.21972417831420898,1.5819118022918701,0.37333145745870194,14.0,143.0,0.0
G,D,"[6, 8]",1.0,4.0,0.37937402725219727,1.9856960773468018,0.6087857905134346,14.0,144.0,0.0
Y,R,"[6, 9]",1.0,5.0,0.1959829330444336,1.8701491355895996,0.6787258476631515,14.0,145.0,0.0
Y,R,"[6, 10]",-1.0,5.0,0.09461307525634766,5.9326090812683105,0.7445376886802417,14.0,146.0,0.0
R,U,"[5, 10]",1.0,6.0,0.3132448196411133,1.6068451404571533,0.30181369185808055,14.0,147.0,0.0
R,U,"[4, 10]",1.0,7.0,0.29931092262268066,1.6918010711669922,0.39352240407136596,14.0,148.0,0.0
B,L,"[4, 9]",1.0,8.0,0.5559499263763428,1.964691162109375,0.4080899235732476,14.0,149.0,0.0
R,U,"[3, 9]",1.0,9.0,0.5383899211883545,2.260798931121826,0.7184822697795004,14.0,150.0,0.0
,,"(6, 6)",,,,,,,,
R,U,"[5, 6]",1.0,1.0,0.38436007499694824,6.146651029586792,0.6817282509132474,15.0,151.0,0.0
Y,R,"[5, 7]",1.0,2.0,0.18156814575195312,1.4799442291259766,0.29533666036401157,15.0,152.0,0.0
Y,R,"[5, 8]",1.0,3.0,0.44692111015319824,1.9087638854980469,0.47063756617519675,15.0,153.0,0.0
G,D,"[6, 8]",1.0,4.0,0.2811551094055176,1.8783280849456787,0.5988224188011214,15.0,154.0,0.0
Y,R,"[6, 9]",1.0,5.0,0.2138350009918213,1.5242860317230225,0.3066558123904775,15.0,155.0,0.0
Y,R,"[6, 10]",1.0,6.0,0.3751649856567383,1.6948089599609375,0.31824083541467285,15.0,156.0,0.0
R,U,"[5, 10]",1.0,7.0,0.5304620265960693,1.800680160522461,0.2688047798291467,15.0,157.0,0.0
R,U,"[4, 10]",1.0,8.0,0.5223751068115234,2.1650209426879883,0.6500736506645615,15.0,158.0,0.0
B,L,"[4, 9]",1.0,9.0,0.2294468879699707,1.6986420154571533,0.46551659006060647,15.0,159.0,0.0
R,U,"[3, 9]",1.0,10.0,0.2394559383392334,1.731442928314209,0.4802050410787735,15.0,160.0,0.0
,,"(6, 6)",,,,,,,,
R,U,"[5, 6]",1.0,1.0,0.36293888092041016,3.024182081222534,0.42107526086260566,16.0,161.0,0.0
Y,R,"[5, 7]",1.0,2.0,0.20159482955932617,1.668651819229126,0.4729488319759744,16.0,162.0,0.0
Y,R,"[5, 8]",1.0,3.0,0.24068999290466309,1.747225046157837,0.5033245049428277,16.0,163.0,0.0
G,D,"[6, 8]",1.0,4.0,0.33875203132629395,1.591031789779663,0.2612538201363849,16.0,164.0,0.0
Y,R,"[6, 9]",1.0,5.0,0.46036720275878906,1.909837007522583,0.45433396324703057,16.0,165.0,0.0
Y,R,"[6, 10]",1.0,6.0,0.24267816543579102,1.958756923675537,0.7126795928280425,16.0,166.0,0.0
R,U,"[5, 10]",1.0,7.0,0.22791385650634766,1.7694990634918213,0.5324036341082744,16.0,167.0,0.0
R,U,"[4, 10]",1.0,8.0,0.3103330135345459,1.9343011379241943,0.6165233560571153,16.0,168.0,0.0
B,L,"[4, 9]",1.0,9.0,0.26634788513183594,1.839482069015503,0.5727315585507449,16.0,169.0,0.0
R,U,"[3, 9]",1.0,10.0,0.30676817893981934,1.5998899936676025,0.28953274494769304,16.0,170.0,0.0
,,"(6, 6)",,,,,,,,
R,U,"[5, 6]",1.0,1.0,0.5226120948791504,3.2946720123291016,0.31743631372084946,17.0,171.0,0.0
Y,R,"[5, 7]",1.0,2.0,0.4256110191345215,2.110330104827881,0.6777151449190357,17.0,172.0,0.0
Y,R,"[5, 8]",1.0,3.0,0.26260805130004883,1.5854251384735107,0.3297648245990758,17.0,173.0,0.0
G,D,"[6, 8]",1.0,4.0,0.4907219409942627,2.2356419563293457,0.7318118043637083,17.0,174.0,0.0
B,L,"[6, 7]",0.0,4.0,0.42229509353637695,1.9664890766143799,0.5482599657629439,17.0,175.0,0.0
Y,R,"[6, 8]",0.0,4.0,0.4378328323364258,1.9335849285125732,0.49853348843041484,17.0,176.0,0.0
R,U,"[5, 8]",-2.0,4.0,2.0522398948669434,3.34830904006958,0.3136052376305379,17.0,177.0,0.0
B,L,"[5, 7]",-2.0,4.0,4.081278085708618,5.672198057174683,0.6187078617522237,17.0,178.0,0.0
R,U,"[4, 7]",-2.0,4.0,1.1215910911560059,2.6944141387939453,0.6132770536023977,17.0,179.0,0.0
R,U,"[3, 7]",0.0,4.0,0.20986199378967285,1.510817050933838,0.29079235050880825,17.0,180.0,0.0
,,"(6, 6)",,,,,,,,
R,U,"[5, 6]",1.0,1.0,0.38215088844299316,57.54464793205261,0.6171874479038584,18.0,181.0,0.0
Y,R,"[5, 7]",1.0,2.0,0.23511409759521484,1.8894741535186768,0.6565624763422397,18.0,182.0,0.0
Y,R,"[5, 8]",1.0,3.0,0.3157310485839844,1.8705060482025146,0.5603423094104033,18.0,183.0,0.0
G,D,"[6, 8]",1.0,4.0,0.2510719299316406,1.5141921043395996,0.2747854392718708,18.0,184.0,0.0
Y,R,"[6, 9]",1.0,5.0,0.3793528079986572,1.9234099388122559,0.5479732942974613,18.0,185.0,0.0
Y,R,"[6, 10]",1.0,6.0,0.29503703117370605,1.7566401958465576,0.454615716338003,18.0,186.0,0.0
R,U,"[5, 10]",1.0,7.0,0.2599978446960449,1.8362951278686523,0.5741003205265407,18.0,187.0,0.0
R,U,"[4, 10]",1.0,8.0,0.17973899841308594,1.7533581256866455,0.5774445190551254,18.0,188.0,0.0
B,L,"[4, 9]",1.0,9.0,0.24962997436523438,1.7803359031677246,0.5410489946758852,18.0,189.0,0.0
R,U,"[3, 9]",1.0,10.0,0.28127312660217285,1.5686349868774414,0.2932460867320993,18.0,190.0,0.0
,,"(6, 6)",,,,,,,,
R,U,"[5, 6]",1.0,1.0,0.6164271831512451,4.69829797744751,0.4079478639441407,19.0,191.0,0.0
Y,R,"[5, 7]",1.0,2.0,0.5285799503326416,2.129102945327759,0.6035709638481104,19.0,192.0,0.0
Y,R,"[5, 8]",1.0,3.0,0.16320490837097168,1.469703197479248,0.3069532292417528,19.0,193.0,0.0
G,D,"[6, 8]",1.0,4.0,0.3686060905456543,2.0810470581054688,0.721079080382824,19.0,194.0,0.0
Y,R,"[6, 9]",1.0,5.0,0.1481781005859375,1.7680320739746094,0.6223941109424576,19.0,195.0,0.0
Y,R,"[6, 10]",1.0,6.0,0.20796513557434082,1.8319661617279053,0.6211868596074647,19.0,196.0,0.0
R,U,"[5, 10]",1.0,7.0,0.20656895637512207,1.5313491821289062,0.3191220518900522,19.0,197.0,0.0
R,U,"[4, 10]",1.0,8.0,0.24979591369628906,1.6659741401672363,0.4181953675963026,19.0,198.0,0.0
B,L,"[4, 9]",1.0,9.0,0.3023409843444824,1.819061040878296,0.520534432436733,19.0,199.0,0.0
R,U,"[3, 9]",1.0,10.0,0.20045900344848633,1.863840103149414,0.66799478977428,19.0,200.0,0.0
,,"(6, 6)",,,,,,,,
R,U,"[5, 6]",1.0,1.0,0.3539001941680908,3.3011341094970703,0.651826891948175,20.0,201.0,0.0
Y,R,"[5, 7]",1.0,2.0,0.2088160514831543,1.8921849727630615,0.6773171789077688,20.0,202.0,0.0
Y,R,"[5, 8]",1.0,3.0,0.2114269733428955,1.7329120635986328,0.5272059888318805,20.0,203.0,0.0
G,D,"[6, 8]",1.0,4.0,0.22627592086791992,1.6481339931488037,0.42526426878092455,20.0,204.0,0.0
Y,R,"[6, 9]",1.0,5.0,0.5004439353942871,1.766951084136963,0.27566863830207794,20.0,205.0,0.0
Y,R,"[6, 10]",1.0,6.0,0.3564300537109375,1.6816339492797852,0.340582166464121,20.0,206.0,0.0
R,U,"[5, 10]",1.0,7.0,0.3790769577026367,1.945026159286499,0.5686673277580806,20.0,207.0,0.0
R,U,"[4, 10]",1.0,8.0,0.22205805778503418,1.7183680534362793,0.5036628123503235,20.0,208.0,0.0
B,L,"[4, 9]",1.0,9.0,0.22136592864990234,1.6912009716033936,0.4782682358816958,20.0,209.0,0.0
R,U,"[3, 9]",1.0,10.0,0.17900300025939941,1.767482042312622,0.5954859512497275,20.0,210.0,0.0
,,"(6, 6)",,,,,,,,
R,U,"[5, 6]",1.0,1.0,0.38316893577575684,3.9851670265197754,0.3142587773794153,21.0,211.0,0.0
Y,R,"[5, 7]",1.0,2.0,0.28036999702453613,1.5870389938354492,0.30128718237383917,21.0,212.0,0.0
Y,R,"[5, 8]",1.0,3.0,0.26201295852661133,2.007322072982788,0.741460360680519,21.0,213.0,0.0
G,D,"[6, 8]",1.0,4.0,0.19198203086853027,1.4972498416900635,0.30579449021198035,21.0,214.0,0.0
Y,R,"[6, 9]",1.0,5.0,0.41100502014160156,1.8253509998321533,0.4143121078140905,21.0,215.0,0.0
Y,R,"[6, 10]",1.0,6.0,0.20775318145751953,1.8332829475402832,0.6139676051184288,21.0,216.0,0.0
R,U,"[5, 10]",1.0,7.0,0.32247114181518555,1.847156047821045,0.5112359497212066,21.0,217.0,0.0
R,U,"[4, 10]",1.0,8.0,0.3599400520324707,1.8860759735107422,0.5305927897761601,21.0,218.0,0.0
B,L,"[4, 9]",1.0,9.0,0.14695310592651367,1.8450019359588623,0.692344836467389,21.0,219.0,0.0
R,U,"[3, 9]",1.0,10.0,0.28163814544677734,1.819998025894165,0.5454952230532224,21.0,220.0,0.0
,,"(6, 6)",,,,,,,,
R,U,"[5, 6]",1.0,1.0,0.6944718360900879,3.020840883255005,0.5662084181993186,22.0,221.0,0.0
Y,R,"[5, 7]",1.0,2.0,0.22757697105407715,1.556035041809082,0.3225236390229826,22.0,222.0,0.0
Y,R,"[5, 8]",1.0,3.0,0.37758898735046387,1.7226290702819824,0.3451740612288619,22.0,223.0,0.0
G,D,"[6, 8]",1.0,4.0,0.5289309024810791,1.8373091220855713,0.31561909874975413,22.0,224.0,0.0
Y,R,"[6, 9]",1.0,5.0,0.2940030097961426,2.023621082305908,0.7222246823803282,22.0,225.0,0.0
Y,R,"[6, 10]",1.0,6.0,0.2221682071685791,1.5784800052642822,0.351007875120045,22.0,226.0,0.0
R,U,"[5, 10]",1.0,7.0,0.4661870002746582,1.877912998199463,0.4120553493298426,22.0,227.0,0.0
R,U,"[4, 10]",1.0,8.0,0.43048906326293945,2.1122710704803467,0.6742018122970084,22.0,228.0,0.0
B,L,"[4, 9]",1.0,9.0,0.20644092559814453,1.446923017501831,0.25478153987048513,22.0,229.0,0.0
R,U,"[3, 9]",1.0,10.0,0.5082499980926514,2.1837151050567627,0.6714027826630743,22.0,230.0,0.0
,,"(6, 6)",,,,,,,,
R,U,"[5, 6]",1.0,1.0,0.6385648250579834,3.7682690620422363,0.6062893129155489,23.0,231.0,0.0
Y,R,"[5, 7]",1.0,2.0,0.30741405487060547,1.564851999282837,0.27130364006716834,23.0,232.0,0.0
Y,R,"[5, 8]",1.0,3.0,0.40755510330200195,1.8103349208831787,0.39828548162457117,23.0,233.0,0.0
G,D,"[6, 8]",1.0,4.0,0.4660358428955078,1.9811429977416992,0.5126331858758613,23.0,234.0,0.0
Y,R,"[6, 9]",1.0,5.0,0.21903204917907715,1.969264030456543,0.7482805433140658,23.0,235.0,0.0
Y,R,"[6, 10]",1.0,6.0,0.20603179931640625,1.8819048404693604,0.6637310197634334,23.0,236.0,0.0
R,U,"[5, 10]",1.0,7.0,0.24565696716308594,1.7175610065460205,0.4645891192422713,23.0,237.0,0.0
R,U,"[4, 10]",1.0,8.0,0.22052693367004395,1.8457679748535156,0.6268311282735197,23.0,238.0,0.0
B,L,"[4, 9]",1.0,9.0,0.25997400283813477,2.0038180351257324,0.7471783182518293,23.0,239.0,0.0
R,U,"[3, 9]",1.0,10.0,0.2529919147491455,1.703326940536499,0.4507388295623469,23.0,240.0,0.0
,,"(6, 6)",,,,,,,,
R,U,"[5, 6]",1.0,1.0,0.5241951942443848,4.227656841278076,0.3283169356574074,24.0,241.0,0.0
Y,R,"[5, 7]",1.0,2.0,0.20728087425231934,1.8425929546356201,0.6373721368206853,24.0,242.0,0.0
Y,R,"[5, 8]",1.0,3.0,0.17760896682739258,1.8581829071044922,0.6787451845695813,24.0,243.0,0.0
G,D,"[6, 8]",1.0,4.0,0.18775010108947754,1.6634840965270996,0.45913437737291934,24.0,244.0,0.0
Y,R,"[6, 9]",1.0,5.0,0.20875096321105957,1.561689853668213,0.35421278770613784,24.0,245.0,0.0
Y,R,"[6, 10]",1.0,6.0,0.3619561195373535,1.965336799621582,0.6025299611138675,24.0,246.0,0.0
R,U,"[5, 10]",1.0,7.0,0.22525811195373535,1.9168870449066162,0.6859541339886326,24.0,247.0,0.0
R,U,"[4, 10]",-1.0,7.0,0.08763289451599121,5.9064929485321045,0.7422743043357466,24.0,248.0,0.0
B,L,"[4, 9]",1.0,8.0,0.5257518291473389,2.147836923599243,0.6235772248115836,24.0,249.0,0.0
R,U,"[3, 9]",1.0,9.0,0.2816200256347656,1.67364501953125,0.39727449466465564,24.0,250.0,0.0
,,"(6, 6)",,,,,,,,
R,U,"[5, 6]",1.0,1.0,0.5176210403442383,3.7110369205474854,0.45817150759425296,25.0,251.0,0.0
Y,R,"[5, 7]",1.0,2.0,0.2741129398345947,1.9104180335998535,0.6351229761815336,25.0,252.0,0.0
Y,R,"[5, 8]",1.0,3.0,0.2755911350250244,1.8314850330352783,0.549920703054064,25.0,253.0,0.0
G,D,"[6, 8]",1.0,4.0,0.3510611057281494,1.9721879959106445,0.6221286341488015,25.0,254.0,0.0
Y,R,"[6, 9]",1.0,5.0,0.23446297645568848,1.8587899208068848,0.6308825642990783,25.0,255.0,0.0
Y,R,"[6, 10]",1.0,6.0,0.2367551326751709,1.9300150871276855,0.6940501033018001,25.0,256.0,0.0
R,U,"[5, 10]",1.0,7.0,0.1910409927368164,1.6067540645599365,0.417725698559621,25.0,257.0,0.0
R,U,"[4, 10]",1.0,8.0,0.2337779998779297,1.516937017440796,0.2847727167537102,25.0,258.0,0.0
B,L,"[4, 9]",1.0,9.0,0.4086949825286865,1.8712809085845947,0.45581050213796637,25.0,259.0,0.0
R,U,"[3, 9]",1.0,10.0,0.2743508815765381,1.5955560207366943,0.3181750894740089,25.0,260.0,0.0
,,"(6, 6)",,,,,,,,
R,U,"[5, 6]",1.0,1.0,0.5644850730895996,3.0915510654449463,0.45944594356245483,26.0,261.0,0.0
Y,R,"[5, 7]",1.0,2.0,0.32790398597717285,1.939188003540039,0.6150506778422542,26.0,262.0,0.0
Y,R,"[5, 8]",1.0,3.0,0.18762898445129395,1.8629870414733887,0.6780231284212288,26.0,263.0,0.0
G,D,"[6, 8]",1.0,4.0,0.2558131217956543,1.56951904296875,0.3312126642428892,26.0,264.0,0.0
Y,R,"[6, 9]",1.0,5.0,0.2337641716003418,1.6794400215148926,0.4439803303363646,26.0,265.0,0.0
Y,R,"[6, 10]",1.0,6.0,0.33374500274658203,1.848681926727295,0.5257274721376015,26.0,266.0,0.0
R,U,"[5, 10]",1.0,7.0,0.2746710777282715,1.6583220958709717,0.38420956673077655,26.0,267.0,0.0
R,U,"[4, 10]",1.0,8.0,0.38284802436828613,1.9062349796295166,0.5234291300616583,26.0,268.0,0.0
B,L,"[4, 9]",1.0,9.0,0.22600603103637695,1.4951791763305664,0.2688819567548764,26.0,269.0,0.0
R,U,"[3, 9]",1.0,10.0,0.34729719161987305,1.9382688999176025,0.5902011357449877,26.0,270.0,0.0
,,"(6, 6)",,,,,,,,
R,U,"[5, 6]",1.0,1.0,0.5588498115539551,4.459227085113525,0.6492992289179778,27.0,271.0,0.0
B,L,"[5, 5]",0.0,1.0,0.29891204833984375,1.879384994506836,0.5786688362827228,27.0,272.0,0.0
Y,R,"[5, 6]",0.0,1.0,0.4074671268463135,1.8123509883880615,0.39118857692082964,27.0,273.0,0.0
G,D,"[6, 6]",0.0,1.0,0.3144989013671875,1.6198310852050781,0.311085164539413,27.0,274.0,0.0
G,D,"[7, 6]",0.0,1.0,0.6088449954986572,2.0198991298675537,0.4143817501889588,27.0,275.0,0.0
Y,R,"[7, 7]",0.0,1.0,0.4705328941345215,1.8370740413665771,0.3678887457715301,27.0,276.0,0.0
R,U,"[6, 7]",0.0,1.0,0.5140950679779053,2.09869384765625,0.582975791022389,27.0,277.0,0.0
R,U,"[5, 7]",1.0,2.0,0.24230098724365234,1.9264569282531738,0.6760073631121853,27.0,278.0,0.0
R,U,"[4, 7]",0.0,2.0,0.30481481552124023,1.7539360523223877,0.463511170763717,27.0,279.0,0.0
B,L,"[4, 6]",0.0,2.0,0.24090003967285156,1.8572380542755127,0.6038649525373124,27.0,280.0,0.0
,,"(6, 6)",,,,,,,,
R,U,"[5, 6]",1.0,1.0,0.29030299186706543,4.104830980300903,0.3421041357901511,28.0,281.0,0.0
Y,R,"[5, 7]",1.0,2.0,0.27191996574401855,1.524082899093628,0.2662129577776347,28.0,282.0,0.0
Y,R,"[5, 8]",1.0,3.0,0.247344970703125,1.9722790718078613,0.7214182142383797,28.0,283.0,0.0
G,D,"[6, 8]",1.0,4.0,0.3001689910888672,1.5672929286956787,0.2724249898689406,28.0,284.0,0.0
Y,R,"[6, 9]",1.0,5.0,0.28202104568481445,1.6024110317230225,0.3247254027317695,28.0,285.0,0.0
Y,R,"[6, 10]",1.0,6.0,0.23720121383666992,1.8843159675598145,0.6587373501318661,28.0,286.0,0.0
R,U,"[5, 10]",1.0,7.0,0.18990397453308105,1.594681978225708,0.4035085251795143,28.0,287.0,0.0
R,U,"[4, 10]",1.0,8.0,0.23062586784362793,1.665842056274414,0.4359787860273262,28.0,288.0,0.0
B,L,"[4, 9]",1.0,9.0,0.24695396423339844,1.7055931091308594,0.4581296444783461,28.0,289.0,0.0
R,U,"[3, 9]",1.0,10.0,0.13492202758789062,1.8127129077911377,0.6872723740352079,28.0,290.0,0.0
,,"(6, 6)",,,,,,,,
R,U,"[5, 6]",1.0,1.0,0.31787705421447754,2.1654551029205322,0.4696417783541998,29.0,291.0,0.0
Y,R,"[5, 7]",1.0,2.0,0.1756420135498047,1.4980511665344238,0.31786792480023596,29.0,292.0,0.0
Y,R,"[5, 8]",1.0,3.0,0.5709528923034668,2.2980949878692627,0.732267809830057,29.0,293.0,0.0
G,D,"[6, 8]",1.0,4.0,0.27761101722717285,1.9986529350280762,0.7140316868899904,29.0,294.0,0.0
Y,R,"[6, 9]",1.0,5.0,0.19323205947875977,1.491858959197998,0.2896023478744844,29.0,295.0,0.0
Y,R,"[6, 10]",1.0,6.0,0.2602651119232178,1.7365350723266602,0.4759817517224121,29.0,296.0,0.0
R,U,"[5, 10]",1.0,7.0,0.4338951110839844,1.9408900737762451,0.5167280321820815,29.0,297.0,0.0
R,U,"[4, 10]",1.0,8.0,0.19684314727783203,1.6285121440887451,0.42868758756700415,29.0,298.0,0.0
B,L,"[4, 9]",1.0,9.0,0.3107891082763672,1.9123740196228027,0.6075442685139838,29.0,299.0,0.0
R,U,"[3, 9]",1.0,10.0,0.30063605308532715,2.026745080947876,0.7341553929891642,29.0,300.0,0.0
,,"(6, 6)",,,,,,,,
R,U,"[5, 6]",-999.0,0.0,0.36823606491088867,2.653211832046509,0.5208424594155552,30.0,301.0,-4.0
Y,R,"[5, 7]",-999.0,0.0,0.5535049438476562,2.171449899673462,0.6254624801888853,30.0,302.0,-4.0
Y,R,"[5, 8]",-999.0,0.0,0.7046220302581787,1.9555790424346924,0.26465359851277337,30.0,303.0,-4.0
G,D,"[6, 8]",-999.0,0.0,0.8178238868713379,2.514518976211548,0.6953027248998837,30.0,304.0,-4.0
Y,R,"[6, 9]",-999.0,0.0,0.6021559238433838,2.2589938640594482,0.6542883838642259,30.0,305.0,-4.0
Y,R,"[6, 10]",-999.0,0.0,0.4850480556488037,2.1018569469451904,0.6228772948769835,30.0,306.0,-4.0
R,U,"[5, 10]",-999.0,0.0,0.7021100521087646,2.260241985321045,0.5665008815823669,30.0,307.0,-4.0
R,U,"[4, 10]",-999.0,0.0,0.5854980945587158,2.218337059020996,0.6346821246559837,30.0,308.0,-4.0
R,U,"[3, 10]",-999.0,0.0,0.5960028171539307,2.174760103225708,0.576081022638979,30.0,309.0,-4.0
B,L,"[3, 9]",-2.0,0.0,1.2940621376037598,2.5442731380462646,0.2872925711287451,30.0,310.0,1.0
,,"(6, 6)",,,,,,,,
R,U,"[5, 6]",-999.0,0.0,0.42432093620300293,7.616777181625366,0.33706459501442515,31.0,311.0,-4.0
Y,R,"[5, 7]",-999.0,0.0,0.5303430557250977,2.267194986343384,0.7372718866985404,31.0,312.0,-4.0
Y,R,"[5, 8]",-999.0,0.0,0.3735949993133545,1.8737602233886719,0.5112390670741178,31.0,313.0,-4.0
R,U,"[4, 8]",-999.0,0.0,0.685034990310669,1.9904811382293701,0.3185365631018861,31.0,314.0,-4.0
Y,R,"[4, 9]",-2.0,0.0,1.4989941120147705,2.729783058166504,0.26491049678877204,31.0,315.0,1.0
,,"(6, 6)",,,,,,,,
B,L,"[4, 9]",-2.0,0.0,1.0505619049072266,4.200041055679321,0.6811382167432155,32.0,316.0,-5.0
B,L,"[4, 9]",-999.0,0.0,0.5816559791564941,2.1014440059661865,0.5160103516343684,32.0,317.0,-5.0
R,U,"[4, 9]",-999.0,0.0,0.6780710220336914,1.973417043685913,0.30622585084101445,32.0,318.0,-5.0
R,U,"[4, 9]",-2.0,0.0,1.4572269916534424,2.9399569034576416,0.5292265312234474,32.0,319.0,-5.0
R,U,"[3, 9]",-2.0,0.0,1.1467499732971191,2.840409994125366,0.7194018492101468,32.0,320.0,1.0
,,"(6, 6)",,,,,,,,
R,U,"[5, 6]",-2.0,0.0,1.297670841217041,4.796877145767212,0.5830422340514458,33.0,321.0,0.0
Y,R,"[5, 7]",1.0,1.0,0.20946693420410156,1.5188651084899902,0.3020824172829278,33.0,322.0,0.0
Y,R,"[5, 8]",1.0,2.0,0.3267960548400879,1.6384310722351074,0.3072304721473556,33.0,323.0,0.0
G,D,"[6, 8]",1.0,3.0,0.5054399967193604,2.168987989425659,0.6757997431424737,33.0,324.0,0.0
Y,R,"[6, 9]",1.0,4.0,0.32486581802368164,2.0147340297698975,0.6904885284681708,33.0,325.0,0.0
Y,R,"[6, 10]",1.0,5.0,0.3701200485229492,1.7775051593780518,0.41813399845473553,33.0,326.0,0.0
R,U,"[5, 10]",1.0,6.0,0.3957381248474121,2.0864059925079346,0.6876193241948412,33.0,327.0,0.0
R,U,"[4, 10]",1.0,7.0,0.517503023147583,2.2594258785247803,0.7469528415168162,33.0,328.0,0.0
B,L,"[4, 9]",-1.0,7.0,-9.894371032714844e-05,5.486160039901733,0.41667289401504953,33.0,329.0,0.0
R,U,"[3, 9]",1.0,8.0,0.35534191131591797,1.9081311225891113,0.5412956027833508,33.0,330.0,0.0
,,"(6, 6)",,,,,,,,
R,U,"[5, 6]",1.0,1.0,0.6283299922943115,5.103375196456909,0.37807975664043875,34.0,331.0,0.0
Y,R,"[5, 7]",1.0,2.0,0.24327588081359863,1.550217866897583,0.3116375036991462,34.0,332.0,0.0
Y,R,"[5, 8]",1.0,3.0,0.28725099563598633,2.0032238960266113,0.7310630118088538,34.0,333.0,0.0
G,D,"[6, 8]",1.0,4.0,0.2627408504486084,1.8127150535583496,0.543926143863285,34.0,334.0,0.0
Y,R,"[6, 9]",1.0,5.0,0.3047161102294922,1.755850076675415,0.46652142691117393,34.0,335.0,0.0
Y,R,"[6, 10]",1.0,6.0,0.23592305183410645,1.8573169708251953,0.6236208797788163,34.0,336.0,0.0
R,U,"[5, 10]",1.0,7.0,0.2819039821624756,1.9948909282684326,0.7184109328918256,34.0,337.0,0.0
B,L,"[5, 9]",0.0,7.0,0.1838819980621338,1.6433379650115967,0.46180916698663166,34.0,338.0,0.0
B,L,"[5, 8]",0.0,7.0,0.34915900230407715,2.0333199501037598,0.6949054721567192,34.0,339.0,0.0
R,U,"[4, 8]",0.0,7.0,0.29500699043273926,1.555677890777588,0.2677615447248237,34.0,340.0,0.0
,,"(6, 6)",,,,,,,,
R,U,"[5, 6]",-999.0,0.0,0.4213259220123291,3.12575101852417,0.2599565902534182,35.0,341.0,-4.0
Y,R,"[5, 7]",-999.0,0.0,0.4518580436706543,1.7197930812835693,0.27972801895136495,35.0,342.0,-4.0
Y,R,"[5, 8]",-999.0,0.0,0.6635069847106934,1.9249911308288574,0.2546781280080885,35.0,343.0,-4.0
R,U,"[4, 8]",-999.0,0.0,0.6305911540985107,2.209768056869507,0.5808168859014833,35.0,344.0,-4.0
R,U,"[3, 8]",-999.0,0.0,0.9841008186340332,2.6055519580841064,0.6195011714533797,35.0,345.0,1.0
,,"(6, 6)",,,,,,,,
R,U,"[5, 6]",1.0,1.0,0.6677401065826416,4.3594279289245605,0.2793236307366067,36.0,346.0,0.0
Y,R,"[5, 7]",1.0,2.0,0.3234548568725586,2.0644450187683105,0.7264525670010243,36.0,347.0,0.0
Y,R,"[5, 8]",1.0,3.0,0.22933506965637207,1.859076976776123,0.6357681893573726,36.0,348.0,0.0
G,D,"[6, 8]",1.0,4.0,0.2726759910583496,1.869513988494873,0.5886132175078548,36.0,349.0,0.0
Y,R,"[6, 9]",1.0,5.0,0.2490241527557373,1.974411964416504,0.7295259001432046,36.0,350.0,0.0
,,"(6, 6)",,,,,,,,
G,D,"[6, 9]",-2.0,0.0,1.0553760528564453,9.093269109725952,0.7390722660541049,37.0,351.0,-5.0
G,D,"[6, 9]",-999.0,0.0,0.8362870216369629,2.550305128097534,0.7227512220464606,37.0,352.0,-5.0
G,D,"[6, 9]",-999.0,0.0,0.6722478866577148,2.3941490650177,0.7335831798294153,37.0,353.0,-5.0
B,L,"[6, 9]",-999.0,0.0,0.7822761535644531,2.4114110469818115,0.6283985629441551,37.0,354.0,-5.0
B,L,"[6, 9]",-999.0,0.0,0.57423996925354,2.109605073928833,0.5546624836176579,37.0,355.0,-5.0
R,U,"[6, 9]",-999.0,0.0,0.73958420753479,2.0714759826660156,0.3428874654506858,37.0,356.0,-5.0
R,U,"[6, 9]",-999.0,0.0,0.5181601047515869,2.1699399948120117,0.6625803214046497,37.0,357.0,-5.0
B,L,"[6, 9]",-999.0,0.0,0.705564022064209,2.1617610454559326,0.4578030549115599,37.0,358.0,-5.0
B,L,"[6, 9]",-999.0,0.0,0.3535149097442627,1.6266541481018066,0.28454789006143455,37.0,359.0,-5.0
G,D,"[7, 9]",-2.0,0.0,1.0082380771636963,2.3433279991149902,0.36111927388370857,37.0,360.0,1.0
,,"(6, 6)",,,,,,,,
R,U,"[5, 6]",1.0,1.0,0.8496818542480469,6.585389852523804,0.44626795698866056,38.0,361.0,0.0
Y,R,"[5, 7]",1.0,2.0,0.28178882598876953,1.969938039779663,0.6826561791765489,38.0,362.0,0.0
Y,R,"[5, 8]",1.0,3.0,0.32410216331481934,1.8024919033050537,0.4685071226906216,38.0,363.0,0.0
G,D,"[6, 8]",1.0,4.0,0.5430800914764404,1.9964079856872559,0.44823285794593754,38.0,364.0,0.0
Y,R,"[6, 9]",1.0,5.0,0.3973500728607178,1.823951005935669,0.42211542824692705,38.0,365.0,0.0
Y,R,"[6, 10]",1.0,6.0,0.3263578414916992,1.5794329643249512,0.251876759754425,38.0,366.0,0.0
R,U,"[5, 10]",1.0,7.0,0.687079906463623,1.977998971939087,0.296282436391838,38.0,367.0,0.0
R,U,"[4, 10]",1.0,8.0,0.41871094703674316,1.954322099685669,0.5337676798696909,38.0,368.0,0.0
B,L,"[4, 9]",1.0,9.0,0.19066405296325684,1.911801815032959,0.7121429317628712,38.0,369.0,0.0
R,U,"[3, 9]",1.0,10.0,0.27605295181274414,1.673017978668213,0.38537539308304963,38.0,370.0,0.0
,,"(6, 6)",,,,,,,,
R,U,"[5, 6]",1.0,1.0,0.8765501976013184,4.550303936004639,0.6019854077332994,39.0,371.0,0.0
Y,R,"[5, 7]",1.0,2.0,0.2303178310394287,1.7447659969329834,0.5134952971712946,39.0,372.0,0.0
Y,R,"[5, 8]",1.0,3.0,0.26262402534484863,2.0096049308776855,0.7394623305341177,39.0,373.0,0.0
G,D,"[6, 8]",1.0,4.0,0.2303469181060791,1.8597538471221924,0.6325893878903281,39.0,374.0,0.0
Y,R,"[6, 9]",1.0,5.0,0.27761387825012207,1.8021299839019775,0.5180635914919912,39.0,375.0,0.0
Y,R,"[6, 10]",1.0,6.0,0.3315911293029785,1.685539960861206,0.35382582223416104,39.0,376.0,0.0
R,U,"[5, 10]",1.0,7.0,0.4433479309082031,2.0297188758850098,0.5832193859788958,39.0,377.0,0.0
R,U,"[4, 10]",1.0,8.0,0.329913854598999,1.825963020324707,0.49267568030628056,39.0,378.0,0.0
B,L,"[4, 9]",1.0,9.0,0.2944319248199463,1.5787029266357422,0.28806036147940167,39.0,379.0,0.0
R,U,"[3, 9]",1.0,10.0,0.4155919551849365,1.7729411125183105,0.3610645562047069,39.0,380.0,0.0
,,"(6, 6)",,,,,,,,
R,U,"[5, 6]",1.0,1.0,0.6074419021606445,2.977013111114502,0.3712395270203616,40.0,381.0,0.0
Y,R,"[5, 7]",1.0,2.0,0.24771404266357422,1.5354290008544922,0.29009533591307407,40.0,382.0,0.0
Y,R,"[5, 8]",1.0,3.0,0.7834830284118652,2.463420867919922,0.6864297398230128,40.0,383.0,0.0
G,D,"[6, 8]",1.0,4.0,0.24484014511108398,1.5591609477996826,0.3125239932918378,40.0,384.0,0.0
Y,R,"[6, 9]",1.0,5.0,0.531174898147583,1.9548101425170898,0.4172519655130387,40.0,385.0,0.0
Y,R,"[6, 10]",1.0,6.0,0.2511100769042969,1.8472590446472168,0.5975774640101363,40.0,386.0,0.0
R,U,"[5, 10]",1.0,7.0,0.22351288795471191,1.5578651428222656,0.3223161484381889,40.0,387.0,0.0
R,U,"[4, 10]",1.0,8.0,0.3491499423980713,2.06207013130188,0.7173101089383387,40.0,388.0,0.0
B,L,"[4, 9]",1.0,9.0,0.22559499740600586,1.9235641956329346,0.6908891110717945,40.0,389.0,0.0
R,U,"[3, 9]",1.0,10.0,0.189741849899292,1.6246778964996338,0.4324670527133793,40.0,390.0,0.0
,,"(6, 6)",,,,,,,,
R,U,"[5, 6]",1.0,1.0,0.5929491519927979,3.8140439987182617,0.39646955245696147,41.0,391.0,0.0
Y,R,"[5, 7]",1.0,2.0,0.28972411155700684,1.7368159294128418,0.43326046705255533,41.0,392.0,0.0
Y,R,"[5, 8]",1.0,3.0,0.2623720169067383,1.9241530895233154,0.657309489315802,41.0,393.0,0.0
G,D,"[6, 8]",1.0,4.0,0.2177128791809082,1.7531499862670898,0.5437500663980928,41.0,394.0,0.0
Y,R,"[6, 9]",1.0,5.0,0.21967315673828125,1.5743560791015625,0.36806879075925736,41.0,395.0,0.0
Y,R,"[6, 10]",1.0,6.0,0.4096219539642334,1.9371440410614014,0.521822886533192,41.0,396.0,0.0
R,U,"[5, 10]",1.0,7.0,0.37129998207092285,1.7379028797149658,0.37650531567232365,41.0,397.0,0.0
R,U,"[4, 10]",1.0,8.0,0.2886688709259033,1.915560007095337,0.6417485336223614,41.0,398.0,0.0
B,L,"[4, 9]",1.0,9.0,0.24492311477661133,1.9269671440124512,0.6852777658800713,41.0,399.0,0.0
R,U,"[3, 9]",-1.0,9.0,0.06228995323181152,5.45277214050293,0.3049846830887266,41.0,400.0,0.0
,,"(6, 6)",,,,,,,,
R,U,"[5, 6]",1.0,1.0,0.7496728897094727,4.34824013710022,0.40300758960335376,42.0,401.0,0.0
Y,R,"[5, 7]",1.0,2.0,0.3236348628997803,1.6073319911956787,0.27714953694943634,42.0,402.0,0.0
Y,R,"[5, 8]",1.0,3.0,0.653548002243042,1.912667989730835,0.2731281212871188,42.0,403.0,0.0
G,D,"[6, 8]",1.0,4.0,0.5018470287322998,2.0279951095581055,0.534146992790792,42.0,404.0,0.0
Y,R,"[6, 9]",1.0,5.0,0.2507319450378418,1.667311191558838,0.41822982515905494,42.0,405.0,0.0
Y,R,"[6, 10]",1.0,6.0,0.42293310165405273,1.9558300971984863,0.5405195902992089,42.0,406.0,0.0
R,U,"[5, 10]",1.0,7.0,0.26384401321411133,1.5166480541229248,0.25737560238840146,42.0,407.0,0.0
R,U,"[4, 10]",1.0,8.0,0.7711470127105713,2.4858691692352295,0.726024368111891,42.0,408.0,0.0
B,L,"[4, 9]",1.0,9.0,0.2607741355895996,1.568587064743042,0.3117349483005984,42.0,409.0,0.0
R,U,"[3, 9]",1.0,10.0,0.3101320266723633,1.8835480213165283,0.5783436352584936,42.0,410.0,0.0
,,"(6, 6)",,,,,,,,
R,U,"[5, 6]",-999.0,0.0,0.8151428699493408,3.9407408237457275,0.5023722299032705,43.0,411.0,-4.0
Y,R,"[5, 7]",-999.0,0.0,0.6548061370849609,1.9475390911102295,0.3000687880128373,43.0,412.0,-4.0
Y,R,"[5, 8]",-999.0,0.0,0.6667308807373047,2.3529980182647705,0.6859582031453179,43.0,413.0,-4.0
R,U,"[4, 8]",-999.0,0.0,0.7669248580932617,2.2201709747314453,0.4563343767865598,43.0,414.0,-4.0
Y,R,"[4, 9]",-2.0,0.0,1.1130650043487549,2.436640977859497,0.35971031096126566,43.0,415.0,1.0
,,"(6, 6)",,,,,,,,
R,U,"[5, 6]",1.0,1.0,0.771691083908081,3.741240978240967,0.38411371364367525,44.0,416.0,0.0
Y,R,"[5, 7]",1.0,2.0,0.45366907119750977,2.0254969596862793,0.5761118898471631,44.0,417.0,0.0
G,D,"[6, 7]",0.0,2.0,0.35094499588012695,2.0751969814300537,0.7343108957883087,44.0,418.0,0.0
G,D,"[7, 7]",0.0,2.0,0.26858997344970703,1.7864220142364502,0.5209270904129686,44.0,419.0,0.0
Y,R,"[7, 8]",0.0,2.0,0.4163780212402344,1.7324678897857666,0.3202490344537957,44.0,420.0,0.0
,,"(6, 6)",,,,,,,,
G,D,"[7, 8]",-2.0,0.0,1.3028879165649414,8.003285884857178,0.5898494095966875,45.0,421.0,-5.0
G,D,"[7, 8]",-999.0,0.0,0.5399198532104492,2.1053199768066406,0.5784640088740269,45.0,422.0,-5.0
G,D,"[7, 8]",-999.0,0.0,0.5190391540527344,1.799004077911377,0.2942754425233479,45.0,423.0,-5.0
B,L,"[7, 8]",-999.0,0.0,0.5250101089477539,1.9566421508789062,0.4508613889888855,45.0,424.0,-5.0
B,L,"[7, 8]",-999.0,0.0,0.5201900005340576,2.1320769786834717,0.6160298216067668,45.0,425.0,-5.0
R,U,"[7, 8]",-999.0,0.0,0.7320659160614014,2.20580792427063,0.4718086662472743,45.0,426.0,-5.0
R,U,"[7, 8]",-999.0,0.0,0.4107849597930908,1.8075759410858154,0.39613281624647645,45.0,427.0,-5.0
B,L,"[7, 8]",-999.0,0.0,0.7401561737060547,2.2165489196777344,0.4795324822097833,45.0,428.0,-5.0
B,L,"[7, 8]",-999.0,0.0,0.395413875579834,2.084078073501587,0.6797052095560769,45.0,429.0,-5.0
G,D,"[8, 8]",-999.0,0.0,0.8746318817138672,2.61350417137146,0.7430763451101969,45.0,430.0,1.0
,,"(6, 6)",,,,,,,,
R,U,"[5, 6]",-999.0,0.0,0.8818938732147217,6.116780996322632,0.5765850439337468,46.0,431.0,-4.0
Y,R,"[5, 7]",-999.0,0.0,0.5143880844116211,1.7647011280059814,0.2582242784447516,46.0,432.0,-4.0
Y,R,"[5, 8]",-999.0,0.0,0.7386980056762695,2.292897939682007,0.5676242242960177,46.0,433.0,-4.0
R,U,"[4, 8]",-999.0,0.0,0.6907541751861572,1.9894390106201172,0.3071039524985574,46.0,434.0,-4.0
R,U,"[3, 8]",-2.0,0.0,1.044349193572998,2.680398941040039,0.6705631730087567,46.0,435.0,1.0
,,"(6, 6)",,,,,,,,
G,D,"[3, 8]",-999.0,0.0,0.9673449993133545,5.133679151535034,0.5708432842240063,47.0,436.0,-5.0
G,D,"[3, 8]",-999.0,0.0,0.5275700092315674,2.0594959259033203,0.5302993061761915,47.0,437.0,-5.0
G,D,"[3, 8]",-999.0,0.0,0.3559839725494385,1.7976679801940918,0.4446959968323771,47.0,438.0,-5.0
B,L,"[3, 8]",-999.0,0.0,0.5436229705810547,2.250481128692627,0.7115293807484087,47.0,439.0,-5.0
B,L,"[3, 8]",-999.0,0.0,0.3627660274505615,1.8172180652618408,0.46231790457642846,47.0,440.0,-5.0
,,"(6, 6)",,,,,,,,
R,U,"[5, 6]",-999.0,0.0,0.7928781509399414,5.384720087051392,0.7298561263892326,48.0,441.0,-4.0
Y,R,"[5, 7]",-999.0,0.0,0.48993611335754395,2.0653769969940186,0.5786502288646508,48.0,442.0,-4.0
Y,R,"[5, 8]",-999.0,0.0,0.3762209415435791,2.0339419841766357,0.6625410703670428,48.0,443.0,-4.0
G,D,"[6, 8]",-999.0,0.0,0.7988650798797607,2.2483890056610107,0.44448531133159,48.0,444.0,-4.0
Y,R,"[6, 9]",-999.0,0.0,0.5027430057525635,2.05224609375,0.5632725922305468,48.0,445.0,-4.0
Y,R,"[6, 10]",-999.0,0.0,0.44595885276794434,2.1609678268432617,0.7072765708334132,48.0,446.0,-4.0
R,U,"[5, 10]",-999.0,0.0,0.5778849124908447,1.9416649341583252,0.36609788735299853,48.0,447.0,-4.0
R,U,"[4, 10]",-999.0,0.0,0.41284608840942383,1.9475009441375732,0.529908588792741,48.0,448.0,-4.0
R,U,"[3, 10]",-999.0,0.0,0.7884700298309326,2.0718419551849365,0.28537137720492367,48.0,449.0,-4.0
B,L,"[3, 9]",-999.0,0.0,0.7821400165557861,2.14854097366333,0.36708827807679073,48.0,450.0,1.0
,,"(6, 6)",,,,,,,,
B,L,"[3, 9]",-999.0,0.0,0.6540079116821289,5.225290775299072,0.7084505630196777,49.0,451.0,-5.0
B,L,"[3, 9]",-999.0,0.0,0.37037110328674316,1.6351490020751953,0.27747700921365653,49.0,452.0,-5.0
R,U,"[3, 9]",-999.0,0.0,0.655303955078125,2.1389071941375732,0.49942028604807664,49.0,453.0,-5.0
R,U,"[3, 9]",-999.0,0.0,0.3011009693145752,1.6298749446868896,0.32942825246120133,49.0,454.0,-5.0
Y,R,"[3, 10]",-2.0,0.0,1.4127700328826904,2.8147737979888916,0.4272653372122505,49.0,455.0,1.0
,,"(6, 6)",,,,,,,,
R,U,"[5, 6]",1.0,1.0,0.7335679531097412,3.7382640838623047,0.7318940233957375,50.0,456.0,0.0
Y,R,"[5, 7]",1.0,2.0,0.23543095588684082,1.7740881443023682,0.5394622788728489,50.0,457.0,0.0
Y,R,"[5, 8]",1.0,3.0,0.23238801956176758,1.8566999435424805,0.629382551980178,50.0,458.0,0.0
G,D,"[6, 8]",1.0,4.0,0.2582378387451172,1.5342040061950684,0.2638737278392852,50.0,459.0,0.0
Y,R,"[6, 9]",1.0,5.0,0.2529580593109131,1.51481294631958,0.26207062431971523,50.0,460.0,0.0
,,"(6, 6)",,,,,,,,
R,U,"[5, 6]",-999.0,0.0,0.738361120223999,6.485260009765625,0.5968352650254725,51.0,461.0,-4.0
Y,R,"[5, 7]",-999.0,0.0,0.5029339790344238,2.120619058609009,0.6174055598255834,51.0,462.0,-4.0
Y,R,"[5, 8]",-999.0,0.0,0.45123910903930664,2.097815990447998,0.6484712573995621,51.0,463.0,-4.0
G,D,"[6, 8]",-999.0,0.0,0.6101861000061035,1.868652105331421,0.2674347666554785,51.0,464.0,-4.0
Y,R,"[6, 9]",-999.0,0.0,0.5974969863891602,2.0625040531158447,0.4631095662747898,51.0,465.0,-4.0
Y,R,"[6, 10]",-999.0,0.0,0.34691786766052246,1.8188471794128418,0.465140851201559,51.0,466.0,-4.0
R,U,"[5, 10]",-999.0,0.0,0.6061668395996094,2.272304058074951,0.6705946634137081,51.0,467.0,-4.0
R,U,"[4, 10]",-999.0,0.0,0.5435340404510498,2.2271721363067627,0.6976624933704156,51.0,468.0,-4.0
R,U,"[3, 10]",-999.0,0.0,0.3560829162597656,1.8312602043151855,0.4791478605094242,51.0,469.0,-4.0
Y,R,"[3, 11]",-2.0,0.0,1.27280592918396,2.5421979427337646,0.3047739009978048,51.0,470.0,1.0
,,"(6, 6)",,,,,,,,
R,U,"[5, 6]",1.0,1.0,0.6705331802368164,3.212635040283203,0.4005338452444256,52.0,471.0,0.0
Y,R,"[5, 7]",1.0,2.0,0.25374722480773926,1.796821117401123,0.5475281125699345,52.0,472.0,0.0
Y,R,"[5, 8]",1.0,3.0,0.2507481575012207,1.688378095626831,0.43575093646042007,52.0,473.0,0.0
G,D,"[6, 8]",1.0,4.0,0.41260504722595215,1.8298301696777344,0.4154537220960375,52.0,474.0,0.0
Y,R,"[6, 9]",1.0,5.0,0.2492690086364746,1.8247041702270508,0.5733521378355457,52.0,475.0,0.0
Y,R,"[6, 10]",1.0,6.0,0.44043612480163574,1.85418701171875,0.41089512322105903,52.0,476.0,0.0
R,U,"[5, 10]",1.0,7.0,0.2865021228790283,1.8393900394439697,0.5667151571719029,52.0,477.0,0.0
R,U,"[4, 10]",1.0,8.0,0.22743678092956543,1.9365248680114746,0.7031052461713737,52.0,478.0,0.0
B,L,"[4, 9]",1.0,9.0,0.20499897003173828,1.4879100322723389,0.29141389841144955,52.0,479.0,0.0
R,U,"[3, 9]",1.0,10.0,0.24069595336914062,1.8280830383300781,0.5857888342830772,52.0,480.0,0.0
,,"(6, 6)",,,,,,,,
R,U,"[5, 6]",-999.0,0.0,0.34949588775634766,2.825145959854126,0.5611254886079712,53.0,481.0,-4.0
Y,R,"[5, 7]",-999.0,0.0,0.5666508674621582,2.0211281776428223,0.4654347087944877,53.0,482.0,-4.0
Y,R,"[5, 8]",-999.0,0.0,0.3112480640411377,2.0295510292053223,0.711355611083526,53.0,483.0,-4.0
R,U,"[4, 8]",-999.0,0.0,0.600736141204834,2.2863821983337402,0.6977906915451323,53.0,484.0,-4.0
B,L,"[4, 7]",-2.0,0.0,1.0955710411071777,2.374048948287964,0.305493109209864,53.0,485.0,1.0
,,"(6, 6)",,,,,,,,
R,U,"[5, 6]",-2.0,0.0,1.2207109928131104,3.9926438331604004,0.31472035855419317,54.0,486.0,0.0
Y,R,"[5, 7]",1.0,1.0,0.66190505027771,2.042904853820801,0.37417353626622646,54.0,487.0,0.0
Y,R,"[5, 8]",1.0,2.0,0.3305220603942871,1.7680590152740479,0.44215566471642265,54.0,488.0,0.0
G,D,"[6, 8]",1.0,3.0,0.32387804985046387,1.7615900039672852,0.4370740888655474,54.0,489.0,0.0
Y,R,"[6, 9]",1.0,4.0,0.5011589527130127,2.047667980194092,0.5512413293141836,54.0,490.0,0.0
,,"(6, 6)",,,,,,,,
B,L,"[6, 9]",-2.0,0.0,1.0387871265411377,6.259068012237549,0.37705735694753795,55.0,491.0,-5.0
B,L,"[6, 9]",-999.0,0.0,0.39209699630737305,2.0858500003814697,0.7130321120465404,55.0,492.0,-5.0
R,U,"[6, 9]",-2.0,0.0,1.319139003753662,2.7462270259857178,0.45888220375628314,55.0,493.0,-5.0
R,U,"[6, 9]",-999.0,0.0,0.3597249984741211,1.671983003616333,0.3143636600167725,55.0,494.0,-5.0
R,U,"[5, 9]",-2.0,0.0,1.0193722248077393,2.2927329540252686,0.30703578084474165,55.0,495.0,1.0
,,"(6, 6)",,,,,,,,
R,U,"[5, 6]",1.0,1.0,0.4946279525756836,3.0679819583892822,0.29161089158763637,56.0,496.0,0.0
Y,R,"[5, 7]",1.0,2.0,0.2963731288909912,1.746953010559082,0.4549339353865491,56.0,497.0,0.0
Y,R,"[5, 8]",1.0,3.0,0.2703840732574463,1.9711358547210693,0.7092068229737536,56.0,498.0,0.0
G,D,"[6, 8]",1.0,4.0,0.41064000129699707,2.102813959121704,0.695343470740533,56.0,499.0,0.0
Y,R,"[6, 9]",-1.0,4.0,0.010475873947143555,5.644191026687622,0.572849792721652,56.0,500.0,0.0
,,"(6, 6)",,,,,,,,
R,U,"[5, 6]",1.0,1.0,0.6641910076141357,4.121841907501221,0.3614260722477943,57.0,501.0,0.0
Y,R,"[5, 7]",1.0,2.0,0.29393911361694336,1.9812898635864258,0.6923795557389341,57.0,502.0,0.0
Y,R,"[5, 8]",1.0,3.0,0.22260284423828125,1.8911099433898926,0.6668996972263954,57.0,503.0,0.0
G,D,"[6, 8]",1.0,4.0,0.1886138916015625,1.5574071407318115,0.37450939285614604,57.0,504.0,0.0
Y,R,"[6, 9]",1.0,5.0,0.2725551128387451,1.624758005142212,0.3493099498509748,57.0,505.0,0.0
Y,R,"[6, 10]",1.0,6.0,0.2892029285430908,1.6297798156738281,0.3290687503412816,57.0,506.0,0.0
R,U,"[5, 10]",1.0,7.0,0.2589378356933594,1.5251109600067139,0.25416043207372996,57.0,507.0,0.0
R,U,"[4, 10]",1.0,8.0,0.2983369827270508,1.5751841068267822,0.2793712314138978,57.0,508.0,0.0
B,L,"[4, 9]",1.0,9.0,0.24580001831054688,1.626270055770874,0.3720994187303897,57.0,509.0,0.0
R,U,"[3, 9]",1.0,10.0,0.3021869659423828,1.653195858001709,0.3585703805240586,57.0,510.0,0.0
,,"(6, 6)",,,,,,,,
R,U,"[5, 6]",1.0,1.0,0.406419038772583,3.0450849533081055,0.7366218354410469,58.0,511.0,0.0
Y,R,"[5, 7]",1.0,2.0,0.2621490955352783,2.003000020980835,0.7394625299548179,58.0,512.0,0.0
Y,R,"[5, 8]",1.0,3.0,0.8821589946746826,2.4689760208129883,0.5919006353930127,58.0,513.0,0.0
G,D,"[6, 8]",1.0,4.0,0.23072600364685059,1.9599390029907227,0.7355491180661629,58.0,514.0,0.0
Y,R,"[6, 9]",1.0,5.0,0.24582815170288086,1.543138027191162,0.29514084298747734,58.0,515.0,0.0
Y,R,"[6, 10]",1.0,6.0,0.2682650089263916,1.7144501209259033,0.45945273183967783,58.0,516.0,0.0
R,U,"[5, 10]",1.0,7.0,0.282818078994751,1.6617040634155273,0.3878752247693986,58.0,517.0,0.0
R,U,"[4, 10]",1.0,8.0,0.8859210014343262,2.3687150478363037,0.4898469983313972,58.0,518.0,0.0
B,L,"[4, 9]",1.0,9.0,0.23838496208190918,1.6215791702270508,0.39474032527475095,58.0,519.0,0.0
R,U,"[3, 9]",1.0,10.0,0.24411320686340332,1.5766820907592773,0.33814193089561795,58.0,520.0,0.0
,,"(6, 6)",,,,,,,,
R,U,"[5, 6]",-999.0,0.0,0.6119110584259033,5.696090936660767,0.3508162501068074,59.0,521.0,-4.0
Y,R,"[5, 7]",-999.0,0.0,0.4483819007873535,1.9845960140228271,0.5351607985964437,59.0,522.0,-4.0
Y,R,"[5, 8]",-999.0,0.0,0.6079709529876709,1.8606572151184082,0.2625920417898174,59.0,523.0,-4.0
R,U,"[4, 8]",-999.0,0.0,0.42821288108825684,1.8298931121826172,0.39245667012364144,59.0,524.0,-4.0
R,U,"[3, 8]",-999.0,0.0,0.9856398105621338,2.6945230960845947,0.7200564220545616,59.0,525.0,1.0
,,"(6, 6)",,,,,,,,
B,L,"[3, 8]",-999.0,0.0,0.784837007522583,4.6269309520721436,0.5802520775688649,60.0,526.0,-5.0
B,L,"[3, 8]",-999.0,0.0,0.5812599658966064,1.9307348728179932,0.3445148089131489,60.0,527.0,-5.0
R,U,"[3, 8]",-999.0,0.0,0.5935819149017334,2.0819969177246094,0.4929336300060492,60.0,528.0,-5.0
R,U,"[3, 8]",-999.0,0.0,0.379209041595459,1.6915788650512695,0.31809589704537755,60.0,529.0,-5.0
Y,R,"[3, 9]",-999.0,0.0,0.7942399978637695,2.397230863571167,0.5982835010549807,60.0,530.0,1.0
,,"(6, 6)",,,,,,,,
R,U,"[5, 6]",-2.0,0.0,1.1436738967895508,6.122648000717163,0.5374987381168503,61.0,531.0,0.0
Y,R,"[5, 7]",1.0,1.0,0.17948389053344727,1.845829963684082,0.6665014110169262,61.0,532.0,0.0
Y,R,"[5, 8]",1.0,2.0,0.17441701889038086,1.6673691272735596,0.4839949506408406,61.0,533.0,0.0
G,D,"[6, 8]",1.0,3.0,0.2640340328216553,1.7909040451049805,0.5248288262598484,61.0,534.0,0.0
Y,R,"[6, 9]",1.0,4.0,0.23546099662780762,1.636207103729248,0.41108313326408574,61.0,535.0,0.0
Y,R,"[6, 10]",1.0,5.0,0.37110209465026855,2.02946400642395,0.6735376277048191,61.0,536.0,0.0
R,U,"[5, 10]",1.0,6.0,0.20673084259033203,1.5006790161132812,0.29130253307224846,61.0,537.0,0.0
R,U,"[4, 10]",1.0,7.0,0.24500799179077148,1.7867751121520996,0.5445142925638777,61.0,538.0,0.0
B,L,"[4, 9]",1.0,8.0,0.2304239273071289,1.8153438568115234,0.5930551305467202,61.0,539.0,0.0
R,U,"[3, 9]",1.0,9.0,0.18877196311950684,1.9189260005950928,0.7284826123363359,61.0,540.0,0.0
,,"(6, 6)",,,,,,,,
R,U,"[5, 6]",1.0,1.0,0.39261913299560547,2.5817301273345947,0.3106148378176674,62.0,541.0,0.0
Y,R,"[5, 7]",1.0,2.0,0.1826629638671875,1.7206289768218994,0.5475977188145023,62.0,542.0,0.0
Y,R,"[5, 8]",1.0,3.0,0.31931090354919434,1.9858438968658447,0.6666055019570714,62.0,543.0,0.0
G,D,"[6, 8]",1.0,4.0,0.20197391510009766,1.5335240364074707,0.33379044324804547,62.0,544.0,0.0
Y,R,"[6, 9]",1.0,5.0,0.20569205284118652,1.7864820957183838,0.5698840304333557,62.0,545.0,0.0
Y,R,"[6, 10]",1.0,6.0,0.18468499183654785,1.6002299785614014,0.42033834743640136,62.0,546.0,0.0
R,U,"[5, 10]",1.0,7.0,0.2232809066772461,1.8828089237213135,0.6528637003624274,62.0,547.0,0.0
R,U,"[4, 10]",1.0,8.0,0.11695194244384766,1.3794469833374023,0.2659824800699178,62.0,548.0,0.0
B,L,"[4, 9]",1.0,9.0,0.24062514305114746,1.7903521060943604,0.5394313142229314,62.0,549.0,0.0
R,U,"[3, 9]",1.0,10.0,0.22433900833129883,1.6136739253997803,0.38652213663453955,62.0,550.0,0.0
,,"(6, 6)",,,,,,,,
R,U,"[5, 6]",1.0,1.0,0.49996399879455566,3.318605899810791,0.3716555529424991,63.0,551.0,0.0
Y,R,"[5, 7]",1.0,2.0,0.15206408500671387,1.4144608974456787,0.26947046442734685,63.0,552.0,0.0
Y,R,"[5, 8]",1.0,3.0,0.23218083381652832,1.858285903930664,0.627526635599085,63.0,553.0,0.0
G,D,"[6, 8]",1.0,4.0,0.18317103385925293,1.770211935043335,0.5977286330935294,63.0,554.0,0.0
Y,R,"[6, 9]",1.0,5.0,0.19380497932434082,1.523956060409546,0.32175982211695514,63.0,555.0,0.0
Y,R,"[6, 10]",1.0,6.0,0.281174898147583,1.7324638366699219,0.4541291866863006,63.0,556.0,0.0
R,U,"[5, 10]",1.0,7.0,0.17592215538024902,1.668686866760254,0.48950321036155997,63.0,557.0,0.0
R,U,"[4, 10]",-1.0,7.0,0.04578709602355957,5.8374810218811035,0.7264731459331542,63.0,558.0,0.0
R,U,"[3, 10]",0.0,7.0,0.35281896591186523,1.710508108139038,0.37080449445449165,63.0,559.0,0.0
R,U,"[2, 10]",0.0,7.0,0.29215312004089355,1.9001920223236084,0.6040234167371072,63.0,560.0,0.0
,,"(6, 6)",,,,,,,,
R,U,"[5, 6]",-999.0,0.0,0.4820430278778076,4.7424421310424805,0.579712330810322,64.0,561.0,-4.0
Y,R,"[5, 7]",-999.0,0.0,0.5173211097717285,1.809413194656372,0.28932510042240306,64.0,562.0,-4.0
Y,R,"[5, 8]",-999.0,0.0,0.4860661029815674,2.219675064086914,0.7418651310944201,64.0,563.0,-4.0
G,D,"[6, 8]",-999.0,0.0,0.28740596771240234,1.9961230754852295,0.7211917780088275,64.0,564.0,-4.0
Y,R,"[6, 9]",-999.0,0.0,0.22434496879577637,1.4972939491271973,0.2856751364801701,64.0,565.0,-4.0
Y,R,"[6, 10]",-999.0,0.0,0.33633995056152344,1.6088619232177734,0.2777493169641378,64.0,566.0,-4.0
R,U,"[5, 10]",-999.0,0.0,0.5585641860961914,1.874675989151001,0.33574679120217726,64.0,567.0,-4.0
R,U,"[4, 10]",-999.0,0.0,0.24897408485412598,1.7201869487762451,0.472444217041798,64.0,568.0,-4.0
R,U,"[3, 10]",-999.0,0.0,0.7283329963684082,2.1629369258880615,0.4353230090540678,64.0,569.0,-4.0
B,L,"[3, 9]",-999.0,0.0,0.3400101661682129,1.905148983001709,0.5569894739520871,64.0,570.0,1.0
,,"(6, 6)",,,,,,,,
R,U,"[5, 6]",1.0,1.0,0.6297800540924072,6.25151515007019,0.30874115210118047,65.0,571.0,0.0
Y,R,"[5, 7]",1.0,2.0,0.26260900497436523,1.6669120788574219,0.40876887468926165,65.0,572.0,0.0
Y,R,"[5, 8]",1.0,3.0,0.35192298889160156,1.8399760723114014,0.49865577197630134,65.0,573.0,0.0
G,D,"[6, 8]",1.0,4.0,0.1829540729522705,1.5878150463104248,0.4031572267911989,65.0,574.0,0.0
Y,R,"[6, 9]",1.0,5.0,0.2735869884490967,1.8362350463867188,0.5559149475523562,65.0,575.0,0.0
Y,R,"[6, 10]",1.0,6.0,0.16117095947265625,1.5742769241333008,0.4135765141759501,65.0,576.0,0.0
R,U,"[5, 10]",1.0,7.0,0.20106792449951172,1.479935884475708,0.27694857656197513,65.0,577.0,0.0
R,U,"[4, 10]",1.0,8.0,0.20519590377807617,1.6926968097686768,0.48608592649890225,65.0,578.0,0.0
B,L,"[4, 9]",1.0,9.0,0.26233887672424316,1.5172410011291504,0.25340209469264807,65.0,579.0,0.0
R,U,"[3, 9]",1.0,10.0,0.25845789909362793,1.9839718341827393,0.720383183386205,65.0,580.0,0.0
,,"(6, 6)",,,,,,,,
R,U,"[5, 6]",1.0,1.0,0.33547377586364746,3.330739974975586,0.567757864024398,66.0,581.0,0.0
Y,R,"[5, 7]",1.0,2.0,0.20878815650939941,1.7456271648406982,0.5301313188522387,66.0,582.0,0.0
Y,R,"[5, 8]",1.0,3.0,0.21578502655029297,1.955064058303833,0.7350307144462116,66.0,583.0,0.0
G,D,"[6, 8]",1.0,4.0,0.14482402801513672,1.6314990520477295,0.4833367801056762,66.0,584.0,0.0
Y,R,"[6, 9]",1.0,5.0,0.17938804626464844,1.923563003540039,0.7398200528525105,66.0,585.0,0.0
Y,R,"[6, 10]",1.0,6.0,0.5217950344085693,1.9158470630645752,0.40609933328067344,66.0,586.0,0.0
R,U,"[5, 10]",1.0,7.0,0.2293109893798828,1.6154592037200928,0.3881178613825969,66.0,587.0,0.0
R,U,"[4, 10]",1.0,8.0,0.3130531311035156,1.7176220417022705,0.4059101981520809,66.0,588.0,0.0
B,L,"[4, 9]",1.0,9.0,0.2837491035461426,1.7770521640777588,0.4993265484175482,66.0,589.0,0.0
R,U,"[3, 9]",1.0,10.0,0.1993849277496338,1.9221529960632324,0.7211340768859251,66.0,590.0,0.0
,,"(6, 6)",,,,,,,,
B,L,"[3, 9]",-999.0,0.0,0.9297289848327637,3.825669050216675,0.4138191812171775,67.0,591.0,-5.0
B,L,"[3, 9]",-999.0,0.0,0.45537590980529785,2.187169075012207,0.7338213917411136,67.0,592.0,-5.0
R,U,"[3, 9]",-999.0,0.0,0.5290951728820801,2.1590499877929688,0.6263126122170309,67.0,593.0,-5.0
R,U,"[3, 9]",-999.0,0.0,0.2839639186859131,1.959662914276123,0.6859847877508385,67.0,594.0,-5.0
Y,R,"[3, 10]",-2.0,0.0,1.1853880882263184,2.7778379917144775,0.6304517389709494,67.0,595.0,1.0
,,"(6, 6)",,,,,,,,
B,L,"[3, 10]",-999.0,0.0,0.7184128761291504,4.316680192947388,0.4805331182031631,68.0,596.0,-5.0
B,L,"[3, 10]",-999.0,0.0,0.2832169532775879,1.812635898590088,0.5264210968359492,68.0,597.0,-5.0
R,U,"[3, 10]",-999.0,0.0,0.6392171382904053,2.1575539112091064,0.5338571269819605,68.0,598.0,-5.0
R,U,"[3, 10]",-999.0,0.0,0.2596099376678467,1.964643955230713,0.7150190708934394,68.0,599.0,-5.0
Y,R,"[3, 11]",-2.0,0.0,1.0249009132385254,2.515475034713745,0.5139343262496041,68.0,600.0,1.0
,,"(6, 6)",,,,,,,,
Y,R,"[6, 7]",0.0,0.0,0.7140631675720215,3.8012919425964355,0.7320106891452531,69.0,601.0,0.0
Y,R,"[6, 8]",1.0,1.0,0.2141740322113037,1.6393458843231201,0.42117835563856176,69.0,602.0,0.0
Y,R,"[6, 9]",1.0,2.0,0.20762205123901367,1.7924270629882812,0.5800841108629139,69.0,603.0,0.0
G,D,"[7, 9]",0.0,2.0,0.23577618598937988,1.9122018814086914,0.6757940055388311,69.0,604.0,0.0
Y,R,"[7, 10]",0.0,2.0,0.1829369068145752,1.802495002746582,0.6279224047846407,69.0,605.0,0.0
Y,R,"[7, 11]",0.0,2.0,0.21779704093933105,1.4824540615081787,0.27738529642287485,69.0,606.0,0.0
R,U,"[6, 11]",0.0,2.0,0.22143912315368652,1.7252180576324463,0.519093629681199,69.0,607.0,0.0
R,U,"[5, 11]",0.0,2.0,0.25914692878723145,1.8013391494750977,0.5370266134702955,69.0,608.0,0.0
R,U,"[4, 11]",0.0,2.0,0.2482748031616211,1.8302350044250488,0.5837480611170047,69.0,609.0,0.0
B,L,"[4, 10]",1.0,3.0,0.19103002548217773,1.5831458568572998,0.38380136677998244,69.0,610.0,0.0
,,"(6, 6)",,,,,,,,
R,U,"[5, 6]",-2.0,0.0,1.159379005432129,5.1185688972473145,0.5354313566461675,70.0,611.0,-4.0
Y,R,"[5, 7]",-999.0,0.0,0.5390942096710205,1.8994650840759277,0.3684319470441343,70.0,612.0,-4.0
Y,R,"[5, 8]",-999.0,0.0,0.4417130947113037,1.714949131011963,0.283447044991245,70.0,613.0,-4.0
G,D,"[6, 8]",-999.0,0.0,0.9769768714904785,2.6190900802612305,0.6519974426244903,70.0,614.0,-4.0
Y,R,"[6, 9]",-999.0,0.0,0.5614328384399414,1.8202931880950928,0.25602120026553854,70.0,615.0,-4.0
Y,R,"[6, 10]",-999.0,0.0,0.47767114639282227,2.2208211421966553,0.7429366544530622,70.0,616.0,-4.0
R,U,"[5, 10]",-999.0,0.0,0.4759640693664551,1.9986789226531982,0.5417721481745433,70.0,617.0,-4.0
R,U,"[4, 10]",-999.0,0.0,0.27811503410339355,1.8346550464630127,0.5597871158308441,70.0,618.0,-4.0
R,U,"[3, 10]",-999.0,0.0,0.29322290420532227,1.6883671283721924,0.4149477358741538,70.0,619.0,-4.0
R,U,"[2, 10]",-999.0,0.0,0.8069541454315186,2.1071290969848633,0.28878658659716916,70.0,620.0,1.0
,,"(6, 6)",,,,,,,,
R,U,"[5, 6]",1.0,1.0,0.5601291656494141,3.3061859607696533,0.2615580718181176,71.0,621.0,0.0
Y,R,"[5, 7]",1.0,2.0,0.2676858901977539,1.532315969467163,0.27702123906295556,71.0,622.0,0.0
Y,R,"[5, 8]",1.0,3.0,0.35043978691101074,2.0053870677948,0.6657935659866933,71.0,623.0,0.0
G,D,"[6, 8]",-1.0,3.0,0.09751415252685547,5.531252861022949,0.36351861962596826,71.0,624.0,0.0
Y,R,"[6, 9]",1.0,4.0,0.5321822166442871,1.8003809452056885,0.2638888216239792,71.0,625.0,0.0
Y,R,"[6, 10]",1.0,5.0,0.5111649036407471,1.785973072052002,0.2665252655017252,71.0,626.0,0.0
R,U,"[5, 10]",1.0,6.0,0.2987689971923828,1.7132568359375,0.41294314319208303,71.0,627.0,0.0
R,U,"[4, 10]",1.0,7.0,0.26216912269592285,2.0146420001983643,0.7443152985496125,71.0,628.0,0.0
B,L,"[4, 9]",1.0,8.0,0.204085111618042,1.558716058731079,0.36948066141337194,71.0,629.0,0.0
R,U,"[3, 9]",1.0,9.0,0.26645922660827637,1.6634421348571777,0.3995583102625452,71.0,630.0,0.0
,,"(6, 6)",,,,,,,,
R,U,"[5, 6]",1.0,1.0,0.6994791030883789,5.0734710693359375,0.7059318891070769,72.0,631.0,0.0
Y,R,"[5, 7]",1.0,2.0,0.2870359420776367,1.6960299015045166,0.4189959489469409,72.0,632.0,0.0
Y,R,"[5, 8]",1.0,3.0,0.3670370578765869,2.0028882026672363,0.6380614965530629,72.0,633.0,0.0
G,D,"[6, 8]",1.0,4.0,0.2011580467224121,1.830367088317871,0.6351354221267077,72.0,634.0,0.0
Y,R,"[6, 9]",1.0,5.0,0.157027006149292,1.622725009918213,0.4581259985868837,72.0,635.0,0.0
Y,R,"[6, 10]",1.0,6.0,0.2530179023742676,1.632582187652588,0.3906916443126385,72.0,636.0,0.0
R,U,"[5, 10]",1.0,7.0,0.23871111869812012,1.4846389293670654,0.25876068780862177,72.0,637.0,0.0
R,U,"[4, 10]",1.0,8.0,0.28444409370422363,1.8034868240356445,0.5284977563605197,72.0,638.0,0.0
B,L,"[4, 9]",1.0,9.0,0.18899106979370117,1.7874181270599365,0.6161403387368415,72.0,639.0,0.0
R,U,"[3, 9]",1.0,10.0,0.2913210391998291,1.9921259880065918,0.6915251524969439,72.0,640.0,0.0
,,"(6, 6)",,,,,,,,
R,U,"[5, 6]",1.0,1.0,0.43268299102783203,3.5708069801330566,0.3122913029632613,73.0,641.0,0.0
Y,R,"[5, 7]",1.0,2.0,0.21262598037719727,1.7192940711975098,0.49803411555597954,73.0,642.0,0.0
Y,R,"[5, 8]",1.0,3.0,0.21694517135620117,1.586273193359375,0.36771205826969294,73.0,643.0,0.0
G,D,"[6, 8]",1.0,4.0,0.415647029876709,1.7042388916015625,0.2886315588736758,73.0,644.0,0.0
Y,R,"[6, 9]",1.0,5.0,0.3737919330596924,1.6809468269348145,0.3028315512618008,73.0,645.0,0.0
Y,R,"[6, 10]",1.0,6.0,0.2292039394378662,1.9416661262512207,0.7107474334872115,73.0,646.0,0.0
R,U,"[5, 10]",1.0,7.0,0.42694807052612305,1.8844869136810303,0.4621377924802579,73.0,647.0,0.0
R,U,"[4, 10]",1.0,8.0,0.161851167678833,1.8673908710479736,0.6959023898551655,73.0,648.0,0.0
B,L,"[4, 9]",1.0,9.0,0.1156470775604248,1.7690508365631104,0.6482586385680158,73.0,649.0,0.0
R,U,"[3, 9]",1.0,10.0,0.20269107818603516,1.5691168308258057,0.36768678625320833,73.0,650.0,0.0
,,"(6, 6)",,,,,,,,
R,U,"[5, 6]",1.0,1.0,0.47944188117980957,3.440114974975586,0.6572967346545722,74.0,651.0,0.0
Y,R,"[5, 7]",1.0,2.0,0.25144481658935547,1.6849219799041748,0.44251264834790294,74.0,652.0,0.0
Y,R,"[5, 8]",1.0,3.0,0.2431168556213379,1.858733892440796,0.6176455964930199,74.0,653.0,0.0
G,D,"[6, 8]",1.0,4.0,0.18748903274536133,1.7731568813323975,0.5740210261492448,74.0,654.0,0.0
Y,R,"[6, 9]",1.0,5.0,0.18375205993652344,1.8703081607818604,0.6942919096030054,74.0,655.0,0.0
Y,R,"[6, 10]",1.0,6.0,0.19813299179077148,1.7520720958709717,0.5631255823790902,74.0,656.0,0.0
R,U,"[5, 10]",1.0,7.0,0.2358250617980957,1.6433401107788086,0.4065077251725913,74.0,657.0,0.0
R,U,"[4, 10]",1.0,8.0,0.23310518264770508,1.6027750968933105,0.37588986276297737,74.0,658.0,0.0
B,L,"[4, 9]",1.0,9.0,0.1865990161895752,1.7102971076965332,0.5361091634327682,74.0,659.0,0.0
R,U,"[3, 9]",1.0,10.0,0.19691896438598633,1.892693042755127,0.6952437129586405,74.0,660.0,0.0
,,"(6, 6)",,,,,,,,
R,U,"[5, 6]",1.0,1.0,0.21511006355285645,4.689990043640137,0.6685256737907295,75.0,661.0,0.0
Y,R,"[5, 7]",1.0,2.0,0.19600796699523926,1.5508689880371094,0.35296214151586125,75.0,662.0,0.0
Y,R,"[5, 8]",1.0,3.0,0.2540140151977539,1.7121148109436035,0.4647968777159053,75.0,663.0,0.0
G,D,"[6, 8]",1.0,4.0,0.19941997528076172,1.5125620365142822,0.3109544985541735,75.0,664.0,0.0
Y,R,"[6, 9]",1.0,5.0,0.30329084396362305,2.032464027404785,0.743351971044221,75.0,665.0,0.0
Y,R,"[6, 10]",1.0,6.0,0.2069559097290039,1.8588719367980957,0.6517160733177633,75.0,666.0,0.0
R,U,"[5, 10]",-1.0,6.0,0.06844115257263184,5.427846908569336,0.29638670296528785,75.0,667.0,0.0
R,U,"[4, 10]",1.0,7.0,0.4138798713684082,2.1266469955444336,0.7061162008352133,75.0,668.0,0.0
B,L,"[4, 9]",1.0,8.0,0.5061759948730469,1.8297119140625,0.3193861077677692,75.0,669.0,0.0
R,U,"[3, 9]",1.0,9.0,0.494891881942749,2.0071139335632324,0.509643279158577,75.0,670.0,0.0
,,"(6, 6)",,,,,,,,
R,U,"[5, 6]",1.0,1.0,0.36681604385375977,6.668675184249878,0.27822855505194455,76.0,671.0,0.0
Y,R,"[5, 7]",1.0,2.0,0.2511870861053467,1.670543909072876,0.4319366866456181,76.0,672.0,0.0
Y,R,"[5, 8]",1.0,3.0,0.24280309677124023,1.9952759742736816,0.7436846207902896,76.0,673.0,0.0
G,D,"[6, 8]",1.0,4.0,0.22944998741149902,1.901947021484375,0.6789784722143175,76.0,674.0,0.0
Y,R,"[6, 9]",1.0,5.0,0.2640399932861328,1.5476319789886475,0.2769637858803948,76.0,675.0,0.0
Y,R,"[6, 10]",1.0,6.0,0.2234499454498291,1.6409339904785156,0.4175831907952622,76.0,676.0,0.0
R,U,"[5, 10]",1.0,7.0,0.24695396423339844,1.5108649730682373,0.26202640889673756,76.0,677.0,0.0
R,U,"[4, 10]",1.0,8.0,0.23924517631530762,1.908513069152832,0.670000976562749,76.0,678.0,0.0
B,L,"[4, 9]",1.0,9.0,0.23973894119262695,1.5163309574127197,0.26998742346674703,76.0,679.0,0.0
R,U,"[3, 9]",1.0,10.0,0.34902000427246094,1.8507959842681885,0.5041945757546853,76.0,680.0,0.0
,,"(6, 6)",,,,,,,,
R,U,"[5, 6]",1.0,1.0,0.2175309658050537,4.153637170791626,0.47413844708691477,77.0,681.0,0.0
Y,R,"[5, 7]",1.0,2.0,0.2039780616760254,1.820723056793213,0.6283187456302513,77.0,682.0,0.0
Y,R,"[5, 8]",1.0,3.0,0.26564598083496094,1.7125329971313477,0.45736005437009064,77.0,683.0,0.0
G,D,"[6, 8]",1.0,4.0,0.27765989303588867,1.5782639980316162,0.3023433531528764,77.0,684.0,0.0
Y,R,"[6, 9]",1.0,5.0,0.8464860916137695,2.3019959926605225,0.4542108882533837,77.0,685.0,0.0
Y,R,"[6, 10]",1.0,6.0,0.11035585403442383,1.5459208488464355,0.43342374639640013,77.0,686.0,0.0
R,U,"[5, 10]",1.0,7.0,0.23245787620544434,1.7386419773101807,0.50521573885087,77.0,687.0,0.0
R,U,"[4, 10]",1.0,8.0,0.2659749984741211,1.7817749977111816,0.5203514265908973,77.0,688.0,0.0
B,L,"[4, 9]",1.0,9.0,0.18167495727539062,1.5209739208221436,0.34144043082490144,77.0,689.0,0.0
R,U,"[3, 9]",1.0,10.0,0.20714092254638672,1.512718915939331,0.30409485851907697,77.0,690.0,0.0
,,"(6, 6)",,,,,,,,
B,L,"[3, 9]",-999.0,0.0,0.7865800857543945,4.922640800476074,0.6430128185686997,78.0,691.0,-5.0
B,L,"[3, 9]",-999.0,0.0,0.32553601264953613,1.7939908504486084,0.4871239914075595,78.0,692.0,-5.0
R,U,"[3, 9]",-999.0,0.0,0.7755880355834961,2.366391897201538,0.6033643232845405,78.0,693.0,-5.0
R,U,"[3, 9]",-999.0,0.0,0.23090696334838867,1.7947869300842285,0.5646971050380037,78.0,694.0,-5.0
Y,R,"[3, 10]",-999.0,0.0,0.4128708839416504,2.0974481105804443,0.6787855207724239,78.0,695.0,1.0
,,"(6, 6)",,,,,,,,
B,L,"[3, 10]",-2.0,0.0,1.2946481704711914,5.571324110031128,0.5001166142823572,79.0,696.0,-5.0
B,L,"[3, 10]",-999.0,0.0,0.2123119831085205,1.800800085067749,0.5841597019707581,79.0,697.0,-5.0
R,U,"[3, 10]",-999.0,0.0,0.2511458396911621,1.6618871688842773,0.41269863373071286,79.0,698.0,-5.0
R,U,"[3, 10]",-999.0,0.0,0.24673700332641602,1.9879019260406494,0.7335989909297366,79.0,699.0,-5.0
Y,R,"[3, 11]",-999.0,0.0,0.4341161251068115,2.1286609172821045,0.6955698280045104,79.0,700.0,1.0
,,"(6, 6)",,,,,,,,
G,D,"[7, 6]",0.0,0.0,0.42403101921081543,3.6325509548187256,0.6447614338198255,80.0,701.0,0.0
B,L,"[7, 5]",0.0,0.0,0.21904802322387695,1.5467159748077393,0.34170983467059385,80.0,702.0,0.0
R,U,"[6, 5]",0.0,0.0,0.26205992698669434,1.8699588775634766,0.6114403207675936,80.0,703.0,0.0
R,U,"[5, 5]",0.0,0.0,0.20446395874023438,1.679914951324463,0.4916742479128638,80.0,704.0,0.0
B,L,"[5, 4]",0.0,0.0,0.24402809143066406,1.8135888576507568,0.5717512373390861,80.0,705.0,0.0
R,U,"[4, 4]",0.0,0.0,0.298321008682251,2.002121925354004,0.7068152854872161,80.0,706.0,0.0
R,U,"[3, 4]",0.0,0.0,0.26930904388427734,1.7296268939971924,0.4699223859811109,80.0,707.0,0.0
B,L,"[3, 3]",0.0,0.0,0.21898388862609863,1.7508270740509033,0.5377248688886367,80.0,708.0,0.0
B,L,"[3, 2]",0.0,0.0,0.28101205825805664,1.9737639427185059,0.6942394785254307,80.0,709.0,0.0
R,U,"[2, 2]",0.0,0.0,0.19629907608032227,1.7573490142822266,0.5682205492546935,80.0,710.0,0.0
,,"(6, 6)",,,,,,,,
R,U,"[5, 6]",1.0,1.0,0.4135260581970215,3.1217849254608154,0.7232665945755317,81.0,711.0,0.0
Y,R,"[5, 7]",1.0,2.0,0.1800088882446289,1.729306936264038,0.5527174949261269,81.0,712.0,0.0
Y,R,"[5, 8]",1.0,3.0,0.2105848789215088,1.8556718826293945,0.6415037975963216,81.0,713.0,0.0
G,D,"[6, 8]",1.0,4.0,0.18056297302246094,1.571687936782837,0.3968325638550541,81.0,714.0,0.0
Y,R,"[6, 9]",1.0,5.0,0.24350500106811523,1.5801541805267334,0.32700715069594183,81.0,715.0,0.0
Y,R,"[6, 10]",1.0,6.0,0.2128441333770752,1.6810569763183594,0.4744584298552262,81.0,716.0,0.0
R,U,"[5, 10]",1.0,7.0,0.8282041549682617,2.191133975982666,0.3656995795190109,81.0,717.0,0.0
R,U,"[4, 10]",1.0,8.0,0.21117520332336426,1.7033109664916992,0.4854151299820874,81.0,718.0,0.0
B,L,"[4, 9]",1.0,9.0,0.20346522331237793,1.474442958831787,0.27672399233772127,81.0,719.0,0.0
R,U,"[3, 9]",1.0,10.0,0.2759969234466553,1.6888461112976074,0.43211832759797336,81.0,720.0,0.0
,,"(6, 6)",,,,,,,,
G,D,"[3, 9]",-999.0,0.0,0.8622739315032959,3.1640241146087646,0.2629215895080673,82.0,721.0,-5.0
G,D,"[3, 9]",-999.0,0.0,0.3359658718109131,2.030811071395874,0.6932153229790596,82.0,722.0,-5.0
G,D,"[3, 9]",-999.0,0.0,0.385113000869751,1.745069980621338,0.37180213464309797,82.0,723.0,-5.0
B,L,"[3, 9]",-999.0,0.0,0.6081099510192871,2.030580997467041,0.4356590907239466,82.0,724.0,-5.0
B,L,"[3, 9]",-999.0,0.0,0.28378987312316895,1.8315398693084717,0.5504668510109083,82.0,725.0,-5.0
R,U,"[3, 9]",-999.0,0.0,0.6984457969665527,2.254199981689453,0.5545687152758396,82.0,726.0,-5.0
R,U,"[3, 9]",-999.0,0.0,0.2761070728302002,1.667344093322754,0.40538806970211044,82.0,727.0,-5.0
B,L,"[3, 9]",-999.0,0.0,0.7320661544799805,2.116481065750122,0.3883721375461289,82.0,728.0,-5.0
B,L,"[3, 9]",-999.0,0.0,0.3521411418914795,1.999047040939331,0.6537605662857819,82.0,729.0,-5.0
R,U,"[2, 9]",-999.0,0.0,0.2360210418701172,1.8632478713989258,0.6337483031572743,82.0,730.0,1.0
,,"(6, 6)",,,,,,,,
B,L,"[6, 5]",0.0,0.0,0.9111449718475342,4.141618967056274,0.40883763312725224,83.0,731.0,0.0
G,D,"[7, 5]",0.0,0.0,0.10594606399536133,1.3726000785827637,0.2648769795210604,83.0,732.0,0.0
Y,R,"[7, 6]",0.0,0.0,0.6299359798431396,2.285902976989746,0.6503853984009762,83.0,733.0,0.0
Y,R,"[7, 7]",0.0,0.0,0.16631603240966797,1.909745216369629,0.7433419859953864,83.0,734.0,0.0
R,U,"[6, 7]",0.0,0.0,0.20531702041625977,1.5621850490570068,0.35577892712814163,83.0,735.0,0.0
R,U,"[5, 7]",1.0,1.0,0.2786579132080078,1.9414410591125488,0.6635541719225693,83.0,736.0,0.0
B,L,"[5, 6]",1.0,2.0,0.231583833694458,1.6532177925109863,0.4170283072359539,83.0,737.0,0.0
R,U,"[4, 6]",0.0,2.0,0.21064996719360352,1.7948989868164062,0.5782621057592117,83.0,738.0,0.0
B,L,"[4, 5]",0.0,2.0,0.636387825012207,2.2663021087646484,0.6445622674819425,83.0,739.0,0.0
R,U,"[3, 5]",0.0,2.0,0.6509661674499512,2.098605155944824,0.4599238335395007,83.0,740.0,0.0
,,"(6, 6)",,,,,,,,
R,U,"[5, 6]",1.0,1.0,0.3602180480957031,3.2920589447021484,0.4019854205894208,84.0,741.0,0.0
Y,R,"[5, 7]",1.0,2.0,0.22454285621643066,1.5126469135284424,0.281368206828666,84.0,742.0,0.0
Y,R,"[5, 8]",1.0,3.0,0.2748291492462158,1.774918794631958,0.4893388778444742,84.0,743.0,0.0
G,D,"[6, 8]",1.0,4.0,0.6611771583557129,2.2818119525909424,0.6214051997229801,84.0,744.0,0.0
Y,R,"[6, 9]",1.0,5.0,0.20883512496948242,1.6341438293457031,0.421863807107203,84.0,745.0,0.0
Y,R,"[6, 10]",1.0,6.0,0.23641490936279297,1.4974560737609863,0.2695321328965068,84.0,746.0,0.0
R,U,"[5, 10]",1.0,7.0,0.35549187660217285,1.885180950164795,0.5378011788191628,84.0,747.0,0.0
R,U,"[4, 10]",1.0,8.0,0.20796990394592285,1.5032289028167725,0.2910997959910133,84.0,748.0,0.0
B,L,"[4, 9]",1.0,9.0,0.40316295623779297,1.6568009853363037,0.2646598271460154,84.0,749.0,0.0
R,U,"[3, 9]",1.0,10.0,0.20943117141723633,1.8912110328674316,0.6721058681832308,84.0,750.0,0.0
,,"(6, 6)",,,,,,,,
R,U,"[5, 6]",-999.0,0.0,0.5666100978851318,3.2757411003112793,0.6975803139081631,85.0,751.0,-4.0
Y,R,"[5, 7]",-999.0,0.0,0.22879910469055176,1.590461015701294,0.35503791893584236,85.0,752.0,-4.0
Y,R,"[5, 8]",-999.0,0.0,0.7574918270111084,2.199320077896118,0.45436369436705626,85.0,753.0,-4.0
R,U,"[4, 8]",-999.0,0.0,0.9572420120239258,2.629824161529541,0.6838296626113811,85.0,754.0,-4.0
B,L,"[4, 7]",-2.0,0.0,1.1530418395996094,2.5938520431518555,0.47783715808204363,85.0,755.0,1.0
,,"(6, 6)",,,,,,,,
Y,R,"[6, 7]",0.0,0.0,0.56109619140625,4.830415964126587,0.6078940486558426,86.0,756.0,0.0
R,U,"[5, 7]",1.0,1.0,0.3737161159515381,1.7428269386291504,0.3676299629006626,86.0,757.0,0.0
Y,R,"[5, 8]",1.0,2.0,0.36949896812438965,2.0993099212646484,0.733290710227034,86.0,758.0,0.0
G,D,"[6, 8]",1.0,3.0,0.2643711566925049,1.8695850372314453,0.6028135839994113,86.0,759.0,0.0
Y,R,"[6, 9]",1.0,4.0,0.21358489990234375,1.5807290077209473,0.36718944197410003,86.0,760.0,0.0
,,"(6, 6)",,,,,,,,
R,U,"[5, 6]",-999.0,0.0,0.7045371532440186,4.082247018814087,0.5824680560086318,87.0,761.0,-4.0
Y,R,"[5, 7]",-999.0,0.0,0.3869619369506836,1.701742172241211,0.3178086946728399,87.0,762.0,-4.0
Y,R,"[5, 8]",-999.0,0.0,0.5099160671234131,1.7730340957641602,0.2574231316607979,87.0,763.0,-4.0
R,U,"[4, 8]",-999.0,0.0,0.826228141784668,2.0888898372650146,0.2796535219226073,87.0,764.0,-4.0
R,U,"[3, 8]",-999.0,0.0,0.7744262218475342,2.3056349754333496,0.518259013636273,87.0,765.0,1.0
,,"(6, 6)",,,,,,,,
R,U,"[5, 6]",-999.0,0.0,0.6355559825897217,4.425243139266968,0.6604589937435333,88.0,766.0,-4.0
Y,R,"[5, 7]",-999.0,0.0,0.22945284843444824,1.937812089920044,0.7143353417953413,88.0,767.0,-4.0
Y,R,"[5, 8]",-999.0,0.0,0.42249202728271484,1.9174330234527588,0.4986044683200974,88.0,768.0,-4.0
G,D,"[6, 8]",-2.0,0.0,1.1758508682250977,2.645153045654297,0.5104632443493478,88.0,769.0,-4.0
Y,R,"[6, 9]",-999.0,0.0,0.5604431629180908,2.1701951026916504,0.6137360765874772,88.0,770.0,-4.0
,,"(6, 6)",,,,,,,,
G,D,"[6, 9]",-999.0,0.0,0.8710019588470459,4.7092859745025635,0.2897642848212169,89.0,771.0,-5.0
G,D,"[6, 9]",-999.0,0.0,0.6121180057525635,2.0070550441741943,0.39665171736401855,89.0,772.0,-5.0
G,D,"[6, 9]",-999.0,0.0,0.4874591827392578,2.2257068157196045,0.7387545362236587,89.0,773.0,-5.0
B,L,"[6, 9]",-999.0,0.0,0.46790289878845215,1.7539079189300537,0.29313337959947544,89.0,774.0,-5.0
B,L,"[6, 9]",-999.0,0.0,0.40070295333862305,1.9240307807922363,0.5336131504911019,89.0,775.0,-5.0
R,U,"[6, 9]",-999.0,0.0,0.5663700103759766,2.298121929168701,0.7312894725734533,89.0,776.0,-5.0
R,U,"[6, 9]",-999.0,0.0,0.3354518413543701,1.8281898498535156,0.4930326543781197,89.0,777.0,-5.0
B,L,"[6, 9]",-999.0,0.0,0.5896439552307129,2.0098490715026855,0.43631411583336166,89.0,778.0,-5.0
B,L,"[6, 9]",-999.0,0.0,0.328995943069458,1.6614270210266113,0.33108742734889257,89.0,779.0,-5.0
R,U,"[5, 9]",-999.0,0.0,0.753666877746582,2.006060838699341,0.2537567064055684,89.0,780.0,1.0
,,"(6, 6)",,,,,,,,
R,U,"[5, 6]",1.0,1.0,0.5136878490447998,3.2025718688964844,0.2896600637883711,90.0,781.0,0.0
Y,R,"[5, 7]",1.0,2.0,0.12424206733703613,1.441748857498169,0.3145675582827682,90.0,782.0,0.0
Y,R,"[5, 8]",1.0,3.0,0.15822410583496094,1.5671310424804688,0.39833698494873576,90.0,783.0,0.0
G,D,"[6, 8]",1.0,4.0,0.21264004707336426,1.509093999862671,0.2907516172582338,90.0,784.0,0.0
Y,R,"[6, 9]",1.0,5.0,0.20859789848327637,1.8587961196899414,0.6493194389888095,90.0,785.0,0.0
Y,R,"[6, 10]",-1.0,5.0,0.08397984504699707,5.42386794090271,0.2566890558821857,90.0,786.0,0.0
R,U,"[5, 10]",1.0,6.0,0.2602660655975342,1.8118128776550293,0.5514207671077813,90.0,787.0,0.0
R,U,"[4, 10]",1.0,7.0,0.1904621124267578,1.4598758220672607,0.26164625781766015,90.0,788.0,0.0
B,L,"[4, 9]",1.0,8.0,0.3095359802246094,1.639420986175537,0.3343391408179637,90.0,789.0,0.0
R,U,"[3, 9]",1.0,9.0,0.2685058116912842,1.797856092453003,0.5318296964371313,90.0,790.0,0.0
,,"(6, 6)",,,,,,,,
R,U,"[5, 6]",-999.0,0.0,0.6119990348815918,2.8693010807037354,0.6177234369073675,91.0,791.0,-4.0
Y,R,"[5, 7]",-999.0,0.0,0.5239310264587402,1.9783389568328857,0.4627497612942191,91.0,792.0,-4.0
Y,R,"[5, 8]",-999.0,0.0,0.5634379386901855,2.062011957168579,0.49165181672604025,91.0,793.0,-4.0
G,D,"[6, 8]",-999.0,0.0,0.30190515518188477,1.5745630264282227,0.28282629448819846,91.0,794.0,-4.0
Y,R,"[6, 9]",-999.0,0.0,0.7820570468902588,2.110224962234497,0.32620425374141554,91.0,795.0,-4.0
Y,R,"[6, 10]",-999.0,0.0,0.2930450439453125,1.9221930503845215,0.6481146734915211,91.0,796.0,-4.0
R,U,"[5, 10]",-999.0,0.0,0.2597079277038574,1.6159961223602295,0.36424271519234985,91.0,797.0,-4.0
R,U,"[4, 10]",-999.0,0.0,0.21808505058288574,1.7309770584106445,0.5118276618858844,91.0,798.0,-4.0
R,U,"[3, 10]",-999.0,0.0,0.6204290390014648,1.9690940380096436,0.3642700942425203,91.0,799.0,-4.0
B,L,"[3, 9]",-999.0,0.0,0.7379989624023438,2.3352510929107666,0.5992288102498888,91.0,800.0,1.0
,,"(6, 6)",,,,,,,,
R,U,"[5, 6]",-2.0,0.0,1.0313410758972168,4.148694038391113,0.7477073342340621,92.0,801.0,0.0
Y,R,"[5, 7]",1.0,1.0,0.1906740665435791,1.8763489723205566,0.6740352954387134,92.0,802.0,0.0
Y,R,"[5, 8]",1.0,2.0,0.24289894104003906,1.6573841571807861,0.41510935972456586,92.0,803.0,0.0
G,D,"[6, 8]",1.0,3.0,0.4563009738922119,1.8403599262237549,0.3720036566406914,92.0,804.0,0.0
G,D,"[7, 8]",0.0,3.0,0.40697693824768066,2.068274974822998,0.656658949574574,92.0,805.0,0.0
Y,R,"[7, 9]",0.0,3.0,0.5034480094909668,1.9274568557739258,0.4343375782609585,92.0,806.0,0.0
R,U,"[6, 9]",1.0,4.0,0.2608919143676758,1.743236780166626,0.4774959388565792,92.0,807.0,0.0
B,L,"[6, 8]",0.0,4.0,0.2425670623779297,1.8821160793304443,0.6426934011979566,92.0,808.0,0.0
R,U,"[5, 8]",0.0,4.0,0.22330379486083984,1.7318449020385742,0.5245788975354424,92.0,809.0,0.0
R,U,"[4, 8]",0.0,4.0,0.22088193893432617,1.8443009853363037,0.6354808152804117,92.0,810.0,0.0
,,"(6, 6)",,,,,,,,
R,U,"[5, 6]",1.0,1.0,0.24085593223571777,3.521535873413086,0.457226194831121,93.0,811.0,0.0
Y,R,"[5, 7]",-1.0,1.0,0.02864980697631836,5.366701126098633,0.27377593930338395,93.0,812.0,0.0
Y,R,"[5, 8]",1.0,2.0,0.24046707153320312,1.568721055984497,0.3423925826317236,93.0,813.0,0.0
G,D,"[6, 8]",1.0,3.0,0.3268108367919922,1.6715638637542725,0.3473480385170266,93.0,814.0,0.0
Y,R,"[6, 9]",1.0,4.0,0.3504769802093506,1.6650958061218262,0.31227024265657227,93.0,815.0,0.0
Y,R,"[6, 10]",1.0,5.0,0.22479581832885742,1.6993250846862793,0.4615447872066606,93.0,816.0,0.0
R,U,"[5, 10]",1.0,6.0,0.2164769172668457,1.7110710144042969,0.5058726786938199,93.0,817.0,0.0
R,U,"[4, 10]",1.0,7.0,0.17578387260437012,1.4820959568023682,0.30480594195972727,93.0,818.0,0.0
B,L,"[4, 9]",1.0,8.0,0.2891101837158203,1.6156179904937744,0.3204125761196774,93.0,819.0,0.0
R,U,"[3, 9]",1.0,9.0,0.22077107429504395,1.8541080951690674,0.6407313304879404,93.0,820.0,0.0
,,"(6, 6)",,,,,,,,
R,U,"[5, 6]",1.0,1.0,0.32086992263793945,3.958098888397217,0.6154754809331924,94.0,821.0,0.0
Y,R,"[5, 7]",1.0,2.0,0.2700040340423584,1.784682035446167,0.5167870434268692,94.0,822.0,0.0
Y,R,"[5, 8]",1.0,3.0,0.22778892517089844,1.9361331462860107,0.7026807450192774,94.0,823.0,0.0
G,D,"[6, 8]",1.0,4.0,0.39051294326782227,1.9227430820465088,0.5256619233864495,94.0,824.0,0.0
Y,R,"[6, 9]",1.0,5.0,0.1486818790435791,1.5658202171325684,0.4249105130905294,94.0,825.0,0.0
Y,R,"[6, 10]",1.0,6.0,0.11353397369384766,1.8147540092468262,0.7064234992205188,94.0,826.0,0.0
R,U,"[5, 10]",1.0,7.0,0.2663078308105469,1.7264909744262695,0.46627463186601736,94.0,827.0,0.0
R,U,"[4, 10]",1.0,8.0,0.22890210151672363,1.6534290313720703,0.41947274400860335,94.0,828.0,0.0
B,L,"[4, 9]",1.0,9.0,0.28998494148254395,1.8852031230926514,0.5877628029420631,94.0,829.0,0.0
R,U,"[3, 9]",1.0,10.0,0.27654099464416504,1.6476690769195557,0.36884055204153665,94.0,830.0,0.0
,,"(6, 6)",,,,,,,,
R,U,"[5, 6]",1.0,1.0,0.22934198379516602,3.597536087036133,0.4996245971592255,95.0,831.0,0.0
Y,R,"[5, 7]",1.0,2.0,0.288585901260376,1.6373658180236816,0.3537681978468623,95.0,832.0,0.0
Y,R,"[5, 8]",1.0,3.0,0.2862870693206787,1.8975348472595215,0.6175687970214272,95.0,833.0,0.0
G,D,"[6, 8]",1.0,4.0,0.2206099033355713,1.6436779499053955,0.42815880800311157,95.0,834.0,0.0
Y,R,"[6, 9]",1.0,5.0,0.22519493103027344,1.8875739574432373,0.6654273205699601,95.0,835.0,0.0
Y,R,"[6, 10]",1.0,6.0,0.23083996772766113,1.6978960037231445,0.4635987077750465,95.0,836.0,0.0
R,U,"[5, 10]",1.0,7.0,0.470134973526001,1.9596960544586182,0.4897023114477746,95.0,837.0,0.0
R,U,"[4, 10]",1.0,8.0,0.24582505226135254,1.6005969047546387,0.3569475554336871,95.0,838.0,0.0
B,L,"[4, 9]",1.0,9.0,0.5438899993896484,2.228208065032959,0.6849813069643755,95.0,839.0,0.0
R,U,"[3, 9]",1.0,10.0,0.21449589729309082,1.4870069026947021,0.2722572669929502,95.0,840.0,0.0
,,"(6, 6)",,,,,,,,
R,U,"[5, 6]",-999.0,0.0,0.4778878688812256,4.774285078048706,0.34646288672700104,96.0,841.0,-4.0
Y,R,"[5, 7]",-999.0,0.0,0.23049211502075195,1.6731281280517578,0.4361665511929798,96.0,842.0,-4.0
Y,R,"[5, 8]",-999.0,0.0,0.25011181831359863,1.646468162536621,0.3992585708634846,96.0,843.0,-4.0
G,D,"[6, 8]",-999.0,0.0,0.35526204109191895,1.7734839916229248,0.4227111256905029,96.0,844.0,-4.0
Y,R,"[6, 9]",-999.0,0.0,0.25441789627075195,1.5861551761627197,0.3423340361915116,96.0,845.0,-4.0
Y,R,"[6, 10]",-999.0,0.0,0.24320387840270996,1.8736450672149658,0.6321319224617028,96.0,846.0,-4.0
R,U,"[5, 10]",-999.0,0.0,0.419694185256958,1.7383580207824707,0.3208269448283811,96.0,847.0,-4.0
R,U,"[4, 10]",-999.0,0.0,0.16133904457092285,1.431501865386963,0.2689029911746077,96.0,848.0,-4.0
R,U,"[3, 10]",-999.0,0.0,0.38233208656311035,1.8939449787139893,0.5125907359274466,96.0,849.0,-4.0
B,L,"[3, 9]",-999.0,0.0,0.4370260238647461,1.9132981300354004,0.47586399011576097,96.0,850.0,1.0
,,"(6, 6)",,,,,,,,
G,D,"[3, 9]",-2.0,0.0,1.8300418853759766,5.579357147216797,0.5384340075119399,97.0,851.0,-5.0
G,D,"[3, 9]",-999.0,0.0,0.2586250305175781,1.9071009159088135,0.6620722695227486,97.0,852.0,-5.0
G,D,"[3, 9]",-999.0,0.0,0.29695916175842285,1.7808289527893066,0.47641489182861224,97.0,853.0,-5.0
B,L,"[3, 9]",-999.0,0.0,0.45325303077697754,1.7483220100402832,0.3081332851414249,97.0,854.0,-5.0
B,L,"[3, 9]",-999.0,0.0,0.33431100845336914,1.724303960800171,0.3988520071487682,97.0,855.0,-5.0
R,U,"[3, 9]",-999.0,0.0,0.6682898998260498,2.0017600059509277,0.334076301741922,97.0,856.0,-5.0
R,U,"[3, 9]",-999.0,0.0,0.2510108947753906,1.677685022354126,0.42821178809010413,97.0,857.0,-5.0
B,L,"[3, 9]",-2.0,0.0,1.0844669342041016,2.372607946395874,0.33421443963776876,97.0,858.0,-5.0
B,L,"[3, 9]",-999.0,0.0,0.3939239978790283,2.0009310245513916,0.6016117902027018,97.0,859.0,-5.0
R,U,"[2, 9]",-999.0,0.0,0.46686387062072754,2.01420521736145,0.5490938246303679,97.0,860.0,1.0
,,"(6, 6)",,,,,,,,
G,D,"[2, 9]",-999.0,0.0,0.9025630950927734,4.087269067764282,0.6027526804478232,98.0,861.0,-5.0
G,D,"[2, 9]",-999.0,0.0,0.23385095596313477,1.5364840030670166,0.30639383128869924,98.0,862.0,-5.0
G,D,"[2, 9]",-999.0,0.0,0.32451510429382324,1.9381098747253418,0.6274439792820572,98.0,863.0,-5.0
B,L,"[2, 9]",-999.0,0.0,0.5661649703979492,2.01845121383667,0.46254981355197167,98.0,864.0,-5.0
B,L,"[2, 9]",-999.0,0.0,0.3180680274963379,1.8715829849243164,0.5507639188380781,98.0,865.0,-5.0
R,U,"[2, 9]",-999.0,0.0,0.5410828590393066,1.8559279441833496,0.3235381335842428,98.0,866.0,-5.0
R,U,"[2, 9]",-999.0,0.0,0.5290858745574951,1.9820342063903809,0.4554030040029027,98.0,867.0,-5.0
B,L,"[2, 9]",-999.0,0.0,0.8757429122924805,2.1885159015655518,0.31073143212556686,98.0,868.0,-5.0
B,L,"[2, 9]",-999.0,0.0,0.34940505027770996,1.8169729709625244,0.47746429911088367,98.0,869.0,-5.0
Y,R,"[2, 10]",-999.0,0.0,0.5210928916931152,2.0945911407470703,0.5719101788245347,98.0,870.0,1.0
,,"(6, 6)",,,,,,,,
G,D,"[2, 10]",-999.0,0.0,0.8019759654998779,3.7772810459136963,0.5823340744101289,99.0,871.0,-5.0
G,D,"[2, 10]",-999.0,0.0,0.20533299446105957,1.4893481731414795,0.2885769038106503,99.0,872.0,-5.0
G,D,"[2, 10]",-999.0,0.0,0.26718997955322266,1.5923199653625488,0.33092402536695026,99.0,873.0,-5.0
B,L,"[2, 10]",-999.0,0.0,0.5329399108886719,2.094994068145752,0.5589292561132302,99.0,874.0,-5.0
B,L,"[2, 10]",-999.0,0.0,0.24765300750732422,1.685349941253662,0.44442575431161996,99.0,875.0,-5.0
R,U,"[2, 10]",-999.0,0.0,0.7094111442565918,2.2889249324798584,0.5831250309672626,99.0,876.0,-5.0
R,U,"[2, 10]",-999.0,0.0,0.2503190040588379,1.5485689640045166,0.2985655372346666,99.0,877.0,-5.0
B,L,"[2, 10]",-999.0,0.0,0.7215359210968018,2.388235092163086,0.6696903977448033,99.0,878.0,-5.0
B,L,"[2, 10]",-999.0,0.0,0.36397504806518555,2.0481481552124023,0.6845534450740286,99.0,879.0,-5.0
G,D,"[3, 10]",-999.0,0.0,0.3622009754180908,1.6312470436096191,0.2661049453563753,99.0,880.0,1.0
,,"(6, 6)",,,,,,,,
R,U,"[5, 6]",1.0,1.0,0.7077751159667969,4.142135858535767,0.6244728610020547,100.0,881.0,0.0
Y,R,"[5, 7]",1.0,2.0,0.15021109580993652,1.4603679180145264,0.31841431811387905,100.0,882.0,0.0
Y,R,"[5, 8]",1.0,3.0,0.2665081024169922,1.56026291847229,0.29525495854993916,100.0,883.0,0.0
G,D,"[6, 8]",1.0,4.0,0.5650820732116699,2.047659158706665,0.49278129842377816,100.0,884.0,0.0
Y,R,"[6, 9]",1.0,5.0,0.16471314430236816,1.4293570518493652,0.2723904771491207,100.0,885.0,0.0
Y,R,"[6, 10]",1.0,6.0,0.21317410469055176,1.5009021759033203,0.2897891208321679,100.0,886.0,0.0
R,U,"[5, 10]",1.0,7.0,0.26118016242980957,1.9618868827819824,0.7012297063666426,100.0,887.0,0.0
R,U,"[4, 10]",-1.0,7.0,0.03404808044433594,5.640061855316162,0.5414174669680769,100.0,888.0,0.0
B,L,"[4, 9]",1.0,8.0,0.25110912322998047,1.524183988571167,0.2824586086973031,100.0,889.0,0.0
R,U,"[3, 9]",1.0,9.0,0.3327329158782959,1.639404058456421,0.3051209785745796,100.0,890.0,0.0
,,"(6, 6)",,,,,,,,
R,U,"[5, 6]",1.0,1.0,0.5748670101165771,3.273392915725708,0.34504703588945224,101.0,891.0,0.0
Y,R,"[5, 7]",1.0,2.0,0.3407249450683594,1.7963271141052246,0.4579002130461657,101.0,892.0,0.0
Y,R,"[5, 8]",1.0,3.0,0.302685022354126,1.6403999328613281,0.3484133019836681,101.0,893.0,0.0
G,D,"[6, 8]",1.0,4.0,0.3197169303894043,1.9509661197662354,0.6323061545309956,101.0,894.0,0.0
Y,R,"[6, 9]",1.0,5.0,0.255662202835083,1.735732078552246,0.46824196615056574,101.0,895.0,0.0
Y,R,"[6, 10]",1.0,6.0,0.29938316345214844,1.9955031871795654,0.6966539537678197,101.0,896.0,0.0
R,U,"[5, 10]",1.0,7.0,0.25839805603027344,1.5705690383911133,0.3009922560747234,101.0,897.0,0.0
R,U,"[4, 10]",1.0,8.0,0.26257801055908203,1.7673861980438232,0.5014736483299014,101.0,898.0,0.0
B,L,"[4, 9]",1.0,9.0,0.22402191162109375,1.7218239307403564,0.489880896451797,101.0,899.0,0.0
R,U,"[3, 9]",1.0,10.0,0.21543598175048828,1.6595439910888672,0.4495556904608563,101.0,900.0,0.0
,,"(6, 6)",,,,,,,,
R,U,"[5, 6]",1.0,1.0,0.5148019790649414,2.1147890090942383,0.26430402297747796,102.0,901.0,0.0
Y,R,"[5, 7]",1.0,2.0,0.3409900665283203,2.003034830093384,0.650388966221102,102.0,902.0,0.0
Y,R,"[5, 8]",1.0,3.0,0.25595617294311523,1.6231698989868164,0.35713465883306417,102.0,903.0,0.0
G,D,"[6, 8]",1.0,4.0,0.2745859622955322,1.8575739860534668,0.5811591999063648,102.0,904.0,0.0
Y,R,"[6, 9]",1.0,5.0,0.5085690021514893,1.8627378940582275,0.34403518804362465,102.0,905.0,0.0
Y,R,"[6, 10]",1.0,6.0,0.2305150032043457,1.6974809169769287,0.4745901146235165,102.0,906.0,0.0
R,U,"[5, 10]",1.0,7.0,0.32850003242492676,1.64693284034729,0.32162969375146905,102.0,907.0,0.0
R,U,"[4, 10]",1.0,8.0,0.30353403091430664,1.7660350799560547,0.47087345594467617,102.0,908.0,0.0
R,U,"[3, 10]",0.0,8.0,0.35096096992492676,1.6582951545715332,0.3126700401110424,102.0,909.0,0.0
R,U,"[2, 10]",0.0,8.0,0.3622920513153076,1.897002935409546,0.5261479524933129,102.0,910.0,0.0
,,"(6, 6)",,,,,,,,
R,U,"[5, 6]",1.0,1.0,0.397122859954834,3.0746939182281494,0.4673107038569361,103.0,911.0,0.0
Y,R,"[5, 7]",1.0,2.0,0.2947878837585449,1.8608407974243164,0.5615046911406237,103.0,912.0,0.0
Y,R,"[5, 8]",1.0,3.0,0.13754487037658691,1.5909368991851807,0.46917866962150817,103.0,913.0,0.0
G,D,"[6, 8]",1.0,4.0,0.14669299125671387,1.7428309917449951,0.5951350251237923,103.0,914.0,0.0
Y,R,"[6, 9]",-1.0,4.0,0.07963204383850098,5.672210216522217,0.5339430555549247,103.0,915.0,0.0
Y,R,"[6, 10]",1.0,5.0,0.34477686882019043,2.029165029525757,0.6799397977312207,103.0,916.0,0.0
R,U,"[5, 10]",1.0,6.0,0.26159095764160156,1.9304609298706055,0.6600483523151506,103.0,917.0,0.0
R,U,"[4, 10]",1.0,7.0,0.20773911476135254,1.8904860019683838,0.6837699886279809,103.0,918.0,0.0
B,L,"[4, 9]",1.0,8.0,0.2126941680908203,1.644840955734253,0.42884370703989527,103.0,919.0,0.0
R,U,"[3, 9]",1.0,9.0,0.24865484237670898,1.5493810176849365,0.2949934330725878,103.0,920.0,0.0
,,"(6, 6)",,,,,,,,
G,D,"[7, 6]",0.0,0.0,0.3697359561920166,3.6440939903259277,0.35560374584169446,104.0,921.0,0.0
G,D,"[8, 6]",0.0,0.0,0.2173020839691162,1.7076678276062012,0.4963372851917618,104.0,922.0,0.0
B,L,"[8, 5]",0.0,0.0,0.20461702346801758,1.480545997619629,0.27711823184844675,104.0,923.0,0.0
B,L,"[8, 4]",0.0,0.0,0.22992205619812012,1.9485349655151367,0.7256567240199016,104.0,924.0,0.0
R,U,"[7, 4]",0.0,0.0,0.20097804069519043,1.587778091430664,0.3966161547653483,104.0,925.0,0.0
R,U,"[6, 4]",0.0,0.0,0.21095895767211914,1.7161591053009033,0.4961231342241475,104.0,926.0,0.0
B,L,"[6, 3]",0.0,0.0,0.4423539638519287,2.0248889923095703,0.5707361341721024,104.0,927.0,0.0
B,L,"[6, 2]",0.0,0.0,0.15758419036865234,1.527311086654663,0.3648984580794949,104.0,928.0,0.0
B,L,"[6, 1]",0.0,0.0,0.24125289916992188,1.8603661060333252,0.6083021096349757,104.0,929.0,0.0
B,L,"[6, 2]",-3.0,0.0,0.801245927810669,2.1280291080474854,0.33657338782412843,104.0,930.0,0.0
,,"(6, 6)",,,,,,,,
R,U,"[5, 6]",1.0,1.0,0.45241308212280273,3.8286101818084717,0.49825584128889167,105.0,931.0,0.0
Y,R,"[5, 7]",1.0,2.0,0.20752191543579102,1.680544137954712,0.462076153300521,105.0,932.0,0.0
Y,R,"[5, 8]",1.0,3.0,0.14755988121032715,1.8045310974121094,0.6497533146218009,105.0,933.0,0.0
G,D,"[6, 8]",1.0,4.0,0.16618895530700684,1.6537091732025146,0.4869405574193863,105.0,934.0,0.0
Y,R,"[6, 9]",1.0,5.0,0.3221430778503418,1.6114411354064941,0.2985590226535407,105.0,935.0,0.0
Y,R,"[6, 10]",1.0,6.0,0.25347900390625,1.7566161155700684,0.5047729805231114,105.0,936.0,0.0
R,U,"[5, 10]",1.0,7.0,0.2054910659790039,1.4890720844268799,0.27739260242436486,105.0,937.0,0.0
R,U,"[4, 10]",1.0,8.0,0.25211620330810547,1.7672779560089111,0.5278145652356815,105.0,938.0,0.0
B,L,"[4, 9]",1.0,9.0,0.1986689567565918,1.776798963546753,0.587862462610689,105.0,939.0,0.0
R,U,"[3, 9]",1.0,10.0,0.16867399215698242,1.7366840839385986,0.574503192375629,105.0,940.0,0.0
,,"(6, 6)",,,,,,,,
R,U,"[5, 6]",1.0,1.0,0.31826114654541016,3.8177731037139893,0.54212184512181,106.0,941.0,0.0
Y,R,"[5, 7]",1.0,2.0,0.18206787109375,1.7595500946044922,0.584895963395099,106.0,942.0,0.0
Y,R,"[5, 8]",-1.0,2.0,0.08389902114868164,5.401796102523804,0.25357421786064555,106.0,943.0,0.0
Y,R,"[5, 9]",0.0,2.0,0.33837890625,1.7382171154022217,0.4083387864681099,106.0,944.0,0.0
R,U,"[4, 9]",1.0,3.0,0.40210890769958496,2.1128649711608887,0.7213669907140248,106.0,945.0,0.0
R,U,"[3, 9]",1.0,4.0,0.2932159900665283,1.9521610736846924,0.6564155926595915,106.0,946.0,0.0
B,L,"[3, 8]",0.0,4.0,0.23932909965515137,1.7006959915161133,0.4572361910439224,106.0,947.0,0.0
R,U,"[2, 8]",0.0,4.0,0.20131397247314453,1.75319504737854,0.5602563975390875,106.0,948.0,0.0
R,U,"[1, 8]",0.0,4.0,0.9102680683135986,2.313035011291504,0.4068071366804035,106.0,949.0,0.0
R,U,"[2, 8]",-3.0,4.0,0.28366589546203613,1.6095690727233887,0.33304964548890087,106.0,950.0,0.0
,,"(6, 6)",,,,,,,,
R,U,"[5, 6]",1.0,1.0,0.18273186683654785,3.666095018386841,0.29897317912379456,107.0,951.0,0.0
Y,R,"[5, 7]",1.0,2.0,0.4057338237762451,1.892204999923706,0.47437467283991247,107.0,952.0,0.0
Y,R,"[5, 8]",1.0,3.0,0.20492196083068848,1.9079029560089111,0.6987381650910895,107.0,953.0,0.0
G,D,"[6, 8]",1.0,4.0,0.12423110008239746,1.6170141696929932,0.4828754631484392,107.0,954.0,0.0
Y,R,"[6, 9]",1.0,5.0,0.2525360584259033,1.526648998260498,0.2759800064295572,107.0,955.0,0.0
Y,R,"[6, 10]",1.0,6.0,0.2658851146697998,1.8439970016479492,0.5862506878962224,107.0,956.0,0.0
R,U,"[5, 10]",1.0,7.0,0.2748239040374756,1.9650390148162842,0.6846343105676136,107.0,957.0,0.0
R,U,"[4, 10]",1.0,8.0,0.22519779205322266,1.7132611274719238,0.4812760457141297,107.0,958.0,0.0
B,L,"[4, 9]",1.0,9.0,0.2534968852996826,1.8028271198272705,0.5507568463740068,107.0,959.0,0.0
R,U,"[3, 9]",1.0,10.0,0.23252010345458984,1.9369981288909912,0.7041661723042189,107.0,960.0,0.0
,,"(6, 6)",,,,,,,,
R,U,"[5, 6]",1.0,1.0,0.20496201515197754,2.759227991104126,0.6305543438915747,108.0,961.0,0.0
Y,R,"[5, 7]",1.0,2.0,0.467987060546875,1.8795440196990967,0.40986108493728635,108.0,962.0,0.0
Y,R,"[5, 8]",1.0,3.0,0.19278407096862793,1.8685448169708252,0.6783373226205602,108.0,963.0,0.0
G,D,"[6, 8]",1.0,4.0,0.2211308479309082,1.632951021194458,0.4279414118020456,108.0,964.0,0.0
Y,R,"[6, 9]",1.0,5.0,0.27877283096313477,1.6909210681915283,0.41880941713397024,108.0,965.0,0.0
Y,R,"[6, 10]",1.0,6.0,0.22201299667358398,1.6755280494689941,0.4609520085726118,108.0,966.0,0.0
R,U,"[5, 10]",1.0,7.0,0.21712398529052734,1.6847009658813477,0.4788998041811274,108.0,967.0,0.0
R,U,"[4, 10]",1.0,8.0,0.3551337718963623,1.8341801166534424,0.47962815422936966,108.0,968.0,0.0
B,L,"[4, 9]",1.0,9.0,0.15477609634399414,1.4080071449279785,0.2544880072991014,108.0,969.0,0.0
R,U,"[3, 9]",1.0,10.0,0.26073598861694336,1.8584959506988525,0.5960043136661854,108.0,970.0,0.0
,,"(6, 6)",,,,,,,,
R,U,"[5, 6]",1.0,1.0,0.33104395866394043,2.05283784866333,0.2824323204993112,109.0,971.0,0.0
Y,R,"[5, 7]",1.0,2.0,0.27602100372314453,1.8641090393066406,0.5795773705028722,109.0,972.0,0.0
Y,R,"[5, 8]",-1.0,2.0,0.03166604042053223,5.713501214981079,0.6095517641147642,109.0,973.0,0.0
G,D,"[6, 8]",1.0,3.0,0.20229601860046387,1.5153460502624512,0.3250461563948749,109.0,974.0,0.0
Y,R,"[6, 9]",1.0,4.0,0.2807321548461914,1.750603199005127,0.47549482994207903,109.0,975.0,0.0
Y,R,"[6, 10]",1.0,5.0,0.11058902740478516,1.469696044921875,0.3620636650112479,109.0,976.0,0.0
R,U,"[5, 10]",1.0,6.0,0.3385448455810547,2.0077669620513916,0.6693003408781784,109.0,977.0,0.0
R,U,"[4, 10]",1.0,7.0,0.23021507263183594,1.8118479251861572,0.5812038066201504,109.0,978.0,0.0
B,L,"[4, 9]",1.0,8.0,0.20261096954345703,1.9401209354400635,0.7378758641892165,109.0,979.0,0.0
R,U,"[3, 9]",-1.0,8.0,0.04992103576660156,5.682050943374634,0.5700018944038046,109.0,980.0,0.0
,,"(6, 6)",,,,,,,,
R,U,"[5, 6]",1.0,1.0,0.44406795501708984,3.997955083847046,0.5845560147817955,110.0,981.0,0.0
Y,R,"[5, 7]",1.0,2.0,0.25177621841430664,1.725586175918579,0.4768833911522303,110.0,982.0,0.0
Y,R,"[5, 8]",1.0,3.0,0.2121419906616211,1.4870469570159912,0.2807019568303744,110.0,983.0,0.0
G,D,"[6, 8]",1.0,4.0,0.5062048435211182,1.8195240497589111,0.3001514599360295,110.0,984.0,0.0
Y,R,"[6, 9]",1.0,5.0,0.3574519157409668,1.7384929656982422,0.37189925853944206,110.0,985.0,0.0
Y,R,"[6, 10]",1.0,6.0,0.35707616806030273,1.8216218948364258,0.46002459880762053,110.0,986.0,0.0
R,U,"[5, 10]",1.0,7.0,0.2624318599700928,1.5133769512176514,0.25689607380467505,110.0,987.0,0.0
R,U,"[4, 10]",1.0,8.0,0.3719668388366699,1.8663959503173828,0.4896798335348078,110.0,988.0,0.0
B,L,"[4, 9]",1.0,9.0,0.2891080379486084,1.8167750835418701,0.5230679934925235,110.0,989.0,0.0
R,U,"[3, 9]",1.0,10.0,0.7376449108123779,2.0500450134277344,0.3232700872962532,110.0,990.0,0.0
,,"(6, 6)",,,,,,,,
R,U,"[5, 6]",1.0,1.0,0.45137500762939453,2.992271900177002,0.5486334401991021,111.0,991.0,0.0
Y,R,"[5, 7]",1.0,2.0,0.1673429012298584,1.425325870513916,0.25748998394017114,111.0,992.0,0.0
Y,R,"[5, 8]",1.0,3.0,0.5158071517944336,2.231451988220215,0.7217013039942577,111.0,993.0,0.0
G,D,"[6, 8]",1.0,4.0,0.22439885139465332,1.9398939609527588,0.7117088232541533,111.0,994.0,0.0
Y,R,"[6, 9]",1.0,5.0,0.21858000755310059,1.518679141998291,0.31393744342716473,111.0,995.0,0.0
Y,R,"[6, 10]",1.0,6.0,0.3466629981994629,2.063688039779663,0.7106750616793953,111.0,996.0,0.0
R,U,"[5, 10]",1.0,7.0,0.3179619312286377,1.893671989440918,0.587626732644304,111.0,997.0,0.0
R,U,"[4, 10]",1.0,8.0,0.22961902618408203,1.6078529357910156,0.37904629010372554,111.0,998.0,0.0
B,L,"[4, 9]",1.0,9.0,0.2859988212585449,1.648392915725708,0.36064767634275796,111.0,999.0,0.0
B,L,"[4, 8]",0.0,9.0,0.30458593368530273,1.6310389041900635,0.3418053042326591,111.0,1000.0,0.0
