button_choice,action_choice,coordinate_choice,reward,cumulative_reward,rt,total_trial_time,iti,block_n,trial_n,trial_type
B,L,"[6, 5]",-2.0,0.0,1.3535010814666748,2.9680919647216797,0.5855578832110402,0.0,1.0,0.0
Y,R,"[6, 6]",0.0,0.0,0.3207831382751465,1.7243399620056152,0.3102692543045094,0.0,2.0,0.0
G,D,"[7, 6]",-2.0,0.0,1.3735780715942383,2.907963991165161,0.5013139029652586,0.0,3.0,0.0
R,U,"[6, 6]",0.0,0.0,0.5766570568084717,2.2533888816833496,0.5714196097096605,0.0,4.0,0.0
R,U,"[5, 6]",1.0,1.0,0.6026508808135986,2.2805569171905518,0.5686430495462145,0.0,5.0,0.0
Y,R,"[5, 7]",1.0,2.0,0.18460607528686523,1.845332145690918,0.5640777900013703,0.0,6.0,0.0
B,L,"[5, 6]",0.0,2.0,0.21358704566955566,1.8969340324401855,0.5778207042920303,0.0,7.0,0.0
Y,R,"[5, 7]",0.0,2.0,0.17733383178710938,1.7870688438415527,0.5149829538455746,0.0,8.0,0.0
Y,R,"[5, 8]",1.0,3.0,0.1223900318145752,1.5809080600738525,0.3461180546219795,0.0,9.0,0.0
G,D,"[6, 8]",1.0,4.0,0.2519989013671875,1.7453830242156982,0.39145335599583536,0.0,10.0,0.0
,,"(6, 6)",,,,,,,,
Y,R,"[6, 7]",0.0,0.0,0.5809290409088135,7.219478130340576,0.5608392953341225,1.0,11.0,0.0
Y,R,"[6, 8]",1.0,1.0,0.1811690330505371,1.6514711380004883,0.3793561581332515,1.0,12.0,0.0
G,D,"[7, 8]",-1.0,1.0,0.029851913452148438,5.915764093399048,0.7453324666785192,1.0,13.0,0.0
B,L,"[7, 7]",0.0,1.0,0.29784703254699707,1.8588600158691406,0.4709097003994869,1.0,14.0,0.0
R,U,"[6, 7]",0.0,1.0,0.13928914070129395,1.7679719924926758,0.52204694989296,1.0,15.0,0.0
R,U,"[5, 7]",1.0,2.0,0.11891794204711914,1.7217178344726562,0.5105400015705315,1.0,16.0,0.0
Y,R,"[5, 8]",1.0,3.0,0.1231379508972168,1.5523359775543213,0.32990306074711423,1.0,17.0,0.0
R,U,"[4, 8]",0.0,3.0,0.1893470287322998,1.936763048171997,0.6334635318303266,1.0,18.0,0.0
G,D,"[5, 8]",0.0,3.0,0.16026592254638672,1.9008188247680664,0.6338268188083904,1.0,19.0,0.0
B,L,"[5, 7]",0.0,3.0,0.27837610244750977,1.7888989448547363,0.4064086758421902,1.0,20.0,0.0
,,"(6, 6)",,,,,,,,
Y,R,"[6, 7]",0.0,0.0,0.1415400505065918,4.25429105758667,0.3108338131704308,2.0,21.0,0.0
B,L,"[6, 6]",0.0,0.0,0.1134648323059082,1.5271480083465576,0.3212489734688761,2.0,22.0,0.0
Y,R,"[6, 7]",0.0,0.0,0.13005614280700684,1.6160039901733398,0.38727857012471434,2.0,23.0,0.0
Y,R,"[6, 8]",-1.0,0.0,0.02310490608215332,5.628975868225098,0.4830428162024279,2.0,24.0,0.0
Y,R,"[6, 9]",1.0,1.0,0.18894004821777344,1.8682379722595215,0.5680082978205891,2.0,25.0,0.0
G,D,"[7, 9]",-1.0,1.0,0.0026988983154296875,5.381575107574463,0.25013733080474176,2.0,26.0,0.0
R,U,"[6, 9]",-1.0,1.0,0.0501859188079834,5.780012130737305,0.5964525660045967,2.0,27.0,0.0
R,U,"[5, 9]",0.0,1.0,0.5680179595947266,2.136327028274536,0.46636811026470293,2.0,28.0,0.0
B,L,"[5, 8]",1.0,2.0,0.5208091735839844,2.0423309803009033,0.425400608756573,2.0,29.0,0.0
G,D,"[6, 8]",0.0,2.0,0.42658281326293945,2.1871140003204346,0.6624078010104442,2.0,30.0,0.0
,,"(6, 6)",,,,,,,,
B,L,"[6, 5]",0.0,0.0,0.8344569206237793,4.582926988601685,0.3789799141584918,3.0,31.0,0.0
Y,R,"[6, 6]",0.0,0.0,0.24749398231506348,1.7071821689605713,0.36972130051888347,3.0,32.0,0.0
G,D,"[7, 6]",0.0,0.0,0.3735020160675049,1.7399649620056152,0.25980654296121275,3.0,33.0,0.0
R,U,"[6, 6]",0.0,0.0,0.4713118076324463,2.0701329708099365,0.5130530643360991,3.0,34.0,0.0
B,L,"[6, 5]",0.0,0.0,0.21492600440979004,1.7881910800933838,0.46818898494696504,3.0,35.0,0.0
B,L,"[6, 4]",0.0,0.0,0.3847689628601074,1.8312761783599854,0.3494954421107057,3.0,36.0,0.0
B,L,"[6, 3]",0.0,0.0,0.3195641040802002,2.1275980472564697,0.71009364411011,3.0,37.0,0.0
B,L,"[6, 2]",0.0,0.0,0.2007918357849121,1.744577169418335,0.45500226122379245,3.0,38.0,0.0
Y,R,"[6, 3]",0.0,0.0,0.40710997581481934,1.892038106918335,0.38027285451254816,3.0,39.0,0.0
B,L,"[6, 2]",0.0,0.0,0.34485316276550293,1.998358964920044,0.5453125894305008,3.0,40.0,0.0
,,"(6, 6)",,,,,,,,
B,L,"[6, 5]",0.0,0.0,0.5880250930786133,7.2209858894348145,0.25017554860969266,4.0,41.0,0.0
Y,R,"[6, 6]",0.0,0.0,0.3293931484222412,1.9814460277557373,0.5481058486358603,4.0,42.0,0.0
Y,R,"[6, 7]",0.0,0.0,0.26230692863464355,2.1124660968780518,0.7436651433180252,4.0,43.0,0.0
G,D,"[7, 7]",0.0,0.0,0.4733560085296631,2.017850160598755,0.46189029977336993,4.0,44.0,0.0
R,U,"[6, 7]",0.0,0.0,0.4117569923400879,2.1315970420837402,0.6267765238175527,4.0,45.0,0.0
R,U,"[5, 7]",1.0,1.0,0.1864941120147705,1.8248238563537598,0.551823443331233,4.0,46.0,0.0
G,D,"[6, 7]",0.0,1.0,0.4103219509124756,1.8891940116882324,0.3744641875613882,4.0,47.0,0.0
R,U,"[5, 7]",0.0,1.0,0.1639881134033203,1.681962013244629,0.42302370298310105,4.0,48.0,0.0
R,U,"[4, 7]",0.0,1.0,0.2075819969177246,2.0404419898986816,0.7300101382022604,4.0,49.0,0.0
B,L,"[4, 6]",0.0,1.0,0.1677701473236084,2.0021419525146484,0.7322003506735235,4.0,50.0,0.0
,,"(6, 6)",,,,,,,,
B,L,"[6, 5]",0.0,0.0,0.9300539493560791,4.239048957824707,0.3218810348558031,5.0,51.0,0.0
Y,R,"[6, 6]",0.0,0.0,0.41359901428222656,2.1638760566711426,0.6520796251658199,5.0,52.0,0.0
Y,R,"[6, 7]",0.0,0.0,0.22315311431884766,1.605767011642456,0.2749492284260882,5.0,53.0,0.0
Y,R,"[6, 8]",1.0,1.0,0.35796594619750977,2.080306053161621,0.6214464875874985,5.0,54.0,0.0
Y,R,"[6, 9]",1.0,2.0,0.4116508960723877,1.9798660278320312,0.468116696910515,5.0,55.0,0.0
Y,R,"[6, 10]",1.0,3.0,0.2755160331726074,1.847294807434082,0.4654646371688635,5.0,56.0,0.0
Y,R,"[6, 11]",0.0,3.0,0.2105550765991211,1.5908870697021484,0.2731177038372398,5.0,57.0,0.0
G,D,"[7, 11]",0.0,3.0,0.3861219882965088,1.751276969909668,0.2744911436489583,5.0,58.0,0.0
G,D,"[8, 11]",0.0,3.0,0.3164820671081543,1.8995940685272217,0.4903712293843566,5.0,59.0,0.0
R,U,"[7, 11]",0.0,3.0,0.2184138298034668,1.5918359756469727,0.2825880676851921,5.0,60.0,0.0
,,"(6, 6)",,,,,,,,
Y,R,"[6, 7]",0.0,0.0,0.9479739665985107,3.9337639808654785,0.2995802903024432,6.0,61.0,0.0
R,U,"[5, 7]",1.0,1.0,0.1872539520263672,1.786815881729126,0.5028303214483095,6.0,62.0,0.0
R,U,"[4, 7]",0.0,1.0,0.12013888359069824,1.5727479457855225,0.35901590492889396,6.0,63.0,0.0
R,U,"[3, 7]",0.0,1.0,0.22154998779296875,1.8264110088348389,0.5019698809622045,6.0,64.0,0.0
G,D,"[4, 7]",0.0,1.0,0.25830698013305664,1.6430668830871582,0.27861353362804847,6.0,65.0,0.0
B,L,"[4, 6]",0.0,1.0,0.3811228275299072,1.9903159141540527,0.5186140513446311,6.0,66.0,0.0
B,L,"[4, 5]",0.0,1.0,0.13401007652282715,1.9145238399505615,0.6829830909240523,6.0,67.0,0.0
B,L,"[4, 4]",0.0,1.0,0.3052489757537842,1.8061769008636475,0.4061072424261168,6.0,68.0,0.0
B,L,"[4, 3]",0.0,1.0,0.2363128662109375,1.5831310749053955,0.25594289128231035,6.0,69.0,0.0
B,L,"[4, 2]",0.0,1.0,0.2930119037628174,1.9262809753417969,0.5320313785331265,6.0,70.0,0.0
,,"(6, 6)",,,,,,,,
B,L,"[6, 5]",0.0,0.0,0.7830989360809326,4.7908618450164795,0.6893690115106872,7.0,71.0,0.0
Y,R,"[6, 6]",0.0,0.0,0.3774271011352539,2.0965797901153564,0.6193532196189402,7.0,72.0,0.0
Y,R,"[6, 7]",0.0,0.0,0.205610990524292,1.6288549900054932,0.3151942274382604,7.0,73.0,0.0
Y,R,"[6, 8]",1.0,1.0,0.2716488838195801,1.6854422092437744,0.3006930305435566,7.0,74.0,0.0
Y,R,"[6, 9]",1.0,2.0,0.2633399963378906,1.628373146057129,0.2623806230587037,7.0,75.0,0.0
Y,R,"[6, 10]",1.0,3.0,0.278472900390625,1.8058280944824219,0.43463428418567535,7.0,76.0,0.0
Y,R,"[6, 11]",0.0,3.0,0.18259811401367188,1.9279601573944092,0.6456337945464021,7.0,77.0,0.0
Y,R,"[6, 10]",-3.0,3.0,0.18368911743164062,1.9783039093017578,0.690695077682207,7.0,78.0,0.0
Y,R,"[6, 11]",0.0,3.0,0.2390139102935791,1.7334020137786865,0.3908320144648589,7.0,79.0,0.0
Y,R,"[6, 10]",-3.0,3.0,0.24983620643615723,1.7752790451049805,0.43301336052523637,7.0,80.0,0.0
,,"(6, 6)",,,,,,,,
G,D,"[7, 6]",0.0,0.0,0.6638410091400146,6.627508163452148,0.4938115442079294,8.0,81.0,0.0
G,D,"[8, 6]",0.0,0.0,0.24099278450012207,1.8776230812072754,0.5377985405582868,8.0,82.0,0.0
G,D,"[9, 6]",0.0,0.0,0.23914813995361328,1.5968289375305176,0.2517719429916605,8.0,83.0,0.0
G,D,"[10, 6]",0.0,0.0,0.17002081871032715,1.716843843460083,0.4515909813081199,8.0,84.0,0.0
G,D,"[11, 6]",0.0,0.0,0.1661369800567627,1.5992188453674316,0.33421600314882216,8.0,85.0,0.0
R,U,"[10, 6]",-1.0,0.0,0.005281925201416016,5.813666105270386,0.6808695047696609,8.0,86.0,0.0
R,U,"[9, 6]",0.0,0.0,0.8937170505523682,2.636630058288574,0.6343177496329615,8.0,87.0,0.0
R,U,"[8, 6]",0.0,0.0,0.19442296028137207,1.7781779766082764,0.4792333252411328,8.0,88.0,0.0
R,U,"[7, 6]",0.0,0.0,0.20621204376220703,1.9788169860839844,0.6578304992247433,8.0,89.0,0.0
R,U,"[6, 6]",0.0,0.0,0.1947648525238037,1.87168288230896,0.579652831049938,8.0,90.0,0.0
,,"(6, 6)",,,,,,,,
B,L,"[6, 5]",0.0,0.0,0.64705491065979,4.277865886688232,0.5241889796639041,9.0,91.0,0.0
B,L,"[6, 4]",0.0,0.0,0.4918100833892822,2.110764980316162,0.5184512287499031,9.0,92.0,0.0
B,L,"[6, 3]",0.0,0.0,0.1695709228515625,1.7192890644073486,0.4543114533338025,9.0,93.0,0.0
B,L,"[6, 2]",-2.0,0.0,1.4672060012817383,3.020220994949341,0.5244627461645844,9.0,94.0,0.0
B,L,"[6, 1]",0.0,0.0,0.27437400817871094,1.9161598682403564,0.5407221219775746,9.0,95.0,0.0
G,D,"[7, 1]",0.0,0.0,0.136430025100708,1.9387428760528564,0.7126288611892032,9.0,96.0,0.0
Y,R,"[7, 2]",0.0,0.0,0.1616971492767334,1.8784258365631104,0.6077946155135052,9.0,97.0,0.0
Y,R,"[7, 3]",0.0,0.0,0.19927501678466797,1.6412529945373535,0.34922581536571373,9.0,98.0,0.0
Y,R,"[7, 4]",0.0,0.0,0.293881893157959,1.6563639640808105,0.25569605936367157,9.0,99.0,0.0
R,U,"[6, 4]",0.0,0.0,0.34890198707580566,1.7976710796356201,0.353348012459571,9.0,100.0,0.0
,,"(6, 6)",,,,,,,,
G,D,"[7, 6]",0.0,0.0,0.5151870250701904,3.6071271896362305,0.5436295230450086,10.0,101.0,0.0
B,L,"[7, 5]",0.0,0.0,0.3183867931365967,2.1104769706726074,0.7038559471685006,10.0,102.0,0.0
R,U,"[6, 5]",0.0,0.0,0.22661399841308594,1.6087119579315186,0.2797833637644878,10.0,103.0,0.0
R,U,"[5, 5]",0.0,0.0,0.6620020866394043,2.4884490966796875,0.7175840505157267,10.0,104.0,0.0
R,U,"[4, 5]",-1.0,0.0,0.08636903762817383,5.895349979400635,0.6797254059340944,10.0,105.0,0.0
R,U,"[3, 5]",0.0,0.0,0.29900097846984863,1.9891750812530518,0.5856206932369132,10.0,106.0,0.0
R,U,"[2, 5]",0.0,0.0,0.35884523391723633,1.854452133178711,0.3902486001638185,10.0,107.0,0.0
R,U,"[1, 5]",0.0,0.0,0.41162705421447754,1.7829170227050781,0.2733058041587504,10.0,108.0,0.0
R,U,"[2, 5]",-3.0,0.0,0.5036630630493164,2.1146891117095947,0.5209148775073431,10.0,109.0,0.0
R,U,"[1, 5]",0.0,0.0,0.3284330368041992,2.021713972091675,0.592712583511894,10.0,110.0,0.0
,,"(6, 6)",,,,,,,,
R,U,"[5, 6]",-2.0,0.0,1.2321898937225342,4.723100900650024,0.6158531331907878,11.0,111.0,0.0
R,U,"[4, 6]",0.0,0.0,0.2025599479675293,2.0449368953704834,0.7440155490258027,11.0,112.0,0.0
G,D,"[5, 6]",0.0,0.0,0.2586069107055664,1.7157509326934814,0.36013780523442207,11.0,113.0,0.0
B,L,"[5, 5]",0.0,0.0,0.40802502632141113,1.9779071807861328,0.47123724055160465,11.0,114.0,0.0
Y,R,"[5, 6]",0.0,0.0,0.20020008087158203,1.6328320503234863,0.33755046598921484,11.0,115.0,0.0
Y,R,"[5, 7]",1.0,1.0,0.29931092262268066,1.8571457862854004,0.461181170609423,11.0,116.0,0.0
Y,R,"[5, 8]",1.0,2.0,0.1027829647064209,1.4960458278656006,0.30745523074198683,11.0,117.0,0.0
Y,R,"[5, 9]",0.0,2.0,0.29569196701049805,1.9219729900360107,0.5293246078838781,11.0,118.0,0.0
Y,R,"[5, 10]",1.0,3.0,0.41153407096862793,2.2552390098571777,0.7343144931268061,11.0,119.0,0.0
Y,R,"[5, 11]",0.0,3.0,0.20052194595336914,1.7215759754180908,0.4227535560818917,11.0,120.0,0.0
,,"(6, 6)",,,,,,,,
Y,R,"[6, 7]",0.0,0.0,0.8100612163543701,4.174155950546265,0.4967971908131202,12.0,121.0,0.0
Y,R,"[6, 8]",1.0,1.0,0.3466019630432129,1.9071409702301025,0.45412031001429337,12.0,122.0,0.0
Y,R,"[6, 9]",1.0,2.0,0.19305896759033203,1.5724220275878906,0.2766331528726878,12.0,123.0,0.0
B,L,"[6, 8]",0.0,2.0,0.10823512077331543,1.5298879146575928,0.32324963735527423,12.0,124.0,0.0
Y,R,"[6, 9]",0.0,2.0,0.16892600059509277,1.7714569568634033,0.5108217252134561,12.0,125.0,0.0
Y,R,"[6, 10]",1.0,3.0,0.19035887718200684,1.7832598686218262,0.494451339027766,12.0,126.0,0.0
Y,R,"[6, 11]",0.0,3.0,0.3352987766265869,2.065857172012329,0.643411702830003,12.0,127.0,0.0
Y,R,"[6, 10]",-3.0,3.0,0.19060182571411133,1.8365271091461182,0.5467974337265091,12.0,128.0,0.0
Y,R,"[6, 11]",0.0,3.0,0.23946905136108398,1.7957501411437988,0.44266959750053,12.0,129.0,0.0
Y,R,"[6, 10]",-3.0,3.0,0.2450389862060547,1.930738925933838,0.5898586529645788,12.0,130.0,0.0
,,"(6, 6)",,,,,,,,
Y,R,"[6, 7]",0.0,0.0,0.663358211517334,5.166332006454468,0.5729997335080843,13.0,131.0,0.0
Y,R,"[6, 8]",1.0,1.0,0.15552091598510742,1.751729965209961,0.49131925693336637,13.0,132.0,0.0
Y,R,"[6, 9]",1.0,2.0,0.20245599746704102,1.8522758483886719,0.5602519019920684,13.0,133.0,0.0
Y,R,"[6, 10]",1.0,3.0,0.19344091415405273,1.5917189121246338,0.3022537318924071,13.0,134.0,0.0
B,L,"[6, 9]",0.0,3.0,0.18076086044311523,1.8383488655090332,0.5569903130779584,13.0,135.0,0.0
Y,R,"[6, 10]",0.0,3.0,0.3204970359802246,2.093018054962158,0.6831707581474102,13.0,136.0,0.0
Y,R,"[6, 11]",0.0,3.0,0.19354891777038574,1.5760560035705566,0.27633392713176624,13.0,137.0,0.0
Y,R,"[6, 10]",-3.0,3.0,0.2217411994934082,1.9219849109649658,0.5979849368795169,13.0,138.0,0.0
Y,R,"[6, 11]",0.0,3.0,0.4284329414367676,1.9402618408203125,0.405241128112377,13.0,139.0,0.0
Y,R,"[6, 10]",-3.0,3.0,0.3333899974822998,1.8815398216247559,0.4532919169050852,13.0,140.0,0.0
,,"(6, 6)",,,,,,,,
G,D,"[7, 6]",0.0,0.0,0.9749147891998291,3.892364025115967,0.49575361239667337,14.0,141.0,0.0
Y,R,"[7, 7]",-1.0,0.0,0.08740592002868652,5.847775936126709,0.643358012781102,14.0,142.0,0.0
Y,R,"[7, 8]",0.0,0.0,0.24799704551696777,2.032773971557617,0.6928162432235945,14.0,143.0,0.0
Y,R,"[7, 9]",0.0,0.0,0.7475628852844238,2.352044105529785,0.5115899653354533,14.0,144.0,0.0
Y,R,"[7, 10]",0.0,0.0,0.2438809871673584,1.9561171531677246,0.617367039554546,14.0,145.0,0.0
R,U,"[6, 10]",-1.0,0.0,0.04083681106567383,5.723686933517456,0.5415101273367806,14.0,146.0,0.0
R,U,"[5, 10]",-1.0,0.0,0.003876924514770508,5.420264959335327,0.2953488345000736,14.0,147.0,0.0
R,U,"[4, 10]",1.0,1.0,0.5531740188598633,2.2048451900482178,0.566406082159556,14.0,148.0,0.0
R,U,"[3, 10]",0.0,1.0,0.2245948314666748,1.9229390621185303,0.5894250204527582,14.0,149.0,0.0
R,U,"[2, 10]",0.0,1.0,0.3388378620147705,1.7753310203552246,0.33168262854178754,14.0,150.0,0.0
,,"(6, 6)",,,,,,,,
R,U,"[5, 6]",-2.0,0.0,1.0987699031829834,6.6498122215271,0.6148669086530152,15.0,151.0,0.0
G,D,"[6, 6]",0.0,0.0,0.20474886894226074,1.9892969131469727,0.6872484846293718,15.0,152.0,0.0
Y,R,"[6, 7]",-1.0,0.0,0.0633230209350586,5.749783039093018,0.5538187321142627,15.0,153.0,0.0
Y,R,"[6, 8]",1.0,1.0,0.33040809631347656,2.1672351360321045,0.7375015578937938,15.0,154.0,0.0
Y,R,"[6, 9]",1.0,2.0,0.37980103492736816,1.8874549865722656,0.40863192432087697,15.0,155.0,0.0
Y,R,"[6, 10]",1.0,3.0,0.5149171352386475,1.9802310466766357,0.3722205230394541,15.0,156.0,0.0
R,U,"[5, 10]",1.0,4.0,0.5188629627227783,2.1839358806610107,0.5727393265218497,15.0,157.0,0.0
Y,R,"[5, 11]",0.0,4.0,0.2326068878173828,1.7542741298675537,0.42706024307720064,15.0,158.0,0.0
Y,R,"[5, 10]",-3.0,4.0,0.22062301635742188,1.612455129623413,0.30634156952788766,15.0,159.0,0.0
R,U,"[4, 10]",1.0,5.0,0.26734089851379395,2.0863988399505615,0.7256673034589616,15.0,160.0,0.0
,,"(6, 6)",,,,,,,,
G,D,"[7, 6]",0.0,0.0,0.624737024307251,4.116399049758911,0.6088787609551893,16.0,161.0,0.0
R,U,"[6, 6]",0.0,0.0,0.22911906242370605,2.040071964263916,0.7154681002319765,16.0,162.0,0.0
Y,R,"[6, 7]",-1.0,0.0,0.08643603324890137,5.533389091491699,0.3158631349171096,16.0,163.0,0.0
Y,R,"[6, 8]",1.0,1.0,0.3090050220489502,2.110539197921753,0.6929099431347019,16.0,164.0,0.0
Y,R,"[6, 9]",1.0,2.0,0.7982981204986572,2.2940421104431152,0.4039193255325736,16.0,165.0,0.0
R,U,"[5, 9]",0.0,2.0,0.3266408443450928,2.0114219188690186,0.581815508903176,16.0,166.0,0.0
R,U,"[4, 9]",-1.0,2.0,0.05073690414428711,5.894321918487549,0.709433777664946,16.0,167.0,0.0
R,U,"[3, 9]",1.0,3.0,0.44875502586364746,2.2582569122314453,0.7176105472542917,16.0,168.0,0.0
R,U,"[2, 9]",0.0,3.0,0.3864438533782959,1.7788410186767578,0.2968996031765248,16.0,169.0,0.0
Y,R,"[2, 10]",0.0,3.0,0.4994978904724121,2.17474102973938,0.5713636926127531,16.0,170.0,0.0
,,"(6, 6)",,,,,,,,
G,D,"[7, 6]",0.0,0.0,0.7304959297180176,12.097749948501587,0.5525769244259717,17.0,171.0,0.0
R,U,"[6, 6]",0.0,0.0,0.22734618186950684,1.7185699939727783,0.387974521917605,17.0,172.0,0.0
G,D,"[7, 6]",0.0,0.0,0.26804018020629883,1.8260400295257568,0.4640794193183465,17.0,173.0,0.0
B,L,"[7, 5]",0.0,0.0,0.24141502380371094,1.8000268936157227,0.4475623626413452,17.0,174.0,0.0
Y,R,"[7, 6]",-1.0,0.0,0.03883504867553711,5.542399883270264,0.3734521412911329,17.0,175.0,0.0
Y,R,"[7, 7]",0.0,0.0,0.5893371105194092,1.9914209842681885,0.29807956431580795,17.0,176.0,0.0
R,U,"[6, 7]",-2.0,0.0,1.6994409561157227,3.11535906791687,0.3800771213495219,17.0,177.0,0.0
G,D,"[7, 7]",-2.0,0.0,2.6099588871002197,4.352764129638672,0.6992152961779331,17.0,178.0,0.0
B,L,"[7, 6]",0.0,0.0,0.2601289749145508,2.1029140949249268,0.7354076224516943,17.0,179.0,0.0
G,D,"[8, 6]",0.0,0.0,0.9950969219207764,2.6566030979156494,0.5588345632988179,17.0,180.0,0.0
,,"(6, 6)",,,,,,,,
G,D,"[7, 6]",-2.0,0.0,1.4897511005401611,11.226737022399902,0.4857043157051062,18.0,181.0,0.0
R,U,"[6, 6]",0.0,0.0,0.18036699295043945,2.009704828262329,0.7285463906646618,18.0,182.0,0.0
Y,R,"[6, 7]",0.0,0.0,0.1803598403930664,1.61152982711792,0.3406802041357444,18.0,183.0,0.0
Y,R,"[6, 8]",1.0,1.0,0.2396090030670166,2.0485599040985107,0.7053972601548346,18.0,184.0,0.0
Y,R,"[6, 9]",1.0,2.0,0.17676806449890137,1.8896780014038086,0.6119581229742755,18.0,185.0,0.0
Y,R,"[6, 10]",1.0,3.0,0.1594240665435791,1.6553311347961426,0.40085041917885184,18.0,186.0,0.0
R,U,"[5, 10]",1.0,4.0,0.25185513496398926,1.8718140125274658,0.522434654099627,18.0,187.0,0.0
Y,R,"[5, 11]",0.0,4.0,0.14047598838806152,1.9020228385925293,0.6577281580138012,18.0,188.0,0.0
Y,R,"[5, 10]",-3.0,4.0,0.5586628913879395,2.3268330097198486,0.6678956204263156,18.0,189.0,0.0
R,U,"[4, 10]",1.0,5.0,0.2290821075439453,1.5870089530944824,0.2552676565704019,18.0,190.0,0.0
,,"(6, 6)",,,,,,,,
Y,R,"[6, 7]",0.0,0.0,0.737490177154541,5.029054880142212,0.6841410504268295,19.0,191.0,0.0
Y,R,"[6, 8]",1.0,1.0,0.18964314460754395,1.962853193283081,0.663636798391273,19.0,192.0,0.0
R,U,"[5, 8]",1.0,2.0,0.16503405570983887,1.9107470512390137,0.6410400795321718,19.0,193.0,0.0
R,U,"[4, 8]",0.0,2.0,0.1401829719543457,1.5036990642547607,0.2617827475415659,19.0,194.0,0.0
R,U,"[3, 8]",0.0,2.0,0.23406219482421875,1.8422460556030273,0.5204835224809922,19.0,195.0,0.0
Y,R,"[3, 9]",1.0,3.0,0.12917685508728027,1.704258918762207,0.4749056964487471,19.0,196.0,0.0
Y,R,"[3, 10]",0.0,3.0,0.22232794761657715,1.9847700595855713,0.6595103531943183,19.0,197.0,0.0
R,U,"[2, 10]",-1.0,3.0,0.07180094718933105,5.932068824768066,0.7415254135333585,19.0,198.0,0.0
R,U,"[1, 10]",0.0,3.0,0.47196507453918457,2.3026700019836426,0.7442688135491734,19.0,199.0,0.0
Y,R,"[1, 11]",0.0,3.0,0.25826478004455566,1.7400109767913818,0.3845891036273664,19.0,200.0,0.0
,,"(6, 6)",,,,,,,,
R,U,"[5, 6]",1.0,1.0,0.8928320407867432,5.64542293548584,0.4134030861137188,20.0,201.0,0.0
Y,R,"[5, 7]",1.0,2.0,0.4032909870147705,2.113546133041382,0.6100295337728727,20.0,202.0,0.0
R,U,"[4, 7]",0.0,2.0,0.3361780643463135,2.0333571434020996,0.6101431662212737,20.0,203.0,0.0
R,U,"[3, 7]",0.0,2.0,0.2369401454925537,1.7054731845855713,0.3825340260534395,20.0,204.0,0.0
Y,R,"[3, 8]",0.0,2.0,0.42563390731811523,1.9196009635925293,0.38550296527743233,20.0,205.0,0.0
Y,R,"[3, 9]",1.0,3.0,0.3368968963623047,1.7481069564819336,0.31692588447001774,20.0,206.0,0.0
R,U,"[2, 9]",0.0,3.0,0.48290395736694336,1.9280219078063965,0.3450645367253753,20.0,207.0,0.0
R,U,"[1, 9]",0.0,3.0,0.22821402549743652,1.75058913230896,0.4286898538567733,20.0,208.0,0.0
B,L,"[1, 8]",0.0,3.0,0.23622584342956543,1.9452040195465088,0.623948760435086,20.0,209.0,0.0
G,D,"[2, 8]",0.0,3.0,0.23983502388000488,1.9937632083892822,0.6675610162773173,20.0,210.0,0.0
,,"(6, 6)",,,,,,,,
G,D,"[7, 6]",0.0,0.0,0.5284569263458252,3.2100870609283447,0.2616827947107823,21.0,211.0,0.0
B,L,"[7, 5]",0.0,0.0,0.4354250431060791,1.9446651935577393,0.4227175687189149,21.0,212.0,0.0
B,L,"[7, 4]",0.0,0.0,0.2797069549560547,1.9213380813598633,0.5438755964625677,21.0,213.0,0.0
B,L,"[7, 3]",0.0,0.0,0.20281004905700684,1.6211600303649902,0.33219541538834607,21.0,214.0,0.0
G,D,"[8, 3]",0.0,0.0,0.2174680233001709,1.839648962020874,0.5215644420839669,21.0,215.0,0.0
G,D,"[9, 3]",0.0,0.0,0.20377683639526367,1.6203131675720215,0.3253257234855626,21.0,216.0,0.0
Y,R,"[9, 4]",0.0,0.0,0.3548469543457031,1.9660289287567139,0.5244843310141845,21.0,217.0,0.0
Y,R,"[9, 5]",0.0,0.0,0.38002490997314453,1.796389102935791,0.3212397577348684,21.0,218.0,0.0
R,U,"[8, 5]",0.0,0.0,0.2019670009613037,1.6861109733581543,0.3904957388379697,21.0,219.0,0.0
R,U,"[7, 5]",0.0,0.0,0.31879496574401855,1.772284984588623,0.362893174710367,21.0,220.0,0.0
,,"(6, 6)",,,,,,,,
R,U,"[5, 6]",1.0,1.0,0.5265271663665771,3.7116241455078125,0.3911886774038939,22.0,221.0,0.0
Y,R,"[5, 7]",1.0,2.0,0.37189483642578125,1.8081419467926025,0.33271735973716016,22.0,222.0,0.0
R,U,"[4, 7]",0.0,2.0,0.22814011573791504,1.7549748420715332,0.4209655564248203,22.0,223.0,0.0
Y,R,"[4, 8]",0.0,2.0,0.21916818618774414,1.7800159454345703,0.4676369246332458,22.0,224.0,0.0
Y,R,"[4, 9]",1.0,3.0,0.50813889503479,2.0642740726470947,0.44866583761281664,22.0,225.0,0.0
R,U,"[3, 9]",1.0,4.0,0.5593571662902832,1.9975090026855469,0.32953965399656415,22.0,226.0,0.0
R,U,"[2, 9]",0.0,4.0,0.6153960227966309,2.1787309646606445,0.45820090224921634,22.0,227.0,0.0
Y,R,"[2, 10]",0.0,4.0,0.22289514541625977,1.7838900089263916,0.45878685292314114,22.0,228.0,0.0
Y,R,"[2, 11]",0.0,4.0,0.7185089588165283,2.535437822341919,0.7274883289384219,22.0,229.0,0.0
R,U,"[1, 11]",0.0,4.0,0.26926183700561523,1.725883960723877,0.3702994667977861,22.0,230.0,0.0
,,"(6, 6)",,,,,,,,
Y,R,"[6, 7]",0.0,0.0,0.585319995880127,3.409698009490967,0.41337699642688075,23.0,231.0,0.0
Y,R,"[6, 8]",1.0,1.0,0.22545218467712402,1.6174049377441406,0.2809154671326719,23.0,232.0,0.0
Y,R,"[6, 9]",1.0,2.0,0.19766497611999512,1.6488938331604004,0.34641646494852985,23.0,233.0,0.0
Y,R,"[6, 10]",1.0,3.0,0.1909630298614502,1.6959359645843506,0.39232916666577733,23.0,234.0,0.0
Y,R,"[6, 11]",0.0,3.0,0.37358999252319336,2.2070870399475098,0.732510218519874,23.0,235.0,0.0
R,U,"[5, 11]",0.0,3.0,0.23771095275878906,1.9970788955688477,0.6629353253918613,23.0,236.0,0.0
R,U,"[4, 11]",0.0,3.0,0.17304611206054688,1.7123081684112549,0.42558297336924655,23.0,237.0,0.0
Y,R,"[5, 11]",-3.0,3.0,0.3101170063018799,1.8941090106964111,0.4862626228717491,23.0,238.0,0.0
Y,R,"[4, 11]",-3.0,3.0,0.4271090030670166,1.9561419486999512,0.4258459848043287,23.0,239.0,0.0
R,U,"[3, 11]",0.0,3.0,0.22112393379211426,1.9640982151031494,0.6396822818028993,23.0,240.0,0.0
,,"(6, 6)",,,,,,,,
Y,R,"[6, 7]",0.0,0.0,0.8206620216369629,4.6934990882873535,0.6499464681910769,24.0,241.0,0.0
Y,R,"[6, 8]",1.0,1.0,0.20679998397827148,1.5815401077270508,0.26532038181884104,24.0,242.0,0.0
Y,R,"[6, 9]",1.0,2.0,0.24755287170410156,1.8900580406188965,0.5383521229665235,24.0,243.0,0.0
Y,R,"[6, 10]",1.0,3.0,0.3292720317840576,2.0840041637420654,0.6556181755672768,24.0,244.0,0.0
R,U,"[5, 10]",1.0,4.0,0.2559669017791748,1.8258819580078125,0.4651073262639797,24.0,245.0,0.0
R,U,"[4, 10]",1.0,5.0,0.31267809867858887,1.892103910446167,0.47380066125576653,24.0,246.0,0.0
Y,R,"[4, 11]",0.0,5.0,0.2084801197052002,1.9362618923187256,0.6267040706571883,24.0,247.0,0.0
R,U,"[3, 11]",0.0,5.0,0.1990981101989746,1.6976289749145508,0.40777020314641904,24.0,248.0,0.0
R,U,"[2, 11]",0.0,5.0,0.2504091262817383,1.6693220138549805,0.3272755632588657,24.0,249.0,0.0
Y,R,"[3, 11]",-3.0,5.0,0.2675759792327881,2.0769150257110596,0.7204816532278514,24.0,250.0,0.0
,,"(6, 6)",,,,,,,,
R,U,"[5, 6]",1.0,1.0,0.9495248794555664,7.535604000091553,0.30671583090052784,25.0,251.0,0.0
R,U,"[4, 6]",0.0,1.0,0.27011895179748535,1.8926661014556885,0.5324232040715926,25.0,252.0,0.0
Y,R,"[4, 7]",0.0,1.0,0.20214605331420898,1.8464410305023193,0.5454546136944218,25.0,253.0,0.0
B,L,"[4, 6]",0.0,1.0,0.5091121196746826,2.1359879970550537,0.5315719456721868,25.0,254.0,0.0
G,D,"[5, 6]",0.0,1.0,0.33008790016174316,2.0903148651123047,0.6550947896429967,25.0,255.0,0.0
R,U,"[4, 6]",0.0,1.0,0.23287391662597656,1.657768964767456,0.33000230501832023,25.0,256.0,0.0
R,U,"[3, 6]",0.0,1.0,0.4002189636230469,1.7760491371154785,0.2727257406191752,25.0,257.0,0.0
R,U,"[2, 6]",0.0,1.0,0.5986270904541016,2.0016701221466064,0.30768947385106005,25.0,258.0,0.0
Y,R,"[2, 7]",0.0,1.0,0.6930038928985596,2.538750171661377,0.7460412351020013,25.0,259.0,0.0
Y,R,"[2, 8]",0.0,1.0,0.2330331802368164,2.08158802986145,0.7442686214705415,25.0,260.0,0.0
,,"(6, 6)",,,,,,,,
R,U,"[5, 6]",-2.0,0.0,1.0332069396972656,4.721005201339722,0.7160307684021454,26.0,261.0,0.0
R,U,"[4, 6]",0.0,0.0,0.2949790954589844,1.7959508895874023,0.3950800869065338,26.0,262.0,0.0
Y,R,"[4, 7]",0.0,0.0,0.33165407180786133,2.052830934524536,0.6310933780268979,26.0,263.0,0.0
Y,R,"[4, 8]",0.0,0.0,0.37528300285339355,2.0064151287078857,0.5210505769418239,26.0,264.0,0.0
Y,R,"[4, 9]",1.0,1.0,0.7296571731567383,2.2746710777282715,0.44571466488909917,26.0,265.0,0.0
Y,R,"[4, 10]",1.0,2.0,0.30958104133605957,1.9884538650512695,0.5844862132249715,26.0,266.0,0.0
Y,R,"[4, 11]",0.0,2.0,0.1926560401916504,1.6490378379821777,0.34999579006830855,26.0,267.0,0.0
Y,R,"[4, 10]",-3.0,2.0,0.35292696952819824,2.1914470195770264,0.7410086269370277,26.0,268.0,0.0
Y,R,"[4, 11]",0.0,2.0,0.6424708366394043,2.10929012298584,0.36755698370745365,26.0,269.0,0.0
R,U,"[3, 11]",0.0,2.0,0.1920480728149414,1.7590110301971436,0.4597263034324412,26.0,270.0,0.0
,,"(6, 6)",,,,,,,,
Y,R,"[6, 7]",0.0,0.0,0.7869699001312256,7.350458860397339,0.5769565723975385,27.0,271.0,0.0
R,U,"[5, 7]",1.0,1.0,0.16817212104797363,1.6015968322753906,0.3453492495497891,27.0,272.0,0.0
R,U,"[4, 7]",0.0,1.0,0.39221882820129395,1.8688690662384033,0.3809518310527904,27.0,273.0,0.0
Y,R,"[4, 8]",0.0,1.0,0.21396684646606445,1.8172259330749512,0.49799876127245424,27.0,274.0,0.0
Y,R,"[4, 9]",1.0,2.0,0.29331111907958984,1.7533888816833496,0.35166996949398854,27.0,275.0,0.0
Y,R,"[4, 10]",1.0,3.0,0.29749107360839844,2.0956010818481445,0.6970700353308593,27.0,276.0,0.0
R,U,"[3, 10]",0.0,3.0,0.21667098999023438,1.9035470485687256,0.5838701191760207,27.0,277.0,0.0
Y,R,"[3, 11]",0.0,3.0,0.22264504432678223,1.681302785873413,0.34896000748187656,27.0,278.0,0.0
R,U,"[2, 11]",0.0,3.0,0.2684462070465088,1.7734880447387695,0.4057430207004176,27.0,279.0,0.0
R,U,"[1, 11]",0.0,3.0,0.2556138038635254,2.0744481086730957,0.7131846546856964,27.0,280.0,0.0
,,"(6, 6)",,,,,,,,
Y,R,"[6, 7]",0.0,0.0,0.7848460674285889,4.3349831104278564,0.6650415584369709,28.0,281.0,0.0
Y,R,"[6, 8]",1.0,1.0,0.23597121238708496,1.689073085784912,0.3544172278677518,28.0,282.0,0.0
R,U,"[5, 8]",1.0,2.0,0.9757640361785889,2.3892769813537598,0.3103893258837648,28.0,283.0,0.0
R,U,"[4, 8]",0.0,2.0,0.5005419254302979,2.1531450748443604,0.5633440281440237,28.0,284.0,0.0
Y,R,"[4, 9]",1.0,3.0,0.20790600776672363,1.5781939029693604,0.2584701649810014,28.0,285.0,0.0
Y,R,"[4, 10]",1.0,4.0,0.27629804611206055,1.7814009189605713,0.40643219184676654,28.0,286.0,0.0
Y,R,"[4, 11]",0.0,4.0,0.3931009769439697,1.9019038677215576,0.4084603082422687,28.0,287.0,0.0
Y,R,"[4, 10]",-3.0,4.0,0.4372220039367676,1.9450109004974365,0.42006300950152814,28.0,288.0,0.0
R,U,"[3, 10]",0.0,4.0,0.9473648071289062,2.601933002471924,0.555187465341491,28.0,289.0,0.0
G,D,"[4, 10]",0.0,4.0,0.23235297203063965,2.023041009902954,0.694743311658701,28.0,290.0,0.0
,,"(6, 6)",,,,,,,,
B,L,"[6, 5]",0.0,0.0,0.4797859191894531,2.866878032684326,0.2622654368468769,29.0,291.0,0.0
R,U,"[5, 5]",0.0,0.0,0.4470860958099365,2.180962085723877,0.6429035483956528,29.0,292.0,0.0
Y,R,"[5, 6]",1.0,1.0,0.262937068939209,1.8504951000213623,0.49285352676742367,29.0,293.0,0.0
Y,R,"[5, 7]",1.0,2.0,0.29787611961364746,1.6866400241851807,0.2971587878774008,29.0,294.0,0.0
Y,R,"[5, 8]",1.0,3.0,0.22388911247253418,1.8304898738861084,0.4939965009225601,29.0,295.0,0.0
R,U,"[4, 8]",0.0,3.0,0.19661998748779297,1.9148948192596436,0.6253281495799456,29.0,296.0,0.0
Y,R,"[4, 9]",1.0,4.0,0.16188907623291016,1.5817179679870605,0.32419217545227147,29.0,297.0,0.0
Y,R,"[4, 10]",1.0,5.0,0.6155459880828857,2.450324773788452,0.7407896670085546,29.0,298.0,0.0
Y,R,"[4, 11]",0.0,5.0,0.43164491653442383,1.8712899684906006,0.3458665374747914,29.0,299.0,0.0
Y,R,"[4, 10]",-3.0,5.0,0.2859969139099121,2.026765823364258,0.6553626669086261,29.0,300.0,0.0
,,"(6, 6)",,,,,,,,
R,U,"[5, 6]",1.0,1.0,0.7177670001983643,3.7206919193267822,0.7264391972776421,30.0,301.0,0.0
Y,R,"[5, 7]",1.0,2.0,0.21130585670471191,1.7528982162475586,0.4462239665326071,30.0,302.0,0.0
R,U,"[4, 7]",0.0,2.0,0.166611909866333,1.8229389190673828,0.5525228378358598,30.0,303.0,0.0
R,U,"[3, 7]",0.0,2.0,0.37207889556884766,1.8607490062713623,0.3799667379222724,30.0,304.0,0.0
R,U,"[2, 7]",0.0,2.0,0.4104340076446533,2.263498067855835,0.7431917408841004,30.0,305.0,0.0
R,U,"[1, 7]",0.0,2.0,0.2717020511627197,1.809722900390625,0.45328011976194754,30.0,306.0,0.0
Y,R,"[1, 8]",0.0,2.0,0.2318100929260254,2.0717620849609375,0.7415475288647833,30.0,307.0,0.0
Y,R,"[1, 9]",0.0,2.0,0.2829749584197998,1.9563419818878174,0.5813989514320755,30.0,308.0,0.0
Y,R,"[1, 10]",0.0,2.0,0.5706539154052734,2.242902994155884,0.5741750714152014,30.0,309.0,0.0
Y,R,"[1, 11]",0.0,2.0,0.15560412406921387,1.5502290725708008,0.291409344435485,30.0,310.0,0.0
,,"(6, 6)",,,,,,,,
G,D,"[7, 6]",0.0,0.0,0.6256468296051025,19.063607931137085,0.3554333934369547,31.0,311.0,0.0
Y,R,"[7, 7]",0.0,0.0,0.18257808685302734,2.0257110595703125,0.7473877290976838,31.0,312.0,0.0
Y,R,"[7, 8]",0.0,0.0,0.166273832321167,1.7488210201263428,0.4797928500649577,31.0,313.0,0.0
R,U,"[6, 8]",1.0,1.0,0.5643432140350342,2.25881290435791,0.5883834865701958,31.0,314.0,0.0
R,U,"[5, 8]",1.0,2.0,0.24333715438842773,2.078889846801758,0.7339696389219035,31.0,315.0,0.0
R,U,"[4, 8]",0.0,2.0,0.23303699493408203,1.61918306350708,0.28702958251874516,31.0,316.0,0.0
Y,R,"[4, 9]",1.0,3.0,0.2242119312286377,1.6765110492706299,0.346924443284957,31.0,317.0,0.0
Y,R,"[4, 10]",1.0,4.0,0.21421194076538086,1.584502935409546,0.2647525062686383,31.0,318.0,0.0
R,U,"[3, 10]",0.0,4.0,0.3589920997619629,1.791815996170044,0.3233645602152499,31.0,319.0,0.0
R,U,"[2, 10]",0.0,4.0,0.20257091522216797,1.9708199501037598,0.6772086958674063,31.0,320.0,0.0
,,"(6, 6)",,,,,,,,
Y,R,"[6, 7]",0.0,0.0,0.5525081157684326,4.017199993133545,0.7443847691893538,32.0,321.0,0.0
R,U,"[5, 7]",-1.0,0.0,0.019052982330322266,5.583514928817749,0.44490433643279564,32.0,322.0,0.0
R,U,"[4, 7]",0.0,0.0,0.4512789249420166,2.144460916519165,0.6058757437367115,32.0,323.0,0.0
Y,R,"[4, 8]",0.0,0.0,0.29955601692199707,2.001224994659424,0.607097183802442,32.0,324.0,0.0
B,L,"[4, 7]",0.0,0.0,0.2215120792388916,1.7643461227416992,0.4550660574112912,32.0,325.0,0.0
G,D,"[5, 7]",0.0,0.0,0.27378296852111816,1.6914730072021484,0.31340646378437453,32.0,326.0,0.0
Y,R,"[5, 8]",1.0,1.0,0.3053319454193115,1.769334077835083,0.34928726872173954,32.0,327.0,0.0
Y,R,"[5, 9]",0.0,1.0,0.5452709197998047,2.096571922302246,0.44582022366377694,32.0,328.0,0.0
R,U,"[4, 9]",1.0,2.0,0.22450613975524902,1.9905412197113037,0.6528924146652204,32.0,329.0,0.0
R,U,"[3, 9]",1.0,3.0,0.3920888900756836,1.9228730201721191,0.4259550841243736,32.0,330.0,0.0
,,"(6, 6)",,,,,,,,
R,U,"[5, 6]",1.0,1.0,0.6508069038391113,3.6604859828948975,0.6530107052473805,33.0,331.0,0.0
R,U,"[4, 6]",0.0,1.0,0.23478198051452637,1.8329579830169678,0.5028510551621965,33.0,332.0,0.0
R,U,"[3, 6]",0.0,1.0,0.16365694999694824,1.967221975326538,0.7032959537341424,33.0,333.0,0.0
R,U,"[2, 6]",-1.0,1.0,0.06711816787719727,5.45790696144104,0.261757552114717,33.0,334.0,0.0
R,U,"[1, 6]",0.0,1.0,0.322329044342041,1.7014310359954834,0.2798994050866498,33.0,335.0,0.0
R,U,"[2, 6]",-3.0,1.0,0.3185751438140869,2.0978760719299316,0.6773811901919318,33.0,336.0,0.0
Y,R,"[2, 7]",0.0,1.0,0.2345108985900879,1.694084882736206,0.3717596338709525,33.0,337.0,0.0
Y,R,"[2, 8]",0.0,1.0,0.20560383796691895,1.7099859714508057,0.3982399489008773,33.0,338.0,0.0
Y,R,"[2, 9]",0.0,1.0,0.2147529125213623,2.0646820068359375,0.7460470666609649,33.0,339.0,0.0
R,U,"[1, 9]",0.0,1.0,0.4113810062408447,1.9542059898376465,0.4340655938155912,33.0,340.0,0.0
,,"(6, 6)",,,,,,,,
R,U,"[5, 6]",-2.0,0.0,1.2271111011505127,4.192142009735107,0.5262242151065901,34.0,341.0,0.0
R,U,"[4, 6]",0.0,0.0,0.22891592979431152,1.708878993988037,0.3851671896714435,34.0,342.0,0.0
R,U,"[3, 6]",0.0,0.0,0.2513129711151123,1.825998067855835,0.4777646238170674,34.0,343.0,0.0
Y,R,"[3, 7]",0.0,0.0,0.21477007865905762,2.015990972518921,0.7101976869352474,34.0,344.0,0.0
Y,R,"[3, 8]",0.0,0.0,0.41211509704589844,2.2416419982910156,0.7351769131073085,34.0,345.0,0.0
Y,R,"[3, 9]",1.0,1.0,0.3551809787750244,1.9366250038146973,0.4889028610586781,34.0,346.0,0.0
Y,R,"[3, 10]",0.0,1.0,0.21697998046875,1.8129210472106934,0.5017557291253469,34.0,347.0,0.0
R,U,"[2, 10]",0.0,1.0,0.21168279647827148,1.8177909851074219,0.5029194935125945,34.0,348.0,0.0
Y,R,"[2, 11]",0.0,1.0,0.45820021629333496,2.1895110607147217,0.6256099751999187,34.0,349.0,0.0
R,U,"[1, 11]",0.0,1.0,0.35259485244750977,1.7941820621490479,0.35360191154728,34.0,350.0,0.0
,,"(6, 6)",,,,,,,,
G,D,"[7, 6]",0.0,0.0,0.5621020793914795,3.783468008041382,0.6701004506689204,35.0,351.0,0.0
G,D,"[8, 6]",0.0,0.0,0.22015881538391113,1.6740829944610596,0.36110637215149133,35.0,352.0,0.0
G,D,"[9, 6]",0.0,0.0,0.31273889541625977,1.807408094406128,0.4019302674244507,35.0,353.0,0.0
G,D,"[10, 6]",0.0,0.0,0.28644704818725586,2.0539391040802,0.6721434311452931,35.0,354.0,0.0
G,D,"[11, 6]",0.0,0.0,0.3873879909515381,2.147614002227783,0.6699299317292562,35.0,355.0,0.0
G,D,"[10, 6]",-3.0,0.0,0.5561349391937256,2.05558705329895,0.3925344227085614,35.0,356.0,0.0
G,D,"[11, 6]",0.0,0.0,0.3943290710449219,2.1686291694641113,0.6776075936716414,35.0,357.0,0.0
G,D,"[10, 6]",-3.0,0.0,0.46390700340270996,2.0339410305023193,0.47833697021931093,35.0,358.0,0.0
G,D,"[11, 6]",0.0,0.0,0.6176481246948242,2.3256101608276367,0.6206139768759511,35.0,359.0,0.0
B,L,"[11, 5]",0.0,0.0,0.5741190910339355,2.0769128799438477,0.39776910978841196,35.0,360.0,0.0
,,"(6, 6)",,,,,,,,
B,L,"[6, 5]",0.0,0.0,0.6021008491516113,3.530608892440796,0.3617895990903649,36.0,361.0,0.0
B,L,"[6, 4]",0.0,0.0,0.3674600124359131,1.721458911895752,0.2667179640863872,36.0,362.0,0.0
B,L,"[6, 3]",0.0,0.0,0.5135350227355957,2.304816961288452,0.6878871091469405,36.0,363.0,0.0
B,L,"[6, 2]",0.0,0.0,0.25960707664489746,1.9865429401397705,0.6244634854554091,36.0,364.0,0.0
B,L,"[6, 1]",0.0,0.0,0.4140298366546631,2.1566600799560547,0.6478449544272149,36.0,365.0,0.0
B,L,"[6, 2]",-3.0,0.0,0.4403989315032959,2.2140800952911377,0.661979376431491,36.0,366.0,0.0
B,L,"[6, 1]",0.0,0.0,0.3655879497528076,1.93367600440979,0.4791843214565812,36.0,367.0,0.0
B,L,"[6, 2]",-3.0,0.0,0.9692838191986084,2.549246072769165,0.495039287652102,36.0,368.0,0.0
B,L,"[6, 1]",0.0,0.0,0.3814990520477295,2.215808153152466,0.744099345886213,36.0,369.0,0.0
G,D,"[7, 1]",0.0,0.0,0.42467689514160156,1.8784241676330566,0.35635975583384344,36.0,370.0,0.0
,,"(6, 6)",,,,,,,,
Y,R,"[6, 7]",-2.0,0.0,1.52675199508667,4.440180778503418,0.41316203662115125,37.0,371.0,0.0
Y,R,"[6, 8]",1.0,1.0,0.19155597686767578,1.5803329944610596,0.27691348118944376,37.0,372.0,0.0
Y,R,"[6, 9]",1.0,2.0,0.49493908882141113,1.9406380653381348,0.35088707060270324,37.0,373.0,0.0
Y,R,"[6, 10]",1.0,3.0,0.2711019515991211,1.6168859004974365,0.251399306196467,37.0,374.0,0.0
Y,R,"[6, 11]",0.0,3.0,0.20325112342834473,1.9910609722137451,0.6919507188547529,37.0,375.0,0.0
Y,R,"[6, 10]",-3.0,3.0,0.19712400436401367,1.815194845199585,0.5240447252872442,37.0,376.0,0.0
Y,R,"[6, 11]",0.0,3.0,0.23843812942504883,1.6647779941558838,0.3225228251515438,37.0,377.0,0.0
R,U,"[5, 11]",0.0,3.0,0.24898195266723633,2.054723024368286,0.7100835273991318,37.0,378.0,0.0
R,U,"[4, 11]",0.0,3.0,0.24200892448425293,1.7909870147705078,0.451340685368141,37.0,379.0,0.0
B,L,"[4, 10]",1.0,4.0,0.5890100002288818,2.0880110263824463,0.3894625437337718,37.0,380.0,0.0
,,"(6, 6)",,,,,,,,
G,D,"[7, 6]",0.0,0.0,0.6349930763244629,3.7546701431274414,0.6439151182697427,38.0,381.0,0.0
Y,R,"[7, 7]",0.0,0.0,0.21506309509277344,1.7421140670776367,0.4363086400811474,38.0,382.0,0.0
G,D,"[8, 7]",0.0,0.0,0.18282294273376465,1.991206169128418,0.7104862860045312,38.0,383.0,0.0
B,L,"[8, 6]",0.0,0.0,0.22867298126220703,1.8755769729614258,0.5530597686895289,38.0,384.0,0.0
R,U,"[7, 6]",0.0,0.0,0.18945813179016113,1.8923790454864502,0.5955162755216263,38.0,385.0,0.0
B,L,"[7, 5]",0.0,0.0,0.2271559238433838,1.9808881282806396,0.6596139806469071,38.0,386.0,0.0
G,D,"[8, 5]",0.0,0.0,0.21712207794189453,1.583184003829956,0.2765597583116977,38.0,387.0,0.0
Y,R,"[8, 6]",0.0,0.0,0.33647799491882324,1.867260217666626,0.4436827046492383,38.0,388.0,0.0
G,D,"[9, 6]",0.0,0.0,0.23917698860168457,1.6641590595245361,0.32415211053743126,38.0,389.0,0.0
B,L,"[9, 5]",0.0,0.0,0.2215588092803955,1.9602670669555664,0.6513747635865166,38.0,390.0,0.0
,,"(6, 6)",,,,,,,,
R,U,"[5, 6]",1.0,1.0,0.9873549938201904,4.216350793838501,0.5845234654570923,39.0,391.0,0.0
Y,R,"[5, 7]",1.0,2.0,0.3213169574737549,1.9669859409332275,0.5350574457061062,39.0,392.0,0.0
G,D,"[6, 7]",0.0,2.0,0.26288318634033203,1.7669100761413574,0.40199767003340914,39.0,393.0,0.0
R,U,"[5, 7]",0.0,2.0,0.19428110122680664,1.8933417797088623,0.5951902680365854,39.0,394.0,0.0
Y,R,"[5, 8]",1.0,3.0,0.2017669677734375,1.6165258884429932,0.3288107422210833,39.0,395.0,0.0
G,D,"[6, 8]",1.0,4.0,0.35727381706237793,1.730320930480957,0.27579461324173515,39.0,396.0,0.0
Y,R,"[6, 9]",1.0,5.0,0.2371511459350586,1.8270630836486816,0.5026992695967497,39.0,397.0,0.0
G,D,"[7, 9]",0.0,5.0,0.17877984046936035,1.624039888381958,0.3434888812193173,39.0,398.0,0.0
B,L,"[7, 8]",0.0,5.0,0.2752110958099365,1.7579798698425293,0.3848560151814926,39.0,399.0,0.0
G,D,"[8, 8]",0.0,5.0,0.21149802207946777,1.6474599838256836,0.332247199627311,39.0,400.0,0.0
,,"(6, 6)",,,,,,,,
G,D,"[7, 6]",0.0,0.0,0.8853278160095215,4.385685205459595,0.6845103930249961,40.0,401.0,0.0
Y,R,"[7, 7]",0.0,0.0,0.3582770824432373,2.211796998977661,0.746273424191505,40.0,402.0,0.0
B,L,"[7, 6]",0.0,0.0,0.2915329933166504,1.9764001369476318,0.5729478914317715,40.0,403.0,0.0
G,D,"[8, 6]",0.0,0.0,0.19221997261047363,1.852755069732666,0.5588142067691302,40.0,404.0,0.0
R,U,"[7, 6]",0.0,0.0,0.11427998542785645,1.894836187362671,0.6871655777410555,40.0,405.0,0.0
Y,R,"[7, 7]",0.0,0.0,0.23117303848266602,1.66054105758667,0.3313793577968526,40.0,406.0,0.0
Y,R,"[7, 8]",0.0,0.0,0.3986937999725342,2.2032599449157715,0.7009252190953548,40.0,407.0,0.0
B,L,"[7, 7]",0.0,0.0,0.2825930118560791,2.0275120735168457,0.6453598090468105,40.0,408.0,0.0
Y,R,"[7, 8]",0.0,0.0,0.26590609550476074,2.0390138626098633,0.6843452366809817,40.0,409.0,0.0
G,D,"[8, 8]",0.0,0.0,0.26123499870300293,1.7319369316101074,0.366575357923305,40.0,410.0,0.0
,,"(6, 6)",,,,,,,,
B,L,"[6, 5]",-1.0,0.0,0.028953075408935547,7.166455030441284,0.6663445861352206,41.0,411.0,0.0
Y,R,"[6, 6]",0.0,0.0,0.4738960266113281,1.9059350490570068,0.32274854215687837,41.0,412.0,0.0
B,L,"[6, 5]",0.0,0.0,0.38248491287231445,1.9189579486846924,0.44153374016470953,41.0,413.0,0.0
G,D,"[7, 5]",0.0,0.0,0.24482202529907227,1.7181041240692139,0.37632672354494245,41.0,414.0,0.0
B,L,"[7, 4]",0.0,0.0,0.20442795753479004,1.79795503616333,0.5074986214996253,41.0,415.0,0.0
Y,R,"[7, 5]",0.0,0.0,0.20728206634521484,1.726365089416504,0.43399023922670893,41.0,416.0,0.0
Y,R,"[7, 6]",0.0,0.0,0.264070987701416,1.9956650733947754,0.6295432568865785,41.0,417.0,0.0
Y,R,"[7, 7]",0.0,0.0,0.3820829391479492,1.8725371360778809,0.38564904497818375,41.0,418.0,0.0
B,L,"[7, 6]",0.0,0.0,0.35860109329223633,2.1610281467437744,0.6964484256265893,41.0,419.0,0.0
B,L,"[7, 5]",0.0,0.0,0.3030102252960205,1.6641440391540527,0.26103278965442894,41.0,420.0,0.0
,,"(6, 6)",,,,,,,,
B,L,"[6, 5]",0.0,0.0,0.9039549827575684,3.4694459438323975,0.5804813984862984,42.0,421.0,0.0
Y,R,"[6, 6]",0.0,0.0,0.2838480472564697,2.0638468265533447,0.6773021155879516,42.0,422.0,0.0
Y,R,"[6, 7]",0.0,0.0,0.18728303909301758,1.973681926727295,0.7011468328637238,42.0,423.0,0.0
Y,R,"[6, 8]",-1.0,0.0,0.004848957061767578,5.757575988769531,0.6256169441749682,42.0,424.0,0.0
Y,R,"[6, 9]",1.0,1.0,0.29572606086730957,1.7873530387878418,0.3964729992750913,42.0,425.0,0.0
Y,R,"[6, 10]",1.0,2.0,0.46077394485473633,2.2909159660339355,0.7204922774696819,42.0,426.0,0.0
B,L,"[6, 9]",0.0,2.0,0.3314230442047119,1.9039690494537354,0.4747767118515829,42.0,427.0,0.0
G,D,"[7, 9]",0.0,2.0,0.27973508834838867,1.7428948879241943,0.36771299650709527,42.0,428.0,0.0
B,L,"[7, 8]",0.0,2.0,0.3026890754699707,1.7968568801879883,0.39789042344403897,42.0,429.0,0.0
Y,R,"[7, 9]",0.0,2.0,0.3368690013885498,1.7526788711547852,0.31749367767161535,42.0,430.0,0.0
,,"(6, 6)",,,,,,,,
Y,R,"[6, 7]",0.0,0.0,0.5913348197937012,3.0359199047088623,0.32013556774707314,43.0,431.0,0.0
Y,R,"[6, 8]",1.0,1.0,0.4781320095062256,2.2776920795440674,0.6973608416445364,43.0,432.0,0.0
Y,R,"[6, 9]",1.0,2.0,0.9624669551849365,2.529062032699585,0.4600785808976677,43.0,433.0,0.0
B,L,"[6, 8]",0.0,2.0,0.28869080543518066,1.7181429862976074,0.32848429138670787,43.0,434.0,0.0
G,D,"[7, 8]",0.0,2.0,0.3290438652038574,1.6940550804138184,0.27256610907813456,43.0,435.0,0.0
B,L,"[7, 7]",0.0,2.0,0.19309091567993164,1.6497650146484375,0.35573663589225524,43.0,436.0,0.0
Y,R,"[7, 8]",0.0,2.0,0.24103713035583496,1.7148940563201904,0.3705756661735661,43.0,437.0,0.0
B,L,"[7, 7]",0.0,2.0,0.5592150688171387,1.990393877029419,0.32779960315083584,43.0,438.0,0.0
R,U,"[6, 7]",0.0,2.0,0.5843777656555176,2.322995185852051,0.6502612691151601,43.0,439.0,0.0
R,U,"[5, 7]",1.0,3.0,0.3839709758758545,2.0116491317749023,0.5290116814903141,43.0,440.0,0.0
,,"(6, 6)",,,,,,,,
G,D,"[7, 6]",0.0,0.0,0.7054369449615479,3.762376070022583,0.7244637537230635,44.0,441.0,0.0
B,L,"[7, 5]",0.0,0.0,0.6509311199188232,2.062230110168457,0.32049425705942675,44.0,442.0,0.0
Y,R,"[7, 6]",0.0,0.0,0.5956299304962158,2.3961291313171387,0.6996701121355007,44.0,443.0,0.0
B,L,"[7, 5]",0.0,0.0,0.3359870910644531,1.8360240459442139,0.4026328522685103,44.0,444.0,0.0
R,U,"[6, 5]",0.0,0.0,0.40381908416748047,1.7782959938049316,0.2812272915456805,44.0,445.0,0.0
G,D,"[7, 5]",0.0,0.0,0.4033670425415039,2.047287940979004,0.544957811563824,44.0,446.0,0.0
R,U,"[6, 5]",0.0,0.0,0.5212318897247314,2.143378973007202,0.5385167699335371,44.0,447.0,0.0
B,L,"[6, 4]",0.0,0.0,0.23042893409729004,1.7719190120697021,0.44366016805242564,44.0,448.0,0.0
G,D,"[7, 4]",0.0,0.0,0.364670991897583,1.91998291015625,0.46382212455967037,44.0,449.0,0.0
B,L,"[7, 3]",0.0,0.0,0.23368597030639648,1.939323902130127,0.6030171881327386,44.0,450.0,0.0
,,"(6, 6)",,,,,,,,
G,D,"[7, 6]",0.0,0.0,0.9845709800720215,3.728700876235962,0.465140231945733,45.0,451.0,0.0
B,L,"[7, 5]",0.0,0.0,0.4239540100097656,2.2602808475494385,0.725398958678164,45.0,452.0,0.0
Y,R,"[7, 6]",0.0,0.0,0.27625608444213867,2.0571329593658447,0.6825318558319926,45.0,453.0,0.0
R,U,"[6, 6]",0.0,0.0,0.3418428897857666,2.0551280975341797,0.6045369877649369,45.0,454.0,0.0
Y,R,"[6, 7]",0.0,0.0,0.5605990886688232,2.1019749641418457,0.44005383597525133,45.0,455.0,0.0
R,U,"[5, 7]",1.0,1.0,0.3055579662322998,2.15958309173584,0.7491848485215599,45.0,456.0,0.0
R,U,"[4, 7]",-1.0,1.0,0.026304006576538086,5.578208923339844,0.4280257078534778,45.0,457.0,0.0
R,U,"[3, 7]",0.0,1.0,0.24146199226379395,2.0003459453582764,0.6615752611487757,45.0,458.0,0.0
Y,R,"[3, 8]",0.0,1.0,0.3154151439666748,1.9230120182037354,0.5179306075956676,45.0,459.0,0.0
Y,R,"[3, 9]",1.0,2.0,0.5543088912963867,2.2971580028533936,0.6482526795876664,45.0,460.0,0.0
,,"(6, 6)",,,,,,,,
G,D,"[7, 6]",0.0,0.0,0.8455960750579834,31.209559202194214,0.6918702903911549,46.0,461.0,0.0
Y,R,"[7, 7]",0.0,0.0,0.6732590198516846,2.08207106590271,0.3078517400697012,46.0,462.0,0.0
B,L,"[7, 6]",0.0,0.0,0.6051740646362305,2.209416151046753,0.5003850314479599,46.0,463.0,0.0
R,U,"[6, 6]",0.0,0.0,0.2585029602050781,1.866791009902954,0.5005177617143484,46.0,464.0,0.0
G,D,"[7, 6]",0.0,0.0,0.11609292030334473,1.5979959964752197,0.3815508162327153,46.0,465.0,0.0
R,U,"[6, 6]",0.0,0.0,0.3461270332336426,1.742340087890625,0.2910807212625642,46.0,466.0,0.0
B,L,"[6, 5]",0.0,0.0,0.35066819190979004,1.7202060222625732,0.27804006181028085,46.0,467.0,0.0
Y,R,"[6, 6]",0.0,0.0,0.3031909465789795,1.6699128150939941,0.28135245191745256,46.0,468.0,0.0
Y,R,"[6, 7]",-2.0,0.0,1.071868896484375,2.781964063644409,0.6629642750414291,46.0,469.0,0.0
Y,R,"[6, 8]",1.0,1.0,0.560662031173706,2.2642810344696045,0.5940471994870156,46.0,470.0,0.0
,,"(6, 6)",,,,,,,,
R,U,"[5, 6]",1.0,1.0,0.7458879947662354,4.427281141281128,0.28860058665923377,47.0,471.0,0.0
G,D,"[6, 6]",0.0,1.0,0.3986179828643799,2.1547319889068604,0.6595339017832704,47.0,472.0,0.0
R,U,"[5, 6]",0.0,1.0,0.5426540374755859,1.9173429012298584,0.2772992329292085,47.0,473.0,0.0
B,L,"[5, 5]",0.0,1.0,0.3579409122467041,2.095582962036133,0.6392674969436495,47.0,474.0,0.0
Y,R,"[5, 6]",0.0,1.0,0.6369879245758057,1.9809491634368896,0.2540541132534755,47.0,475.0,0.0
G,D,"[6, 6]",0.0,1.0,0.8243920803070068,2.4837570190429688,0.5542646724302867,47.0,476.0,0.0
R,U,"[5, 6]",0.0,1.0,0.24112200736999512,2.0222301483154297,0.6763933080709764,47.0,477.0,0.0
B,L,"[5, 5]",0.0,1.0,0.30304598808288574,1.8529460430145264,0.4628943238266551,47.0,478.0,0.0
Y,R,"[5, 6]",0.0,1.0,0.6961390972137451,2.5356831550598145,0.731722368845458,47.0,479.0,0.0
B,L,"[5, 5]",0.0,1.0,0.6619999408721924,2.4267630577087402,0.6585158287326436,47.0,480.0,0.0
,,"(6, 6)",,,,,,,,
R,U,"[5, 6]",1.0,1.0,0.7344510555267334,4.26341700553894,0.6887136341469806,48.0,481.0,0.0
G,D,"[6, 6]",0.0,1.0,0.15206289291381836,1.5254549980163574,0.2813561812345035,48.0,482.0,0.0
G,D,"[7, 6]",0.0,1.0,0.6026160717010498,2.4360029697418213,0.7335035616831127,48.0,483.0,0.0
R,U,"[6, 6]",-2.0,1.0,1.1473379135131836,2.7182440757751465,0.5353540416711984,48.0,484.0,0.0
R,U,"[5, 6]",0.0,1.0,0.3049778938293457,2.1487221717834473,0.733884891783626,48.0,485.0,0.0
B,L,"[5, 5]",0.0,1.0,0.4420030117034912,2.0282771587371826,0.4795453924903494,48.0,486.0,0.0
Y,R,"[5, 6]",0.0,1.0,0.4498140811920166,2.1576950550079346,0.6034238715042506,48.0,487.0,0.0
G,D,"[6, 6]",0.0,1.0,0.4254310131072998,2.064851999282837,0.5351623136534546,48.0,488.0,0.0
R,U,"[5, 6]",0.0,1.0,0.16809916496276855,1.8572180271148682,0.5924545612070358,48.0,489.0,0.0
B,L,"[5, 5]",0.0,1.0,0.4040870666503906,2.135944128036499,0.6449474500871886,48.0,490.0,0.0
,,"(6, 6)",,,,,,,,
R,U,"[5, 6]",1.0,1.0,0.5780539512634277,17.944303035736084,0.47324464409499356,49.0,491.0,0.0
G,D,"[6, 6]",0.0,1.0,0.6024520397186279,2.1685709953308105,0.47515172846123954,49.0,492.0,0.0
B,L,"[6, 5]",0.0,1.0,0.3428220748901367,1.863097906112671,0.4217296062476002,49.0,493.0,0.0
Y,R,"[6, 6]",0.0,1.0,0.24252605438232422,1.8563261032104492,0.5112722976983529,49.0,494.0,0.0
Y,R,"[6, 7]",0.0,1.0,0.1953449249267578,1.8819479942321777,0.5931772727904685,49.0,495.0,0.0
B,L,"[6, 6]",0.0,1.0,0.2030479907989502,1.8206720352172852,0.53070159446405,49.0,496.0,0.0
G,D,"[7, 6]",0.0,1.0,0.297788143157959,1.9828600883483887,0.580246448569878,49.0,497.0,0.0
R,U,"[6, 6]",0.0,1.0,0.25192809104919434,1.8900940418243408,0.5370165753929566,49.0,498.0,0.0
R,U,"[5, 6]",0.0,1.0,0.5709547996520996,1.9872641563415527,0.3079045211937241,49.0,499.0,0.0
G,D,"[6, 6]",0.0,1.0,0.366225004196167,2.034959077835083,0.5760148997756191,49.0,500.0,0.0
,,"(6, 6)",,,,,,,,
B,L,"[6, 5]",0.0,0.0,0.5563859939575195,3.7959630489349365,0.42219739114886856,50.0,501.0,0.0
Y,R,"[6, 6]",0.0,0.0,0.6357970237731934,2.06729793548584,0.3396160933968922,50.0,502.0,0.0
B,L,"[6, 5]",0.0,0.0,0.41321587562561035,2.2293238639831543,0.718589464467216,50.0,503.0,0.0
G,D,"[7, 5]",0.0,0.0,0.19920897483825684,1.731076955795288,0.43321557582645576,50.0,504.0,0.0
R,U,"[6, 5]",0.0,0.0,0.8105530738830566,2.625730037689209,0.7085945152322319,50.0,505.0,0.0
G,D,"[7, 5]",0.0,0.0,0.9793779850006104,2.3338239192962646,0.2599432404646165,50.0,506.0,0.0
B,L,"[7, 4]",0.0,0.0,0.22782492637634277,1.7450251579284668,0.42136846352192925,50.0,507.0,0.0
Y,R,"[7, 5]",-2.0,0.0,1.1434319019317627,2.5750961303710938,0.3966059209065577,50.0,508.0,0.0
B,L,"[7, 4]",0.0,0.0,0.26758503913879395,1.8209750652313232,0.45087615368227685,50.0,509.0,0.0
Y,R,"[7, 5]",0.0,0.0,0.652228832244873,2.0073390007019043,0.2584489747037281,50.0,510.0,0.0
,,"(6, 6)",,,,,,,,
Y,R,"[6, 7]",0.0,0.0,0.5259621143341064,20.62618112564087,0.4183488499179529,51.0,511.0,0.0
Y,R,"[6, 8]",1.0,1.0,0.1918320655822754,1.6829400062561035,0.38467354707218915,51.0,512.0,0.0
Y,R,"[6, 9]",1.0,2.0,0.2476968765258789,1.9668760299682617,0.6180247038027806,51.0,513.0,0.0
Y,R,"[6, 10]",1.0,3.0,0.2216320037841797,1.7772390842437744,0.4454713427688756,51.0,514.0,0.0
Y,R,"[6, 11]",0.0,3.0,0.272122859954834,1.943863868713379,0.5557411544489412,51.0,515.0,0.0
R,U,"[5, 11]",0.0,3.0,0.24299001693725586,1.8589668273925781,0.5150672414106401,51.0,516.0,0.0
Y,R,"[6, 11]",-3.0,3.0,0.12355589866638184,1.816025972366333,0.5811371739846424,51.0,517.0,0.0
R,U,"[5, 11]",0.0,3.0,0.2807900905609131,1.7604308128356934,0.3748573577605623,51.0,518.0,0.0
Y,R,"[6, 11]",-3.0,3.0,0.39682793617248535,2.0010979175567627,0.5094636499355819,51.0,519.0,0.0
Y,R,"[5, 11]",-3.0,3.0,0.10485506057739258,1.735231876373291,0.5279599088394247,51.0,520.0,0.0
,,"(6, 6)",,,,,,,,
R,U,"[5, 6]",1.0,1.0,0.4282100200653076,5.3048930168151855,0.46646618088609626,52.0,521.0,0.0
Y,R,"[5, 7]",1.0,2.0,0.49899792671203613,1.875391960144043,0.2754456772619419,52.0,522.0,0.0
Y,R,"[5, 8]",1.0,3.0,0.4133899211883545,1.78485107421875,0.276941383801983,52.0,523.0,0.0
R,U,"[4, 8]",0.0,3.0,0.38027191162109375,1.7638871669769287,0.2908199734944829,52.0,524.0,0.0
R,U,"[3, 8]",0.0,3.0,0.3615400791168213,2.152400016784668,0.6929014617333276,52.0,525.0,0.0
Y,R,"[3, 9]",1.0,4.0,0.1157829761505127,1.5800530910491943,0.37334837579063573,52.0,526.0,0.0
Y,R,"[3, 10]",0.0,4.0,0.2724950313568115,2.1069729328155518,0.7299670750287875,52.0,527.0,0.0
R,U,"[2, 10]",0.0,4.0,0.17914605140686035,1.854578971862793,0.5680193457659707,52.0,528.0,0.0
Y,R,"[2, 11]",-1.0,4.0,0.0998380184173584,5.863412857055664,0.6316952936844012,52.0,529.0,0.0
Y,R,"[2, 10]",-3.0,4.0,0.5904569625854492,2.048768997192383,0.3640302797669168,52.0,530.0,0.0
,,"(6, 6)",,,,,,,,
R,U,"[5, 6]",1.0,1.0,0.4594590663909912,6.2400829792022705,0.6206663726020143,53.0,531.0,0.0
R,U,"[4, 6]",-1.0,1.0,0.06631803512573242,5.777341842651367,0.5816625106706237,53.0,532.0,0.0
Y,R,"[4, 7]",0.0,1.0,0.2543661594390869,1.8987078666687012,0.5469427539471726,53.0,533.0,0.0
Y,R,"[4, 8]",0.0,1.0,0.3237287998199463,1.7757389545440674,0.35620964621905227,53.0,534.0,0.0
R,U,"[3, 8]",0.0,1.0,0.23688197135925293,1.947099208831787,0.6199411020575852,53.0,535.0,0.0
Y,R,"[3, 9]",1.0,2.0,0.25504302978515625,1.8536579608917236,0.49033848449947254,53.0,536.0,0.0
Y,R,"[3, 10]",0.0,2.0,0.32475900650024414,2.1006648540496826,0.6741728886658398,53.0,537.0,0.0
Y,R,"[3, 11]",0.0,2.0,0.4158790111541748,2.2539730072021484,0.7448492175102717,53.0,538.0,0.0
Y,R,"[3, 10]",-3.0,2.0,0.29996609687805176,1.8785130977630615,0.4897222818751383,53.0,539.0,0.0
R,U,"[2, 10]",0.0,2.0,0.24703097343444824,1.9871490001678467,0.644036599744168,53.0,540.0,0.0
,,"(6, 6)",,,,,,,,
R,U,"[5, 6]",1.0,1.0,0.8435380458831787,4.162453889846802,0.25704630509974535,54.0,541.0,0.0
R,U,"[4, 6]",0.0,1.0,0.6450400352478027,2.1358418464660645,0.3925782014310137,54.0,542.0,0.0
Y,R,"[4, 7]",0.0,1.0,0.22884011268615723,1.8799870014190674,0.5560281747600121,54.0,543.0,0.0
Y,R,"[4, 8]",0.0,1.0,0.29538989067077637,2.1322171688079834,0.7379952080362373,54.0,544.0,0.0
Y,R,"[4, 9]",1.0,2.0,0.19637680053710938,1.5815880298614502,0.28667655419769,54.0,545.0,0.0
Y,R,"[4, 10]",1.0,3.0,0.3000009059906006,1.9537508487701416,0.5569490774520923,54.0,546.0,0.0
Y,R,"[4, 11]",0.0,3.0,0.19593501091003418,1.6580870151519775,0.3653539108121807,54.0,547.0,0.0
Y,R,"[4, 10]",-3.0,3.0,0.23462319374084473,1.9690220355987549,0.6340818865612634,54.0,548.0,0.0
R,U,"[3, 10]",0.0,3.0,0.16673612594604492,1.73744797706604,0.47170674529960405,54.0,549.0,0.0
R,U,"[2, 10]",0.0,3.0,0.24345898628234863,1.976243019104004,0.6312154099192597,54.0,550.0,0.0
,,"(6, 6)",,,,,,,,
R,U,"[5, 6]",1.0,1.0,0.6746830940246582,3.5031487941741943,0.418007240050048,55.0,551.0,0.0
R,U,"[4, 6]",0.0,1.0,0.35431480407714844,2.0668230056762695,0.6181121229292137,55.0,552.0,0.0
Y,R,"[4, 7]",0.0,1.0,0.16271305084228516,1.663055181503296,0.3980181811552922,55.0,553.0,0.0
Y,R,"[4, 8]",0.0,1.0,0.22600102424621582,1.889436960220337,0.5540836928274882,55.0,554.0,0.0
R,U,"[3, 8]",0.0,1.0,0.2934408187866211,1.8344709873199463,0.4386662987119923,55.0,555.0,0.0
R,U,"[2, 8]",0.0,1.0,0.26950716972351074,1.8299529552459717,0.4686845387863731,55.0,556.0,0.0
Y,R,"[2, 9]",0.0,1.0,0.20322203636169434,2.0165610313415527,0.7183764236118628,55.0,557.0,0.0
Y,R,"[2, 10]",0.0,1.0,0.17154908180236816,2.0202839374542236,0.7387121189970494,55.0,558.0,0.0
Y,R,"[2, 11]",0.0,1.0,0.29113197326660156,1.8813118934631348,0.4868104841704205,55.0,559.0,0.0
Y,R,"[2, 10]",-3.0,1.0,0.3324880599975586,2.009629011154175,0.5799056207413149,55.0,560.0,0.0
,,"(6, 6)",,,,,,,,
B,L,"[6, 5]",0.0,0.0,0.5383920669555664,3.174881935119629,0.28848364003834254,56.0,561.0,0.0
R,U,"[5, 5]",0.0,0.0,0.17476606369018555,1.9985699653625488,0.7197878241471494,56.0,562.0,0.0
Y,R,"[5, 6]",1.0,1.0,0.33859920501708984,1.8536860942840576,0.40731890081623834,56.0,563.0,0.0
Y,R,"[5, 7]",1.0,2.0,0.46265292167663574,2.0578110218048096,0.4983838381910899,56.0,564.0,0.0
Y,R,"[5, 8]",1.0,3.0,0.5522840023040771,2.1077210903167725,0.45620830793082556,56.0,565.0,0.0
R,U,"[4, 8]",0.0,3.0,0.4174830913543701,2.2011311054229736,0.6905560276455591,56.0,566.0,0.0
Y,R,"[4, 9]",1.0,4.0,0.23240423202514648,1.988759994506836,0.6626564340446934,56.0,567.0,0.0
Y,R,"[4, 10]",1.0,5.0,0.25333499908447266,1.6821849346160889,0.32814836725217267,56.0,568.0,0.0
Y,R,"[4, 11]",0.0,5.0,0.33471179008483887,1.7031610012054443,0.2818094204665989,56.0,569.0,0.0
R,U,"[3, 11]",0.0,5.0,0.28908610343933105,1.9017908573150635,0.5002453404033799,56.0,570.0,0.0
,,"(6, 6)",,,,,,,,
Y,R,"[6, 7]",0.0,0.0,0.5991170406341553,4.828903913497925,0.7455936587573377,57.0,571.0,0.0
B,L,"[6, 6]",0.0,0.0,0.4912271499633789,1.8941130638122559,0.2902882116412682,57.0,572.0,0.0
G,D,"[7, 6]",0.0,0.0,0.370682954788208,2.2055649757385254,0.7287602780629322,57.0,573.0,0.0
R,U,"[6, 6]",0.0,0.0,0.39278602600097656,2.2264928817749023,0.7386722820814375,57.0,574.0,0.0
Y,R,"[6, 7]",0.0,0.0,0.49053287506103516,1.8490970134735107,0.2549190135000434,57.0,575.0,0.0
Y,R,"[6, 8]",1.0,1.0,0.7502310276031494,2.271817922592163,0.4266084146812788,57.0,576.0,0.0
Y,R,"[6, 9]",1.0,2.0,0.16898012161254883,1.9199140071868896,0.6630057985579008,57.0,577.0,0.0
B,L,"[6, 8]",0.0,2.0,0.23276495933532715,1.950984001159668,0.6140971986020745,57.0,578.0,0.0
R,U,"[5, 8]",1.0,3.0,0.35984206199645996,2.145932912826538,0.6767008463749736,57.0,579.0,0.0
G,D,"[6, 8]",0.0,3.0,0.1275029182434082,1.8722140789031982,0.6488472403610978,57.0,580.0,0.0
,,"(6, 6)",,,,,,,,
Y,R,"[6, 7]",0.0,0.0,0.4304659366607666,4.507751941680908,0.45709502148599834,58.0,581.0,0.0
Y,R,"[6, 8]",1.0,1.0,0.23431682586669922,1.7482178211212158,0.42188219835957325,58.0,582.0,0.0
Y,R,"[6, 9]",1.0,2.0,0.5905110836029053,2.277228832244873,0.5989965097079226,58.0,583.0,0.0
Y,R,"[6, 10]",1.0,3.0,0.2982339859008789,1.7890918254852295,0.3883621789534858,58.0,584.0,0.0
R,U,"[5, 10]",1.0,4.0,0.382951021194458,1.8887231349945068,0.41050243209601356,58.0,585.0,0.0
R,U,"[4, 10]",1.0,5.0,0.22975802421569824,2.0459609031677246,0.7228668147709356,58.0,586.0,0.0
Y,R,"[4, 11]",0.0,5.0,0.280148983001709,1.941107988357544,0.564157228996169,58.0,587.0,0.0
B,L,"[4, 10]",0.0,5.0,0.19994902610778809,1.5584561824798584,0.2564357802623836,58.0,588.0,0.0
G,D,"[5, 10]",0.0,5.0,0.3369941711425781,1.685230016708374,0.2581023725972492,58.0,589.0,0.0
G,D,"[6, 10]",0.0,5.0,0.333651065826416,2.0209901332855225,0.5956419281092507,58.0,590.0,0.0
,,"(6, 6)",,,,,,,,
Y,R,"[6, 7]",0.0,0.0,0.7568318843841553,3.9111080169677734,0.6900454797631822,59.0,591.0,0.0
R,U,"[5, 7]",1.0,1.0,0.24850106239318848,1.8503990173339844,0.5073446814835496,59.0,592.0,0.0
R,U,"[4, 7]",0.0,1.0,0.3083639144897461,1.955683946609497,0.5463052526709142,59.0,593.0,0.0
Y,R,"[4, 8]",0.0,1.0,0.3300609588623047,2.158179998397827,0.7211265473849464,59.0,594.0,0.0
Y,R,"[4, 9]",1.0,2.0,0.28526806831359863,1.7668020725250244,0.3883544753840869,59.0,595.0,0.0
R,U,"[3, 9]",1.0,3.0,0.24840903282165527,1.6569249629974365,0.31204154425829445,59.0,596.0,0.0
R,U,"[2, 9]",0.0,3.0,0.3124048709869385,1.670544147491455,0.2660774664497797,59.0,597.0,0.0
G,D,"[3, 9]",0.0,3.0,0.2451951503753662,1.8231799602508545,0.47242985169778806,59.0,598.0,0.0
G,D,"[4, 9]",0.0,3.0,0.32065582275390625,1.8838989734649658,0.47301027568402865,59.0,599.0,0.0
B,L,"[4, 8]",0.0,3.0,0.22122597694396973,1.8033959865570068,0.493185276234067,59.0,600.0,0.0
,,"(6, 6)",,,,,,,,
B,L,"[6, 5]",0.0,0.0,0.5040349960327148,3.5240020751953125,0.633761421918799,60.0,601.0,0.0
Y,R,"[6, 6]",0.0,0.0,0.2340841293334961,1.855057954788208,0.5222135205696168,60.0,602.0,0.0
Y,R,"[6, 7]",0.0,0.0,0.7212169170379639,2.4145658016204834,0.6034187937520261,60.0,603.0,0.0
R,U,"[5, 7]",-1.0,0.0,0.07285404205322266,5.702080011367798,0.50586162717696,60.0,604.0,0.0
R,U,"[4, 7]",0.0,0.0,0.3318171501159668,1.950556993484497,0.5230179959812937,60.0,605.0,0.0
Y,R,"[4, 8]",0.0,0.0,0.5657501220703125,2.4016339778900146,0.7410419103604015,60.0,606.0,0.0
G,D,"[5, 8]",1.0,1.0,0.3240020275115967,1.9005708694458008,0.4754126069775526,60.0,607.0,0.0
B,L,"[5, 7]",0.0,1.0,0.3912999629974365,1.7869060039520264,0.2959474919466067,60.0,608.0,0.0
B,L,"[5, 6]",-2.0,1.0,1.2610371112823486,2.871854066848755,0.5841672716553767,60.0,609.0,0.0
G,D,"[6, 6]",0.0,1.0,0.3134000301361084,2.134481191635132,0.7184645681592827,60.0,610.0,0.0
,,"(6, 6)",,,,,,,,
Y,R,"[6, 7]",0.0,0.0,0.7105348110198975,3.6109061241149902,0.4131980387640313,61.0,611.0,0.0
R,U,"[5, 7]",1.0,1.0,0.650627851486206,2.308871030807495,0.5554067915713095,61.0,612.0,0.0
Y,R,"[5, 8]",1.0,2.0,0.29984498023986816,1.943120002746582,0.5486286997893915,61.0,613.0,0.0
Y,R,"[5, 9]",0.0,2.0,0.5248010158538818,2.088038921356201,0.45342824403434523,61.0,614.0,0.0
R,U,"[4, 9]",1.0,3.0,0.4983181953430176,2.3050100803375244,0.7083030599032202,61.0,615.0,0.0
Y,R,"[4, 10]",1.0,4.0,0.3685629367828369,2.043220043182373,0.5849066259499782,61.0,616.0,0.0
B,L,"[4, 9]",0.0,4.0,0.4438779354095459,2.0587990283966064,0.5104922349697946,61.0,617.0,0.0
G,D,"[5, 9]",0.0,4.0,0.48482799530029297,2.068610906600952,0.4958866749903458,61.0,618.0,0.0
R,U,"[4, 9]",0.0,4.0,0.5424799919128418,2.157581090927124,0.5035296468003256,61.0,619.0,0.0
Y,R,"[4, 10]",0.0,4.0,0.9132289886474609,2.317293882369995,0.3044048889398114,61.0,620.0,0.0
,,"(6, 6)",,,,,,,,
Y,R,"[6, 7]",0.0,0.0,0.8001589775085449,5.036932945251465,0.3747739492339289,62.0,621.0,0.0
R,U,"[5, 7]",1.0,1.0,0.5057392120361328,2.3001320362091064,0.6913056993294369,62.0,622.0,0.0
Y,R,"[5, 8]",1.0,2.0,0.17383098602294922,1.5869970321655273,0.31201277640708464,62.0,623.0,0.0
R,U,"[4, 8]",0.0,2.0,0.6675560474395752,2.2521369457244873,0.4973978244137855,62.0,624.0,0.0
Y,R,"[4, 9]",1.0,3.0,0.4540138244628906,1.9649090766906738,0.4124488134695832,62.0,625.0,0.0
R,U,"[3, 9]",1.0,4.0,0.2441730499267578,1.5896201133728027,0.25226467653201157,62.0,626.0,0.0
Y,R,"[3, 10]",0.0,4.0,0.3469359874725342,1.811697006225586,0.363847994256667,62.0,627.0,0.0
R,U,"[2, 10]",0.0,4.0,0.2484738826751709,1.8170971870422363,0.4642145488967921,62.0,628.0,0.0
B,L,"[2, 9]",0.0,4.0,0.25011396408081055,1.85978102684021,0.507455163454944,62.0,629.0,0.0
G,D,"[3, 9]",0.0,4.0,0.3869140148162842,1.885556936264038,0.39320438041689243,62.0,630.0,0.0
,,"(6, 6)",,,,,,,,
Y,R,"[6, 7]",0.0,0.0,0.9544341564178467,5.767404079437256,0.2775298936867545,63.0,631.0,0.0
R,U,"[5, 7]",1.0,1.0,0.8941700458526611,2.7256839275360107,0.7361193621410387,63.0,632.0,0.0
B,L,"[5, 6]",1.0,2.0,0.44700002670288086,2.0927720069885254,0.5458686714004866,63.0,633.0,0.0
G,D,"[6, 6]",0.0,2.0,0.41196203231811523,1.9119420051574707,0.37458674762801275,63.0,634.0,0.0
Y,R,"[6, 7]",-2.0,2.0,1.2320690155029297,2.684506893157959,0.4258311837595743,63.0,635.0,0.0
R,U,"[5, 7]",0.0,2.0,0.24504399299621582,2.081735134124756,0.7406477067994999,63.0,636.0,0.0
B,L,"[5, 6]",0.0,2.0,0.1966228485107422,1.985579013824463,0.6929338527270621,63.0,637.0,0.0
G,D,"[6, 6]",0.0,2.0,0.45034122467041016,1.820443868637085,0.2804932346272939,63.0,638.0,0.0
Y,R,"[6, 7]",0.0,2.0,0.38725709915161133,1.9887630939483643,0.5024102127093454,63.0,639.0,0.0
R,U,"[5, 7]",0.0,2.0,0.8058319091796875,2.639993906021118,0.725625004216204,63.0,640.0,0.0
,,"(6, 6)",,,,,,,,
B,L,"[6, 5]",0.0,0.0,0.4609861373901367,4.364537954330444,0.6237583958418885,64.0,641.0,0.0
G,D,"[7, 5]",0.0,0.0,0.3249809741973877,2.072026014328003,0.6457758163412675,64.0,642.0,0.0
R,U,"[6, 5]",-2.0,0.0,1.3519220352172852,2.9001760482788086,0.5127447660168292,64.0,643.0,0.0
R,U,"[5, 5]",0.0,0.0,0.21316981315612793,1.7969861030578613,0.476526064515952,64.0,644.0,0.0
B,L,"[5, 4]",0.0,0.0,0.19781994819641113,1.5721580982208252,0.2822639788867701,64.0,645.0,0.0
Y,R,"[5, 5]",0.0,0.0,0.3360931873321533,2.007169008255005,0.5724997319501625,64.0,646.0,0.0
Y,R,"[5, 6]",1.0,1.0,0.41232919692993164,2.072983980178833,0.5622746116252685,64.0,647.0,0.0
Y,R,"[5, 7]",1.0,2.0,0.8058509826660156,2.5187230110168457,0.6142800328815019,64.0,648.0,0.0
Y,R,"[5, 8]",1.0,3.0,0.2516031265258789,1.6490678787231445,0.29717062963896557,64.0,649.0,0.0
Y,R,"[5, 9]",-2.0,3.0,3.6405789852142334,5.265149831771851,0.5788093992489972,64.0,650.0,0.0
,,"(6, 6)",,,,,,,,
Y,R,"[6, 7]",0.0,0.0,0.6010971069335938,3.855633020401001,0.5010504416392509,65.0,651.0,0.0
R,U,"[5, 7]",1.0,1.0,0.21017003059387207,1.8848071098327637,0.5694462301417418,65.0,652.0,0.0
R,U,"[4, 7]",0.0,1.0,0.5759668350219727,2.264526128768921,0.5839182296592175,65.0,653.0,0.0
Y,R,"[4, 8]",-1.0,1.0,0.06319808959960938,5.584403038024902,0.36872692761323506,65.0,654.0,0.0
Y,R,"[4, 9]",1.0,2.0,0.19118499755859375,1.8886818885803223,0.5905540898796755,65.0,655.0,0.0
Y,R,"[4, 10]",1.0,3.0,0.9769299030303955,2.48774790763855,0.4119270445653105,65.0,656.0,0.0
R,U,"[3, 10]",0.0,3.0,0.2928450107574463,1.947493076324463,0.5592886336050584,65.0,657.0,0.0
R,U,"[2, 10]",0.0,3.0,0.3466930389404297,2.13358211517334,0.692825215717827,65.0,658.0,0.0
Y,R,"[2, 11]",0.0,3.0,0.32971620559692383,1.768174171447754,0.34469698843666124,65.0,659.0,0.0
Y,R,"[2, 10]",-3.0,3.0,0.28882789611816406,2.0614051818847656,0.6725198740468705,65.0,660.0,0.0
,,"(6, 6)",,,,,,,,
Y,R,"[6, 7]",0.0,0.0,0.5901100635528564,10.17990493774414,0.33664381393783616,66.0,661.0,0.0
Y,R,"[6, 8]",1.0,1.0,0.7642822265625,2.3132050037384033,0.449587050987574,66.0,662.0,0.0
B,L,"[6, 7]",0.0,1.0,0.4356200695037842,1.9893009662628174,0.45555540343045703,66.0,663.0,0.0
G,D,"[7, 7]",0.0,1.0,0.5897262096405029,2.313523054122925,0.6355296926515868,66.0,664.0,0.0
R,U,"[6, 7]",0.0,1.0,0.30376195907592773,2.019608974456787,0.605219884615045,66.0,665.0,0.0
G,D,"[7, 7]",0.0,1.0,0.38323307037353516,2.1747689247131348,0.6966339187775501,66.0,666.0,0.0
Y,R,"[7, 8]",0.0,1.0,0.22403407096862793,1.8618979454040527,0.5254510750659988,66.0,667.0,0.0
B,L,"[7, 7]",0.0,1.0,0.44620299339294434,1.8749780654907227,0.33398427296070904,66.0,668.0,0.0
Y,R,"[7, 8]",0.0,1.0,0.33167195320129395,1.7799317836761475,0.34734127189056724,66.0,669.0,0.0
R,U,"[6, 8]",0.0,1.0,0.3064749240875244,1.864542007446289,0.4451158919177127,66.0,670.0,0.0
,,"(6, 6)",,,,,,,,
G,D,"[7, 6]",-2.0,0.0,1.0927369594573975,4.975008964538574,0.3207116781263872,67.0,671.0,0.0
Y,R,"[7, 7]",0.0,0.0,0.24991583824157715,1.674328088760376,0.32815518654507575,67.0,672.0,0.0
R,U,"[6, 7]",0.0,0.0,0.7106950283050537,2.217005968093872,0.41184587601057837,67.0,673.0,0.0
Y,R,"[6, 8]",1.0,1.0,0.5571141242980957,2.298369884490967,0.6432421170910166,67.0,674.0,0.0
B,L,"[6, 7]",0.0,1.0,0.4023878574371338,2.0192480087280273,0.5292912185065684,67.0,675.0,0.0
G,D,"[7, 7]",0.0,1.0,0.40802597999572754,2.172708034515381,0.6518438136211224,67.0,676.0,0.0
Y,R,"[7, 8]",0.0,1.0,0.2054591178894043,1.8156177997589111,0.5013138196402952,67.0,677.0,0.0
Y,R,"[7, 9]",-2.0,1.0,1.1908948421478271,2.702548027038574,0.4705350914585886,67.0,678.0,0.0
R,U,"[6, 9]",1.0,2.0,0.41052913665771484,1.776608943939209,0.26406691580331576,67.0,679.0,0.0
Y,R,"[6, 10]",-2.0,2.0,1.9357898235321045,3.285888910293579,0.3166980102249512,67.0,680.0,0.0
,,"(6, 6)",,,,,,,,
B,L,"[6, 5]",0.0,0.0,0.984138011932373,3.871959924697876,0.5883260346375492,68.0,681.0,0.0
Y,R,"[6, 6]",0.0,0.0,0.7859630584716797,2.431464195251465,0.5532604816253368,68.0,682.0,0.0
R,U,"[5, 6]",1.0,1.0,0.2534980773925781,1.8782250881195068,0.531600144361026,68.0,683.0,0.0
G,D,"[6, 6]",0.0,1.0,0.3581721782684326,2.0852038860321045,0.6168060017418566,68.0,684.0,0.0
R,U,"[5, 6]",0.0,1.0,0.2881031036376953,2.1046791076660156,0.7213555474495612,68.0,685.0,0.0
Y,R,"[5, 7]",1.0,2.0,0.18608713150024414,1.7818188667297363,0.5034543873974314,68.0,686.0,0.0
B,L,"[5, 6]",0.0,2.0,0.18532419204711914,2.0099730491638184,0.730114009768701,68.0,687.0,0.0
Y,R,"[5, 7]",0.0,2.0,0.4961080551147461,1.9671990871429443,0.3642745118876408,68.0,688.0,0.0
R,U,"[4, 7]",0.0,2.0,0.5455930233001709,2.1392359733581543,0.48669849119857456,68.0,689.0,0.0
R,U,"[3, 7]",0.0,2.0,0.42711400985717773,1.9700279235839844,0.4401527284506487,68.0,690.0,0.0
,,"(6, 6)",,,,,,,,
Y,R,"[6, 7]",0.0,0.0,0.7691240310668945,3.6547741889953613,0.5282159744386564,69.0,691.0,0.0
Y,R,"[6, 8]",1.0,1.0,0.3168158531188965,1.8397431373596191,0.4349117503836036,69.0,692.0,0.0
R,U,"[5, 8]",1.0,2.0,0.21733903884887695,2.033284902572632,0.7179064817386809,69.0,693.0,0.0
B,L,"[5, 7]",1.0,3.0,0.15258383750915527,1.8847079277038574,0.636168361430653,69.0,694.0,0.0
G,D,"[6, 7]",0.0,3.0,0.45960497856140137,2.2785370349884033,0.7146162772237012,69.0,695.0,0.0
G,D,"[7, 7]",0.0,3.0,0.325153112411499,2.0530760288238525,0.6178384785777316,69.0,696.0,0.0
Y,R,"[7, 8]",0.0,3.0,0.10336709022521973,1.9197261333465576,0.7208129651135118,69.0,697.0,0.0
G,D,"[8, 8]",0.0,3.0,0.20609593391418457,1.6097590923309326,0.2977449372537484,69.0,698.0,0.0
G,D,"[9, 8]",0.0,3.0,0.33793091773986816,1.8882789611816406,0.452665550218284,69.0,699.0,0.0
G,D,"[10, 8]",0.0,3.0,0.2916238307952881,2.0884389877319336,0.690795781532155,69.0,700.0,0.0
,,"(6, 6)",,,,,,,,
Y,R,"[6, 7]",0.0,0.0,0.830679178237915,3.261600971221924,0.3529653535285467,70.0,701.0,0.0
Y,R,"[6, 8]",1.0,1.0,0.7486369609832764,2.2396609783172607,0.39263868900137194,70.0,702.0,0.0
R,U,"[5, 8]",1.0,2.0,0.34246301651000977,2.162707805633545,0.7216243380630856,70.0,703.0,0.0
G,D,"[6, 8]",0.0,2.0,0.32593488693237305,2.1303460597991943,0.7020361046974797,70.0,704.0,0.0
B,L,"[6, 7]",0.0,2.0,0.25875020027160645,1.9210309982299805,0.55697109303136,70.0,705.0,0.0
Y,R,"[6, 8]",-1.0,2.0,0.04239392280578613,5.601591110229492,0.44190706134106245,70.0,706.0,0.0
Y,R,"[6, 9]",1.0,3.0,0.3002588748931885,1.8517670631408691,0.4603077237071039,70.0,707.0,0.0
Y,R,"[6, 10]",1.0,4.0,0.49936604499816895,2.0243330001831055,0.4347781419071863,70.0,708.0,0.0
Y,R,"[6, 11]",0.0,4.0,0.4473860263824463,2.0584280490875244,0.509831454705915,70.0,709.0,0.0
Y,R,"[6, 10]",-2.0,4.0,1.7351880073547363,3.03010892868042,0.2736678823194416,70.0,710.0,0.0
,,"(6, 6)",,,,,,,,
Y,R,"[6, 7]",-2.0,0.0,1.1872940063476562,5.104002952575684,0.7106360778177385,71.0,711.0,0.0
Y,R,"[6, 8]",1.0,1.0,0.13910388946533203,1.712003231048584,0.4728602801897356,71.0,712.0,0.0
Y,R,"[6, 9]",1.0,2.0,0.37447190284729004,2.1531190872192383,0.675815922767316,71.0,713.0,0.0
Y,R,"[6, 10]",-1.0,2.0,0.004362821578979492,5.819595098495483,0.695495276276638,71.0,714.0,0.0
R,U,"[5, 10]",1.0,3.0,0.6711947917938232,2.2688040733337402,0.4812526415813536,71.0,715.0,0.0
R,U,"[4, 10]",1.0,4.0,0.44883108139038086,1.9253921508789062,0.37354440654717147,71.0,716.0,0.0
R,U,"[3, 10]",0.0,4.0,0.6873400211334229,2.3625481128692627,0.5859282375852157,71.0,717.0,0.0
Y,R,"[3, 11]",0.0,4.0,0.47788500785827637,1.8606200218200684,0.2802554748354732,71.0,718.0,0.0
R,U,"[2, 11]",0.0,4.0,0.46884703636169434,2.0066189765930176,0.4368514024603183,71.0,719.0,0.0
B,L,"[2, 10]",0.0,4.0,0.3166360855102539,2.1028499603271484,0.6894178450101738,71.0,720.0,0.0
,,"(6, 6)",,,,,,,,
G,D,"[7, 6]",-2.0,0.0,1.6291439533233643,5.132833957672119,0.4726193836284646,72.0,721.0,0.0
R,U,"[6, 6]",-2.0,0.0,1.2430260181427002,2.872967004776001,0.5955715547477803,72.0,722.0,0.0
R,U,"[5, 6]",1.0,1.0,0.1294548511505127,1.799487829208374,0.5784805266932598,72.0,723.0,0.0
Y,R,"[5, 7]",1.0,2.0,0.28645896911621094,1.6402239799499512,0.26898647015251054,72.0,724.0,0.0
B,L,"[5, 6]",0.0,2.0,0.11963796615600586,1.9170022010803223,0.6856783459330787,72.0,725.0,0.0
Y,R,"[5, 7]",0.0,2.0,0.12609314918518066,1.8090839385986328,0.5781742382889166,72.0,726.0,0.0
G,D,"[6, 7]",0.0,2.0,0.5201091766357422,2.2855470180511475,0.680455565721917,72.0,727.0,0.0
R,U,"[5, 7]",0.0,2.0,0.12325406074523926,1.5023889541625977,0.26666960462142525,72.0,728.0,0.0
Y,R,"[5, 8]",1.0,3.0,0.4854569435119629,1.8693199157714844,0.28592789988553297,72.0,729.0,0.0
R,U,"[4, 8]",0.0,3.0,0.369373083114624,1.8179841041564941,0.3539446440881562,72.0,730.0,0.0
,,"(6, 6)",,,,,,,,
R,U,"[5, 6]",-2.0,0.0,1.3067240715026855,4.2679948806762695,0.2722534302790977,73.0,731.0,0.0
R,U,"[4, 6]",0.0,0.0,0.41736412048339844,1.8318490982055664,0.32054614204062126,73.0,732.0,0.0
G,D,"[5, 6]",0.0,0.0,0.22081518173217773,1.9689481258392334,0.6392665661071391,73.0,733.0,0.0
Y,R,"[5, 7]",1.0,1.0,0.24668288230895996,1.8537170886993408,0.5098111234577231,73.0,734.0,0.0
B,L,"[5, 6]",0.0,1.0,0.2979159355163574,1.9451439380645752,0.5551198504345435,73.0,735.0,0.0
R,U,"[4, 6]",0.0,1.0,0.22960209846496582,1.5796351432800293,0.2517795569751426,73.0,736.0,0.0
R,U,"[3, 6]",0.0,1.0,0.40244603157043457,1.8277130126953125,0.3292424728766878,73.0,737.0,0.0
Y,R,"[3, 7]",0.0,1.0,0.3228030204772949,2.1576240062713623,0.703317276352911,73.0,738.0,0.0
B,L,"[3, 6]",0.0,1.0,0.2419428825378418,1.956204891204834,0.6097748480548231,73.0,739.0,0.0
G,D,"[4, 6]",-1.0,1.0,0.06807112693786621,5.473568916320801,0.28368724343060897,73.0,740.0,0.0
,,"(6, 6)",,,,,,,,
Y,R,"[6, 7]",0.0,0.0,0.6151878833770752,3.7469120025634766,0.264079619543517,74.0,741.0,0.0
Y,R,"[6, 8]",1.0,1.0,0.6162199974060059,2.160431146621704,0.4409685733507408,74.0,742.0,0.0
B,L,"[6, 7]",0.0,1.0,0.367236852645874,2.1168439388275146,0.6577008771694947,74.0,743.0,0.0
R,U,"[5, 7]",1.0,2.0,0.8496968746185303,2.3839190006256104,0.44191653780851226,74.0,744.0,0.0
G,D,"[6, 7]",0.0,2.0,0.32035112380981445,1.8358120918273926,0.427894708031794,74.0,745.0,0.0
R,U,"[5, 7]",0.0,2.0,0.592238187789917,2.2676150798797607,0.5786152183881768,74.0,746.0,0.0
Y,R,"[5, 8]",1.0,3.0,0.6175739765167236,2.047801971435547,0.34337849750733807,74.0,747.0,0.0
Y,R,"[5, 9]",0.0,3.0,0.3175990581512451,2.150297164916992,0.7433854941036024,74.0,748.0,0.0
R,U,"[4, 9]",1.0,4.0,0.19683194160461426,2.0056040287017822,0.7162551451322381,74.0,749.0,0.0
G,D,"[5, 9]",0.0,4.0,0.4002830982208252,2.0266828536987305,0.5259052003976599,74.0,750.0,0.0
,,"(6, 6)",,,,,,,,
Y,R,"[6, 7]",0.0,0.0,0.4291880130767822,4.438617944717407,0.714510618966473,75.0,751.0,0.0
B,L,"[6, 6]",0.0,0.0,0.3879568576812744,2.0541369915008545,0.552111613872166,75.0,752.0,0.0
G,D,"[7, 6]",-1.0,0.0,0.0839540958404541,5.845366954803467,0.6311443772362626,75.0,753.0,0.0
Y,R,"[7, 7]",0.0,0.0,0.26186704635620117,1.7051517963409424,0.33634627740900636,75.0,754.0,0.0
B,L,"[7, 6]",0.0,0.0,0.16915416717529297,1.621319055557251,0.35793540838548793,75.0,755.0,0.0
G,D,"[8, 6]",0.0,0.0,0.31630396842956543,1.7787961959838867,0.3700751565960302,75.0,756.0,0.0
R,U,"[7, 6]",0.0,0.0,0.18623614311218262,1.7409601211547852,0.46098046562567846,75.0,757.0,0.0
B,L,"[7, 5]",0.0,0.0,0.2586631774902344,2.050565004348755,0.6947084222662672,75.0,758.0,0.0
G,D,"[8, 5]",-1.0,0.0,0.021018028259277344,5.7857561111450195,0.6473161902228484,75.0,759.0,0.0
Y,R,"[8, 6]",0.0,0.0,0.28304600715637207,1.653428077697754,0.26791516286479,75.0,760.0,0.0
,,"(6, 6)",,,,,,,,
G,D,"[7, 6]",0.0,0.0,0.7864129543304443,3.7195260524749756,0.5537489387060796,76.0,761.0,0.0
R,U,"[6, 6]",0.0,0.0,0.3853600025177002,2.199583053588867,0.719931032496747,76.0,762.0,0.0
B,L,"[6, 5]",0.0,0.0,0.1882171630859375,1.9781920909881592,0.6982741581161378,76.0,763.0,0.0
Y,R,"[6, 6]",0.0,0.0,0.3405311107635498,1.773366928100586,0.32203896388043196,76.0,764.0,0.0
Y,R,"[6, 7]",-1.0,0.0,0.09597086906433105,5.875229835510254,0.6471724335969675,76.0,765.0,0.0
Y,R,"[6, 8]",1.0,1.0,0.41112399101257324,1.997056007385254,0.4777204846473,76.0,766.0,0.0
Y,R,"[6, 9]",1.0,2.0,0.5043509006500244,1.8792171478271484,0.2738555734598657,76.0,767.0,0.0
Y,R,"[6, 10]",1.0,3.0,0.7100980281829834,2.351562023162842,0.5418362669052645,76.0,768.0,0.0
Y,R,"[6, 11]",0.0,3.0,0.5141329765319824,2.019940137863159,0.4120782698517553,76.0,769.0,0.0
B,L,"[6, 10]",0.0,3.0,0.4066140651702881,1.7732150554656982,0.2685674595454873,76.0,770.0,0.0
,,"(6, 6)",,,,,,,,
Y,R,"[6, 7]",-2.0,0.0,2.4980790615081787,6.449294805526733,0.301531449393343,77.0,771.0,0.0
R,U,"[5, 7]",1.0,1.0,0.27170705795288086,2.098917007446289,0.7333544701293927,77.0,772.0,0.0
B,L,"[5, 6]",1.0,2.0,0.2966289520263672,1.6879041194915771,0.28844701975545944,77.0,773.0,0.0
G,D,"[6, 6]",0.0,2.0,0.1902480125427246,1.9470021724700928,0.6517937666248057,77.0,774.0,0.0
Y,R,"[6, 7]",0.0,2.0,0.2701718807220459,1.7951791286468506,0.4305902618352774,77.0,775.0,0.0
G,D,"[7, 7]",0.0,2.0,0.1273190975189209,1.8747611045837402,0.6384555300198793,77.0,776.0,0.0
R,U,"[6, 7]",0.0,2.0,0.17476797103881836,1.8989520072937012,0.6209642120026138,77.0,777.0,0.0
G,D,"[7, 7]",0.0,2.0,0.19538307189941406,1.7326760292053223,0.43715544495810177,77.0,778.0,0.0
Y,R,"[7, 8]",0.0,2.0,0.1432960033416748,1.5398659706115723,0.2938536060145821,77.0,779.0,0.0
B,L,"[7, 7]",0.0,2.0,0.15342402458190918,1.9146740436553955,0.6747961553227422,77.0,780.0,0.0
,,"(6, 6)",,,,,,,,
Y,R,"[6, 7]",0.0,0.0,0.6135938167572021,3.9868509769439697,0.6118137731141147,78.0,781.0,0.0
B,L,"[6, 6]",0.0,0.0,0.7575860023498535,2.4555020332336426,0.6007925772714325,78.0,782.0,0.0
G,D,"[7, 6]",0.0,0.0,0.3101789951324463,1.8553149700164795,0.43964842137520804,78.0,783.0,0.0
R,U,"[6, 6]",0.0,0.0,0.46993303298950195,2.040692090988159,0.4803219732062762,78.0,784.0,0.0
B,L,"[6, 5]",0.0,0.0,0.10730409622192383,1.969299077987671,0.7493522980686289,78.0,785.0,0.0
Y,R,"[6, 6]",0.0,0.0,0.41536903381347656,1.8741800785064697,0.35738582524082274,78.0,786.0,0.0
B,L,"[6, 5]",0.0,0.0,0.8988819122314453,2.4881551265716553,0.4955809114642619,78.0,787.0,0.0
G,D,"[7, 5]",-1.0,0.0,0.08133387565612793,5.855071067810059,0.6504931820600166,78.0,788.0,0.0
Y,R,"[7, 6]",0.0,0.0,0.23316502571105957,2.0304930210113525,0.6976864581724296,78.0,789.0,0.0
B,L,"[7, 5]",0.0,0.0,0.4948399066925049,2.2785069942474365,0.6763439778418008,78.0,790.0,0.0
,,"(6, 6)",,,,,,,,
B,L,"[6, 5]",0.0,0.0,0.6415379047393799,3.5396370887756348,0.5662470382040108,79.0,791.0,0.0
R,U,"[5, 5]",0.0,0.0,0.23429393768310547,1.9403808116912842,0.606547132625758,79.0,792.0,0.0
G,D,"[6, 5]",0.0,0.0,0.2479088306427002,1.8500580787658691,0.5068845752237512,79.0,793.0,0.0
Y,R,"[6, 6]",0.0,0.0,0.2109842300415039,1.7309510707855225,0.42125339748922835,79.0,794.0,0.0
B,L,"[6, 5]",-2.0,0.0,1.114185094833374,2.53780198097229,0.3924384583976428,79.0,795.0,0.0
Y,R,"[6, 6]",0.0,0.0,0.23559117317199707,1.7259619235992432,0.40162223807882425,79.0,796.0,0.0
G,D,"[7, 6]",0.0,0.0,0.28456807136535645,1.8508410453796387,0.4693634850587695,79.0,797.0,0.0
B,L,"[7, 5]",-2.0,0.0,1.0303850173950195,2.547703981399536,0.48377997194299643,79.0,798.0,0.0
Y,R,"[7, 6]",0.0,0.0,0.588472843170166,2.3530771732330322,0.6532665190101641,79.0,799.0,0.0
B,L,"[7, 5]",0.0,0.0,0.3693668842315674,1.7881081104278564,0.3252581963732212,79.0,800.0,0.0
,,"(6, 6)",,,,,,,,
R,U,"[5, 6]",1.0,1.0,0.6654269695281982,4.120795011520386,0.7456773904676164,80.0,801.0,0.0
G,D,"[6, 6]",0.0,1.0,0.2432858943939209,1.7437200546264648,0.38982754149291926,80.0,802.0,0.0
G,D,"[7, 6]",0.0,1.0,0.461777925491333,1.8977820873260498,0.33772126267426966,80.0,803.0,0.0
B,L,"[7, 5]",0.0,1.0,0.31929516792297363,1.9166431427001953,0.5041975294079768,80.0,804.0,0.0
Y,R,"[7, 6]",0.0,1.0,0.23706603050231934,1.971796989440918,0.6424612337683924,80.0,805.0,0.0
R,U,"[6, 6]",-2.0,1.0,1.164680004119873,2.873800039291382,0.6831110384572648,80.0,806.0,0.0
R,U,"[5, 6]",0.0,1.0,0.31340599060058594,2.0364880561828613,0.619692004692711,80.0,807.0,0.0
G,D,"[6, 6]",0.0,1.0,0.21833300590515137,1.5832650661468506,0.2700036922430633,80.0,808.0,0.0
Y,R,"[6, 7]",0.0,1.0,0.32987093925476074,1.9448750019073486,0.5146276891597228,80.0,809.0,0.0
B,L,"[6, 6]",0.0,1.0,0.2899160385131836,1.8521089553833008,0.4502271840266726,80.0,810.0,0.0
,,"(6, 6)",,,,,,,,
Y,R,"[6, 7]",0.0,0.0,0.5544528961181641,3.3299338817596436,0.5468608546150279,81.0,811.0,0.0
B,L,"[6, 6]",0.0,0.0,0.5497910976409912,2.046902894973755,0.394031995662012,81.0,812.0,0.0
G,D,"[7, 6]",0.0,0.0,0.27150797843933105,2.050554037094116,0.6942486730295128,81.0,813.0,0.0
R,U,"[6, 6]",0.0,0.0,0.25365281105041504,2.042623996734619,0.7036862897635796,81.0,814.0,0.0
R,U,"[5, 6]",1.0,1.0,0.4678528308868408,1.8723361492156982,0.3097975368636712,81.0,815.0,0.0
Y,R,"[5, 7]",1.0,2.0,0.462191104888916,2.289340019226074,0.7319756191465103,81.0,816.0,0.0
R,U,"[4, 7]",0.0,2.0,0.2321641445159912,2.0351219177246094,0.700673126183109,81.0,817.0,0.0
Y,R,"[4, 8]",0.0,2.0,0.347869873046875,2.0676941871643066,0.6183170671856522,81.0,818.0,0.0
Y,R,"[4, 9]",1.0,3.0,0.41731905937194824,1.9325261116027832,0.4179069150307823,81.0,819.0,0.0
R,U,"[3, 9]",1.0,4.0,0.3460240364074707,2.1850109100341797,0.7359449608986295,81.0,820.0,0.0
,,"(6, 6)",,,,,,,,
G,D,"[7, 6]",0.0,0.0,0.6415300369262695,3.4092299938201904,0.412403813050505,82.0,821.0,0.0
B,L,"[7, 5]",0.0,0.0,0.3088529109954834,2.1142680644989014,0.7096706387826552,82.0,822.0,0.0
R,U,"[6, 5]",0.0,0.0,0.17135310173034668,1.6915879249572754,0.43487793471048575,82.0,823.0,0.0
Y,R,"[6, 6]",0.0,0.0,0.27126312255859375,2.0720291137695312,0.7067496030465212,82.0,824.0,0.0
Y,R,"[6, 7]",0.0,0.0,0.18088698387145996,1.9279890060424805,0.6514569938424317,82.0,825.0,0.0
R,U,"[5, 7]",1.0,1.0,0.2125411033630371,1.712134838104248,0.39722462325880215,82.0,826.0,0.0
B,L,"[5, 6]",1.0,2.0,0.24965214729309082,2.0545530319213867,0.7016256129602942,82.0,827.0,0.0
G,D,"[6, 6]",0.0,2.0,0.2627558708190918,1.8831629753112793,0.5183610582680344,82.0,828.0,0.0
B,L,"[6, 5]",0.0,2.0,0.5390801429748535,2.017483949661255,0.369229791376182,82.0,829.0,0.0
G,D,"[7, 5]",0.0,2.0,0.22288298606872559,1.632829189300537,0.3023729673333941,82.0,830.0,0.0
,,"(6, 6)",,,,,,,,
Y,R,"[6, 7]",0.0,0.0,0.6347818374633789,3.120603084564209,0.4394623351103213,83.0,831.0,0.0
R,U,"[5, 7]",1.0,1.0,0.24636292457580566,2.01570200920105,0.6713926883482293,83.0,832.0,0.0
G,D,"[6, 7]",0.0,1.0,0.2823941707611084,2.117624044418335,0.7393316641679213,83.0,833.0,0.0
B,L,"[6, 6]",0.0,1.0,0.3109860420227051,1.9018428325653076,0.49140814696147556,83.0,834.0,0.0
Y,R,"[6, 7]",0.0,1.0,0.24500393867492676,1.6265859603881836,0.28491932623434013,83.0,835.0,0.0
R,U,"[5, 7]",0.0,1.0,0.28700804710388184,1.9458229541778564,0.5638085708876202,83.0,836.0,0.0
B,L,"[5, 6]",1.0,2.0,0.2289750576019287,1.7766380310058594,0.4406422014453573,83.0,837.0,0.0
Y,R,"[5, 7]",0.0,2.0,0.19920587539672852,2.020676851272583,0.7278162626631841,83.0,838.0,0.0
G,D,"[6, 7]",0.0,2.0,0.3787820339202881,2.040771007537842,0.5687472774461678,83.0,839.0,0.0
R,U,"[5, 7]",-1.0,2.0,0.005815029144287109,5.448072910308838,0.31726802192692893,83.0,840.0,0.0
,,"(6, 6)",,,,,,,,
R,U,"[5, 6]",1.0,1.0,0.4948241710662842,3.2383129596710205,0.45546969043468233,84.0,841.0,0.0
G,D,"[6, 6]",0.0,1.0,0.3967740535736084,1.9783058166503906,0.483820276586348,84.0,842.0,0.0
B,L,"[6, 5]",0.0,1.0,0.256411075592041,1.7551488876342773,0.3891164591464348,84.0,843.0,0.0
B,L,"[6, 4]",-2.0,1.0,1.8335349559783936,3.407261848449707,0.5462998300659361,84.0,844.0,0.0
R,U,"[5, 4]",0.0,1.0,0.5179779529571533,2.368651866912842,0.7482039446490159,84.0,845.0,0.0
Y,R,"[5, 5]",0.0,1.0,0.33826112747192383,1.835994005203247,0.40131562300265977,84.0,846.0,0.0
B,L,"[5, 4]",0.0,1.0,0.4192659854888916,1.8278889656066895,0.3126505585259775,84.0,847.0,0.0
G,D,"[6, 4]",0.0,1.0,0.2285768985748291,1.6585259437561035,0.3044319099016017,84.0,848.0,0.0
Y,R,"[6, 5]",0.0,1.0,0.34057116508483887,1.8663580417633057,0.43742490787538213,84.0,849.0,0.0
R,U,"[5, 5]",0.0,1.0,0.32491302490234375,1.8256409168243408,0.39643384336168846,84.0,850.0,0.0
,,"(6, 6)",,,,,,,,
B,L,"[6, 5]",0.0,0.0,0.43813610076904297,3.568372964859009,0.6481082087755998,85.0,851.0,0.0
G,D,"[7, 5]",0.0,0.0,0.2776670455932617,2.096801996231079,0.7114928773970481,85.0,852.0,0.0
R,U,"[6, 5]",0.0,0.0,0.24424004554748535,1.7713301181793213,0.43314919500848387,85.0,853.0,0.0
Y,R,"[6, 6]",0.0,0.0,0.16005587577819824,1.9213759899139404,0.6711207911861099,85.0,854.0,0.0
B,L,"[6, 5]",0.0,0.0,0.20364594459533691,1.928445816040039,0.6162258966328902,85.0,855.0,0.0
G,D,"[7, 5]",0.0,0.0,0.6679611206054688,2.51230788230896,0.745593650934059,85.0,856.0,0.0
R,U,"[6, 5]",0.0,0.0,0.34705305099487305,1.8861408233642578,0.44833220754271397,85.0,857.0,0.0
Y,R,"[6, 6]",0.0,0.0,0.5522241592407227,2.330277919769287,0.6784830709979648,85.0,858.0,0.0
B,L,"[6, 5]",0.0,0.0,0.12270498275756836,1.5088410377502441,0.28776203861203276,85.0,859.0,0.0
G,D,"[7, 5]",0.0,0.0,0.551516056060791,2.2931370735168457,0.6473161760045496,85.0,860.0,0.0
,,"(6, 6)",,,,,,,,
Y,R,"[6, 7]",0.0,0.0,0.6226952075958252,4.498394012451172,0.3125140670452575,86.0,861.0,0.0
R,U,"[5, 7]",1.0,1.0,0.39285898208618164,1.92258882522583,0.43534557151573583,86.0,862.0,0.0
G,D,"[6, 7]",0.0,1.0,0.5006198883056641,2.027323007583618,0.42933894781135534,86.0,863.0,0.0
B,L,"[6, 6]",0.0,1.0,0.41224098205566406,2.208414077758789,0.6873997467804842,86.0,864.0,0.0
Y,R,"[6, 7]",0.0,1.0,0.3570261001586914,1.7754302024841309,0.31348613132801545,86.0,865.0,0.0
B,L,"[6, 6]",0.0,1.0,0.3040320873260498,2.0677990913391113,0.6479895019047611,86.0,866.0,0.0
R,U,"[5, 6]",1.0,2.0,0.3244149684906006,1.798142910003662,0.36278491187664413,86.0,867.0,0.0
G,D,"[6, 6]",0.0,2.0,0.37348508834838867,2.1506528854370117,0.6629689671534755,86.0,868.0,0.0
B,L,"[6, 5]",0.0,2.0,0.20753002166748047,2.044661045074463,0.7243663390541868,86.0,869.0,0.0
Y,R,"[6, 6]",0.0,2.0,0.18938112258911133,1.55708909034729,0.26539682235764955,86.0,870.0,0.0
,,"(6, 6)",,,,,,,,
R,U,"[5, 6]",1.0,1.0,0.7735919952392578,3.534931182861328,0.3170260032783429,87.0,871.0,0.0
G,D,"[6, 6]",-1.0,1.0,0.015924930572509766,5.4024999141693115,0.2530786915953044,87.0,872.0,0.0
G,D,"[7, 6]",0.0,1.0,0.13966917991638184,1.9676480293273926,0.7369866577516561,87.0,873.0,0.0
Y,R,"[7, 7]",0.0,1.0,0.22468805313110352,2.061367988586426,0.73186939391354,87.0,874.0,0.0
B,L,"[7, 6]",-1.0,1.0,0.045580148696899414,5.690563917160034,0.5060503541575616,87.0,875.0,0.0
B,L,"[7, 5]",0.0,1.0,0.34328508377075195,1.8160569667816162,0.3723431872670747,87.0,876.0,0.0
R,U,"[6, 5]",0.0,1.0,0.42348694801330566,2.1526949405670166,0.6247435686533718,87.0,877.0,0.0
G,D,"[7, 5]",0.0,1.0,0.35973310470581055,1.8755788803100586,0.41709063538483904,87.0,878.0,0.0
Y,R,"[7, 6]",0.0,1.0,0.3234410285949707,2.0852649211883545,0.6524061518652324,87.0,879.0,0.0
B,L,"[7, 5]",-1.0,1.0,0.05669903755187988,5.833917856216431,0.6532093338191258,87.0,880.0,0.0
,,"(6, 6)",,,,,,,,
R,U,"[5, 6]",1.0,1.0,0.4697721004486084,6.0645928382873535,0.734736636705323,88.0,881.0,0.0
G,D,"[6, 6]",-1.0,1.0,0.07621192932128906,5.5208799839019775,0.3059897873354265,88.0,882.0,0.0
G,D,"[7, 6]",0.0,1.0,0.6622281074523926,2.380160093307495,0.6192382235442246,88.0,883.0,0.0
R,U,"[6, 6]",0.0,1.0,0.6182379722595215,1.975512981414795,0.26186832081882333,88.0,884.0,0.0
Y,R,"[6, 7]",0.0,1.0,0.6132228374481201,2.210439920425415,0.505325750933673,88.0,885.0,0.0
B,L,"[6, 6]",0.0,1.0,0.5496702194213867,1.9086658954620361,0.2643124930738194,88.0,886.0,0.0
B,L,"[6, 5]",0.0,1.0,0.5278398990631104,2.3511998653411865,0.7152734579867448,88.0,887.0,0.0
Y,R,"[6, 6]",0.0,1.0,0.21117711067199707,1.9188098907470703,0.6004857978052094,88.0,888.0,0.0
R,U,"[5, 6]",0.0,1.0,0.38555002212524414,2.193643808364868,0.7106611762271341,88.0,889.0,0.0
G,D,"[6, 6]",0.0,1.0,0.10731196403503418,1.513031005859375,0.3074223145844455,88.0,890.0,0.0
,,"(6, 6)",,,,,,,,
Y,R,"[6, 7]",0.0,0.0,0.937434196472168,4.732990026473999,0.5569970599867952,89.0,891.0,0.0
B,L,"[6, 6]",0.0,0.0,0.3156440258026123,1.8779358863830566,0.4680106997750315,89.0,892.0,0.0
G,D,"[7, 6]",0.0,0.0,0.44027090072631836,2.2183849811553955,0.6694254312261114,89.0,893.0,0.0
R,U,"[6, 6]",0.0,0.0,0.6576051712036133,2.2643020153045654,0.5005916114976792,89.0,894.0,0.0
G,D,"[7, 6]",0.0,0.0,0.15511107444763184,1.7843279838562012,0.5346006717559911,89.0,895.0,0.0
B,L,"[7, 5]",0.0,0.0,0.8476979732513428,2.4044618606567383,0.4558142211105139,89.0,896.0,0.0
B,L,"[7, 4]",0.0,0.0,0.14898395538330078,1.5209720134735107,0.2769662254712916,89.0,897.0,0.0
G,D,"[8, 4]",0.0,0.0,0.3762180805206299,1.9784729480743408,0.5052334035395905,89.0,898.0,0.0
G,D,"[9, 4]",0.0,0.0,0.21534204483032227,1.8977060317993164,0.5861422740995672,89.0,899.0,0.0
B,L,"[9, 3]",0.0,0.0,0.19629716873168945,1.6391289234161377,0.34197139863529896,89.0,900.0,0.0
,,"(6, 6)",,,,,,,,
Y,R,"[6, 7]",0.0,0.0,0.5139610767364502,5.172317981719971,0.5639411257684267,90.0,901.0,0.0
B,L,"[6, 6]",0.0,0.0,0.3285689353942871,1.8306870460510254,0.39473983575197497,90.0,902.0,0.0
G,D,"[7, 6]",0.0,0.0,0.2789900302886963,2.0323169231414795,0.6601220723975727,90.0,903.0,0.0
R,U,"[6, 6]",0.0,0.0,0.2028820514678955,1.8160698413848877,0.5262906049030007,90.0,904.0,0.0
Y,R,"[6, 7]",0.0,0.0,0.2200608253479004,1.6482110023498535,0.341148304370088,90.0,905.0,0.0
B,L,"[6, 6]",0.0,0.0,0.4022221565246582,1.747124195098877,0.2550209830357346,90.0,906.0,0.0
G,D,"[7, 6]",0.0,0.0,0.3453519344329834,2.0709989070892334,0.6256421433715134,90.0,907.0,0.0
R,U,"[6, 6]",0.0,0.0,0.43860697746276855,2.2520229816436768,0.7109208101057337,90.0,908.0,0.0
B,L,"[6, 5]",0.0,0.0,0.3416781425476074,2.019641160964966,0.5806256808762661,90.0,909.0,0.0
G,D,"[7, 5]",0.0,0.0,0.7914228439331055,2.3665990829467773,0.4638496008469611,90.0,910.0,0.0
,,"(6, 6)",,,,,,,,
Y,R,"[6, 7]",-2.0,0.0,1.158409833908081,5.408692121505737,0.7056289623169707,91.0,911.0,0.0
Y,R,"[6, 8]",1.0,1.0,0.2020890712738037,1.9108071327209473,0.616267973147921,91.0,912.0,0.0
R,U,"[5, 8]",1.0,2.0,0.3123941421508789,2.0801191329956055,0.6630422401968405,91.0,913.0,0.0
G,D,"[6, 8]",0.0,2.0,0.31644201278686523,2.0087409019470215,0.5884601075861446,91.0,914.0,0.0
B,L,"[6, 7]",0.0,2.0,0.4652690887451172,1.8921539783477783,0.33089694082560334,91.0,915.0,0.0
Y,R,"[6, 8]",0.0,2.0,0.42526698112487793,1.9036979675292969,0.36771652406770505,91.0,916.0,0.0
R,U,"[5, 8]",0.0,2.0,0.3674437999725342,1.8956019878387451,0.4299385188215407,91.0,917.0,0.0
G,D,"[6, 8]",0.0,2.0,0.4373621940612793,2.1778178215026855,0.6241327265794596,91.0,918.0,0.0
B,L,"[6, 7]",0.0,2.0,0.11568880081176758,1.6515779495239258,0.4425393121280549,91.0,919.0,0.0
G,D,"[7, 7]",0.0,2.0,0.4398329257965088,1.910290002822876,0.36949911901236626,91.0,920.0,0.0
,,"(6, 6)",,,,,,,,
Y,R,"[6, 7]",0.0,0.0,0.747981071472168,5.354156017303467,0.5066809679674484,92.0,921.0,0.0
R,U,"[5, 7]",1.0,1.0,0.33542704582214355,2.0886189937591553,0.6617403787273803,92.0,922.0,0.0
B,L,"[5, 6]",1.0,2.0,0.23119497299194336,1.742753028869629,0.4214005547346908,92.0,923.0,0.0
G,D,"[6, 6]",0.0,2.0,0.39045190811157227,1.9411659240722656,0.4457979364481157,92.0,924.0,0.0
Y,R,"[6, 7]",0.0,2.0,0.4342489242553711,2.0522329807281494,0.5145884699784424,92.0,925.0,0.0
R,U,"[5, 7]",-1.0,2.0,0.08684706687927246,5.673063039779663,0.45423410320831153,92.0,926.0,0.0
G,D,"[6, 7]",0.0,2.0,0.7946581840515137,2.308140993118286,0.4123764330110286,92.0,927.0,0.0
R,U,"[5, 7]",0.0,2.0,0.41316914558410645,2.167396068572998,0.6628501768364057,92.0,928.0,0.0
B,L,"[5, 6]",0.0,2.0,0.3086261749267578,1.7992990016937256,0.3790089801294147,92.0,929.0,0.0
Y,R,"[5, 7]",-2.0,2.0,1.3585541248321533,3.122407913208008,0.7342466914439774,92.0,930.0,0.0
,,"(6, 6)",,,,,,,,
G,D,"[7, 6]",0.0,0.0,0.8158750534057617,5.911713123321533,0.6960492412505783,93.0,931.0,0.0
R,U,"[6, 6]",0.0,0.0,0.40387511253356934,1.8138489723205566,0.3100407893184396,93.0,932.0,0.0
Y,R,"[6, 7]",0.0,0.0,0.8099288940429688,2.3833959102630615,0.4766587501690857,93.0,933.0,0.0
B,L,"[6, 6]",0.0,0.0,0.6405699253082275,2.399683952331543,0.6595424594085844,93.0,934.0,0.0
G,D,"[7, 6]",0.0,0.0,0.6978352069854736,2.1327099800109863,0.34239975329674144,93.0,935.0,0.0
R,U,"[6, 6]",-2.0,0.0,1.6304121017456055,3.2623789310455322,0.6044288770206065,93.0,936.0,0.0
R,U,"[5, 6]",-2.0,0.0,1.8382859230041504,3.1474130153656006,0.26908525101856956,93.0,937.0,0.0
G,D,"[6, 6]",0.0,0.0,0.25629305839538574,1.9950950145721436,0.6300758816239393,93.0,938.0,0.0
R,U,"[5, 6]",0.0,0.0,0.5259199142456055,2.33817195892334,0.7016083686086177,93.0,939.0,0.0
B,L,"[5, 5]",0.0,0.0,0.3456840515136719,1.790220022201538,0.3422656676384951,93.0,940.0,0.0
,,"(6, 6)",,,,,,,,
G,D,"[7, 6]",0.0,0.0,0.6090869903564453,5.749571084976196,0.3748047091065151,94.0,941.0,0.0
R,U,"[6, 6]",0.0,0.0,0.39266490936279297,2.227084159851074,0.7349569673694218,94.0,942.0,0.0
G,D,"[7, 6]",-2.0,0.0,1.741581916809082,3.4216930866241455,0.6398838286666941,94.0,943.0,0.0
R,U,"[6, 6]",0.0,0.0,0.5336999893188477,2.064934015274048,0.43835583208169776,94.0,944.0,0.0
Y,R,"[6, 7]",0.0,0.0,0.2842228412628174,2.0930559635162354,0.7143931305490254,94.0,945.0,0.0
B,L,"[6, 6]",-2.0,0.0,2.545377016067505,4.1842241287231445,0.5986639900564034,94.0,946.0,0.0
B,L,"[6, 5]",0.0,0.0,0.2710390090942383,1.9961540699005127,0.6280399551126088,94.0,947.0,0.0
G,D,"[7, 5]",0.0,0.0,0.5051980018615723,2.213715076446533,0.6251201699461002,94.0,948.0,0.0
Y,R,"[7, 6]",0.0,0.0,0.28839588165283203,1.8951811790466309,0.5036404959302534,94.0,949.0,0.0
Y,R,"[7, 7]",0.0,0.0,0.22044610977172852,1.6225509643554688,0.3098031899846992,94.0,950.0,0.0
,,"(6, 6)",,,,,,,,
R,U,"[5, 6]",-2.0,0.0,1.1462738513946533,4.400733947753906,0.7434433064905324,95.0,951.0,0.0
R,U,"[4, 6]",0.0,0.0,0.4364430904388428,2.0501251220703125,0.5270374877547402,95.0,952.0,0.0
Y,R,"[4, 7]",0.0,0.0,0.29279208183288574,1.809473991394043,0.4198928400461871,95.0,953.0,0.0
G,D,"[5, 7]",1.0,1.0,0.1242818832397461,1.8183238506317139,0.5879471083254864,95.0,954.0,0.0
B,L,"[5, 6]",0.0,1.0,0.3248140811920166,1.7013978958129883,0.2729915868431659,95.0,955.0,0.0
G,D,"[6, 6]",0.0,1.0,0.537667989730835,1.9805879592895508,0.3536870050200171,95.0,956.0,0.0
G,D,"[7, 6]",0.0,1.0,0.9294040203094482,2.370764970779419,0.34087886840416576,95.0,957.0,0.0
R,U,"[6, 6]",-1.0,1.0,0.008099079132080078,5.779397964477539,0.6531665234733393,95.0,958.0,0.0
Y,R,"[6, 7]",0.0,1.0,0.21486806869506836,1.7469089031219482,0.4337095419109673,95.0,959.0,0.0
R,U,"[5, 7]",-1.0,1.0,0.009572029113769531,5.788805961608887,0.6555719596231198,95.0,960.0,0.0
,,"(6, 6)",,,,,,,,
R,U,"[5, 6]",1.0,1.0,0.6502912044525146,4.846812963485718,0.6690169003481063,96.0,961.0,0.0
G,D,"[6, 6]",0.0,1.0,0.4487318992614746,1.7990658283233643,0.25159362609236235,96.0,962.0,0.0
B,L,"[6, 5]",0.0,1.0,0.27089715003967285,1.9978950023651123,0.63234566636296,96.0,963.0,0.0
Y,R,"[6, 6]",0.0,1.0,0.1909940242767334,1.811486005783081,0.5105326079317216,96.0,964.0,0.0
R,U,"[5, 6]",0.0,1.0,0.27605700492858887,2.049884080886841,0.6769545395394791,96.0,965.0,0.0
G,D,"[6, 6]",0.0,1.0,0.26897382736206055,1.6797590255737305,0.3237276122977686,96.0,966.0,0.0
B,L,"[6, 5]",0.0,1.0,0.3108179569244385,1.7485129833221436,0.33885326701795665,96.0,967.0,0.0
Y,R,"[6, 6]",0.0,1.0,0.46480393409729004,1.9168810844421387,0.3557577974622816,96.0,968.0,0.0
G,D,"[7, 6]",0.0,1.0,0.33814001083374023,2.1266801357269287,0.6984814382932032,96.0,969.0,0.0
R,U,"[6, 6]",0.0,1.0,0.30803585052490234,2.0692191123962402,0.6512219556758743,96.0,970.0,0.0
,,"(6, 6)",,,,,,,,
Y,R,"[6, 7]",-2.0,0.0,1.0442800521850586,6.89955997467041,0.3843007483077744,97.0,971.0,0.0
B,L,"[6, 6]",0.0,0.0,0.24467086791992188,1.7281420230865479,0.3791822956658963,97.0,972.0,0.0
G,D,"[7, 6]",0.0,0.0,0.16399884223937988,1.8778221607208252,0.6232345145125722,97.0,973.0,0.0
R,U,"[6, 6]",0.0,0.0,0.32697200775146484,1.8633480072021484,0.43683467988128416,97.0,974.0,0.0
B,L,"[6, 5]",0.0,0.0,0.30872392654418945,2.0047478675842285,0.5913518359038538,97.0,975.0,0.0
Y,R,"[6, 6]",0.0,0.0,0.3900949954986572,2.0598361492156982,0.5679575651981787,97.0,976.0,0.0
G,D,"[7, 6]",0.0,0.0,0.871304988861084,2.5491790771484375,0.5836143126793637,97.0,977.0,0.0
R,U,"[6, 6]",0.0,0.0,0.29660606384277344,1.8345890045166016,0.43503556709981667,97.0,978.0,0.0
Y,R,"[6, 7]",0.0,0.0,0.5384430885314941,2.368051052093506,0.7194756377953937,97.0,979.0,0.0
B,L,"[6, 6]",-2.0,0.0,1.9639561176300049,3.420665979385376,0.42375718834222154,97.0,980.0,0.0
,,"(6, 6)",,,,,,,,
G,D,"[7, 6]",0.0,0.0,0.39772987365722656,5.258595943450928,0.2656245278095996,98.0,981.0,0.0
R,U,"[6, 6]",-2.0,0.0,2.128103017807007,3.7201528549194336,0.5522651032361185,98.0,982.0,0.0
Y,R,"[6, 7]",-2.0,0.0,4.645402908325195,6.063865900039673,0.38282707765297264,98.0,983.0,0.0
B,L,"[6, 6]",0.0,0.0,0.9047608375549316,2.67130184173584,0.6704408418456007,98.0,984.0,0.0
G,D,"[7, 6]",0.0,0.0,0.1039268970489502,1.6500868797302246,0.45412929426007254,98.0,985.0,0.0
Y,R,"[7, 7]",0.0,0.0,0.22083401679992676,1.595991849899292,0.28326084648224026,98.0,986.0,0.0
B,L,"[7, 6]",0.0,0.0,0.2140359878540039,1.882277011871338,0.5655115955780791,98.0,987.0,0.0
R,U,"[6, 6]",-1.0,0.0,0.09705400466918945,5.7223169803619385,0.487907859348122,98.0,988.0,0.0
R,U,"[5, 6]",1.0,1.0,0.2030341625213623,1.8447558879852295,0.5491942474634881,98.0,989.0,0.0
R,U,"[4, 6]",0.0,1.0,0.251619815826416,1.89119291305542,0.5405127648564574,98.0,990.0,0.0
,,"(6, 6)",,,,,,,,
Y,R,"[6, 7]",0.0,0.0,0.8093478679656982,4.5865349769592285,0.5935900625969854,99.0,991.0,0.0
Y,R,"[6, 8]",1.0,1.0,0.26514601707458496,2.0310540199279785,0.6743895970671284,99.0,992.0,0.0
Y,R,"[6, 9]",1.0,2.0,0.21996402740478516,1.8360908031463623,0.5274871009441595,99.0,993.0,0.0
Y,R,"[6, 10]",1.0,3.0,0.21459388732910156,1.9932191371917725,0.6869949149064641,99.0,994.0,0.0
B,L,"[6, 9]",0.0,3.0,0.2572641372680664,1.7528810501098633,0.3902302328065864,99.0,995.0,0.0
Y,R,"[6, 10]",0.0,3.0,0.4516561031341553,1.8003499507904053,0.2573356567471888,99.0,996.0,0.0
G,D,"[7, 10]",0.0,3.0,0.4479830265045166,2.249178886413574,0.706141322798153,99.0,997.0,0.0
R,U,"[6, 10]",0.0,3.0,0.2629358768463135,1.76115083694458,0.40062018458931314,99.0,998.0,0.0
B,L,"[6, 9]",0.0,3.0,0.3874180316925049,1.8531310558319092,0.33744926494056043,99.0,999.0,0.0
Y,R,"[6, 10]",0.0,3.0,0.41896796226501465,1.7712340354919434,0.2587408014809748,99.0,1000.0,0.0
