button_choice,action_choice,coordinate_choice,reward,cumulative_reward,rt,total_trial_time,iti,block_n,trial_n,trial_type
G,D,"[7, 6]",0.0,0.0,0.6859638690948486,1.9841430187225342,0.2850742296775581,0.0,1.0,0.0
R,U,"[6, 6]",0.0,0.0,0.4826991558074951,1.9385859966278076,0.45667663685402937,0.0,2.0,0.0
B,L,"[6, 5]",0.0,0.0,0.1769399642944336,1.5023930072784424,0.32584263822296333,0.0,3.0,0.0
R,U,"[5, 5]",0.0,0.0,0.3747830390930176,1.8046729564666748,0.4306296238328609,0.0,4.0,0.0
Y,R,"[5, 6]",1.0,1.0,0.19404101371765137,1.9498610496520996,0.7468660658396841,0.0,5.0,0.0
Y,R,"[5, 7]",1.0,2.0,0.1811659336090088,1.771285057067871,0.5683667228956286,0.0,6.0,0.0
Y,R,"[5, 8]",1.0,3.0,0.24606990814208984,1.7531790733337402,0.5049624611562283,0.0,7.0,0.0
G,D,"[6, 8]",1.0,4.0,0.2997291088104248,1.9230749607086182,0.6113292998198059,0.0,8.0,0.0
G,D,"[7, 8]",0.0,4.0,0.29706597328186035,1.6066310405731201,0.3183329026354076,0.0,9.0,0.0
B,L,"[7, 7]",0.0,4.0,0.40418219566345215,1.9672939777374268,0.5520888271336399,0.0,10.0,0.0
,,"(6, 6)",,,,,,0.0,,
Y,R,"[6, 7]",0.0,0.0,0.5062649250030518,3.267713785171509,0.2866967538507437,,11.0,0.0
R,U,"[5, 7]",1.0,1.0,0.18575406074523926,1.717688798904419,0.5209001480755053,1.0,12.0,0.0
R,U,"[4, 7]",0.0,1.0,0.2055191993713379,1.5030629634857178,0.29075056779798997,1.0,13.0,0.0
B,L,"[4, 6]",0.0,1.0,0.21579718589782715,1.5422849655151367,0.33302304890487855,1.0,14.0,0.0
R,U,"[3, 6]",0.0,1.0,0.27758312225341797,1.7078781127929688,0.42408688546454826,1.0,15.0,0.0
Y,R,"[3, 7]",0.0,1.0,0.3287661075592041,1.6152231693267822,0.2894320136128984,1.0,16.0,0.0
G,D,"[4, 7]",0.0,1.0,0.16612815856933594,1.568946123123169,0.4085418830921463,1.0,17.0,0.0
Y,R,"[4, 8]",0.0,1.0,0.20877408981323242,1.8086609840393066,0.6168449233433013,1.0,18.0,0.0
B,L,"[4, 7]",0.0,1.0,0.17313790321350098,1.9144539833068848,0.7480303008548894,1.0,19.0,0.0
G,D,"[5, 7]",-1.0,1.0,0.04737496376037598,5.576859951019287,0.3919913900954663,1.0,20.0,0.0
,,"(6, 6)",,,,,,1.0,,
G,D,"[7, 6]",-2.0,0.0,1.693263053894043,4.74163293838501,0.4668763879058075,,21.0,0.0
G,D,"[8, 6]",0.0,0.0,0.2897210121154785,2.0327417850494385,0.7326629854632369,2.0,22.0,0.0
Y,R,"[8, 7]",0.0,0.0,0.21672701835632324,1.6561460494995117,0.439143063657773,2.0,23.0,0.0
R,U,"[7, 7]",0.0,0.0,0.32880711555480957,2.0459909439086914,0.7181264293938994,2.0,24.0,0.0
R,U,"[6, 7]",0.0,0.0,0.20050716400146484,1.5056569576263428,0.3075116479298341,2.0,25.0,0.0
B,L,"[6, 6]",0.0,0.0,0.20227313041687012,1.6630070209503174,0.4704256995526341,2.0,26.0,0.0
G,D,"[7, 6]",-1.0,0.0,0.07885408401489258,5.488026857376099,0.27537988458308615,2.0,27.0,0.0
G,D,"[8, 6]",0.0,0.0,0.2895359992980957,1.8746399879455566,0.5999081137423155,2.0,28.0,0.0
B,L,"[8, 5]",0.0,0.0,0.18771600723266602,1.6539149284362793,0.4706750163708807,2.0,29.0,0.0
R,U,"[7, 5]",0.0,0.0,0.2423419952392578,1.9773931503295898,0.7309499253379402,2.0,30.0,0.0
,,"(6, 6)",,,,,,2.0,,
B,L,"[6, 5]",0.0,0.0,0.9005599021911621,4.190719127655029,0.45544297077812423,,31.0,0.0
G,D,"[7, 5]",0.0,0.0,0.4686880111694336,2.0184919834136963,0.5572348120975585,3.0,32.0,0.0
Y,R,"[7, 6]",0.0,0.0,0.10190105438232422,1.788848876953125,0.6958976041049343,3.0,33.0,0.0
R,U,"[6, 6]",0.0,0.0,0.3889439105987549,2.1507151126861572,0.7468501779174925,3.0,34.0,0.0
B,L,"[6, 5]",0.0,0.0,0.31906700134277344,1.6736481189727783,0.35425107162312075,3.0,35.0,0.0
G,D,"[7, 5]",0.0,0.0,0.9343068599700928,2.4611990451812744,0.5152759954168806,3.0,36.0,0.0
B,L,"[7, 4]",-2.0,0.0,1.0529239177703857,2.3748390674591064,0.2903355936373084,3.0,37.0,0.0
G,D,"[8, 4]",0.0,0.0,0.6824100017547607,1.9818830490112305,0.3052860897245183,3.0,38.0,0.0
Y,R,"[8, 5]",0.0,0.0,0.4499969482421875,1.8293309211730957,0.38462714453262153,3.0,39.0,0.0
Y,R,"[8, 6]",0.0,0.0,0.42946600914001465,2.0058648586273193,0.5737958515747321,3.0,40.0,0.0
,,"(6, 6)",,,,,,3.0,,
R,U,"[5, 6]",1.0,1.0,0.9428789615631104,3.9554100036621094,0.6125352547264957,,41.0,0.0
R,U,"[4, 6]",0.0,1.0,0.19344305992126465,1.5268421173095703,0.3229960873299839,4.0,42.0,0.0
B,L,"[4, 5]",0.0,1.0,0.354856014251709,2.001551866531372,0.640829504544506,4.0,43.0,0.0
G,D,"[5, 5]",0.0,1.0,0.7467360496520996,2.19154691696167,0.4493558698015449,4.0,44.0,0.0
Y,R,"[5, 6]",0.0,1.0,0.18050599098205566,1.6582939624786377,0.47425437647209057,4.0,45.0,0.0
B,L,"[5, 5]",0.0,1.0,0.219224214553833,1.8102061748504639,0.5845789151329239,4.0,46.0,0.0
B,L,"[5, 4]",0.0,1.0,0.20293283462524414,1.5169620513916016,0.30175186794821485,4.0,47.0,0.0
R,U,"[4, 4]",0.0,1.0,0.2732059955596924,1.8976459503173828,0.6157974784238167,4.0,48.0,0.0
B,L,"[4, 3]",0.0,1.0,0.21935200691223145,1.7641348838806152,0.5300510305417684,4.0,49.0,0.0
R,U,"[3, 3]",0.0,1.0,0.16222786903381348,1.5934100151062012,0.4235891379760221,4.0,50.0,0.0
,,"(6, 6)",,,,,,4.0,,
B,L,"[6, 5]",0.0,0.0,0.6734199523925781,4.311483144760132,0.5350429769106773,,51.0,0.0
G,D,"[7, 5]",0.0,0.0,0.21477508544921875,1.7621419429779053,0.5473218439645331,5.0,52.0,0.0
G,D,"[8, 5]",0.0,0.0,0.4827260971069336,1.901317834854126,0.4154131909779157,5.0,53.0,0.0
R,U,"[7, 5]",0.0,0.0,0.26355504989624023,1.7797629833221436,0.5117506983763704,5.0,54.0,0.0
Y,R,"[7, 6]",0.0,0.0,0.2770390510559082,1.623913049697876,0.3523523781906919,5.0,55.0,0.0
B,L,"[7, 5]",0.0,0.0,0.2265489101409912,1.9044389724731445,0.6733088382117327,5.0,56.0,0.0
B,L,"[7, 4]",0.0,0.0,0.2317979335784912,1.6955158710479736,0.46909152643154695,5.0,57.0,0.0
G,D,"[8, 4]",0.0,0.0,0.3086528778076172,1.9106659889221191,0.5963163830830875,5.0,58.0,0.0
G,D,"[9, 4]",0.0,0.0,0.5333199501037598,1.994636058807373,0.45765767367694793,5.0,59.0,0.0
B,L,"[9, 3]",0.0,0.0,0.4340660572052002,1.938776969909668,0.5131207429424018,5.0,60.0,0.0
,,"(6, 6)",,,,,,5.0,,
Y,R,"[6, 7]",-2.0,0.0,1.3025498390197754,4.47471284866333,0.5046662984044279,,61.0,0.0
Y,R,"[6, 8]",1.0,1.0,0.2735719680786133,1.7069590091705322,0.42828581953972517,6.0,62.0,0.0
Y,R,"[6, 9]",1.0,2.0,0.22675013542175293,1.6200189590454102,0.39836451990482874,6.0,63.0,0.0
Y,R,"[6, 10]",1.0,3.0,0.2302238941192627,1.576714038848877,0.3251167350001705,6.0,64.0,0.0
G,D,"[7, 10]",-2.0,3.0,1.0200178623199463,2.739828109741211,0.6979288007718978,6.0,65.0,0.0
G,D,"[8, 10]",0.0,3.0,0.22460198402404785,1.9504179954528809,0.7150513918785925,6.0,66.0,0.0
B,L,"[8, 9]",0.0,3.0,0.2045760154724121,1.564751148223877,0.34680865016563156,6.0,67.0,0.0
R,U,"[7, 9]",0.0,3.0,0.27855396270751953,1.802812099456787,0.516302623727144,6.0,68.0,0.0
Y,R,"[7, 10]",0.0,3.0,0.18976497650146484,1.653468132019043,0.4530849662920135,6.0,69.0,0.0
G,D,"[8, 10]",0.0,3.0,0.21616411209106445,1.7262890338897705,0.5128834940982627,6.0,70.0,0.0
,,"(6, 6)",,,,,,6.0,,
Y,R,"[6, 7]",0.0,0.0,0.9013538360595703,4.0204808712005615,0.4335635576705087,,71.0,0.0
G,D,"[7, 7]",0.0,0.0,0.18922901153564453,1.6154279708862305,0.41544581716121276,7.0,72.0,0.0
R,U,"[6, 7]",0.0,0.0,0.2037510871887207,1.7893190383911133,0.571365021395314,7.0,73.0,0.0
B,L,"[6, 6]",0.0,0.0,0.2731020450592041,1.697807788848877,0.41936966511363283,7.0,74.0,0.0
G,D,"[7, 6]",0.0,0.0,0.263124942779541,1.9301390647888184,0.6657847886713442,7.0,75.0,0.0
Y,R,"[7, 7]",0.0,0.0,0.1926589012145996,1.6708550453186035,0.47046291757016373,7.0,76.0,0.0
G,D,"[8, 7]",0.0,0.0,0.3000950813293457,1.7426249980926514,0.42956041856234245,7.0,77.0,0.0
B,L,"[8, 6]",0.0,0.0,0.32318687438964844,1.600200891494751,0.2635843881974967,7.0,78.0,0.0
G,D,"[9, 6]",0.0,0.0,0.5849630832672119,1.9045720100402832,0.31792963987915857,7.0,79.0,0.0
B,L,"[9, 5]",0.0,0.0,0.2198188304901123,1.5206849575042725,0.28872369741490944,7.0,80.0,0.0
,,"(6, 6)",,,,,,7.0,,
Y,R,"[6, 7]",0.0,0.0,0.41953587532043457,3.0118958950042725,0.3509457797864544,,81.0,0.0
R,U,"[5, 7]",1.0,1.0,0.2687568664550781,1.9331560134887695,0.6669403985812925,8.0,82.0,0.0
B,L,"[5, 6]",1.0,2.0,0.1954188346862793,1.882293939590454,0.6824235987334137,8.0,83.0,0.0
Y,R,"[5, 7]",0.0,2.0,0.6277408599853516,2.23760986328125,0.6034219449935665,8.0,84.0,0.0
G,D,"[6, 7]",0.0,2.0,0.1773381233215332,1.59596586227417,0.4165849085637865,8.0,85.0,0.0
B,L,"[6, 6]",0.0,2.0,0.19060802459716797,1.777359962463379,0.576967253243591,8.0,86.0,0.0
R,U,"[5, 6]",0.0,2.0,0.1797020435333252,1.5827221870422363,0.4099659127301672,8.0,87.0,0.0
B,L,"[5, 5]",0.0,2.0,0.2785358428955078,1.5251080989837646,0.25191391098140054,8.0,88.0,0.0
Y,R,"[5, 6]",0.0,2.0,0.2967250347137451,1.7261121273040771,0.42788875339900834,8.0,89.0,0.0
G,D,"[6, 6]",0.0,2.0,0.19437289237976074,1.5275030136108398,0.3388060747473552,8.0,90.0,0.0
,,"(6, 6)",,,,,,8.0,,
G,D,"[7, 6]",-2.0,0.0,1.0033490657806396,3.7013769149780273,0.2738692717168146,,91.0,0.0
G,D,"[8, 6]",0.0,0.0,0.222214937210083,1.890949010848999,0.6641800308865669,9.0,92.0,0.0
G,D,"[9, 6]",0.0,0.0,0.18040704727172852,1.6723089218139648,0.48672515724396853,9.0,93.0,0.0
B,L,"[9, 5]",0.0,0.0,0.22312402725219727,1.4824039936065674,0.2527012578751391,9.0,94.0,0.0
Y,R,"[9, 6]",0.0,0.0,0.5116438865661621,2.0090551376342773,0.49491294558369314,9.0,95.0,0.0
R,U,"[8, 6]",0.0,0.0,0.2254021167755127,1.6987659931182861,0.4770747849886178,9.0,96.0,0.0
B,L,"[8, 5]",0.0,0.0,0.2614891529083252,1.675750970840454,0.41960309391856015,9.0,97.0,0.0
G,D,"[9, 5]",0.0,0.0,0.3624269962310791,1.6506950855255127,0.28706530176947687,9.0,98.0,0.0
G,D,"[10, 5]",0.0,0.0,0.5239620208740234,2.016655921936035,0.48690803126253296,9.0,99.0,0.0
B,L,"[10, 4]",-1.0,0.0,0.07045888900756836,5.796248197555542,0.5996434214422024,9.0,100.0,0.0
,,"(6, 6)",,,,,,9.0,,
R,U,"[5, 6]",-2.0,0.0,1.13456392288208,4.46828293800354,0.7012411314962719,,101.0,0.0
R,U,"[4, 6]",0.0,0.0,0.32195210456848145,1.8294248580932617,0.4977049045554729,10.0,102.0,0.0
B,L,"[4, 5]",0.0,0.0,0.6050729751586914,2.2371530532836914,0.6181157103267187,10.0,103.0,0.0
Y,R,"[4, 6]",0.0,0.0,0.21762394905090332,1.7310569286346436,0.5156481347308142,10.0,104.0,0.0
Y,R,"[4, 7]",0.0,0.0,0.22432780265808105,1.7100980281829834,0.4759293200226897,10.0,105.0,0.0
B,L,"[4, 6]",0.0,0.0,0.3564469814300537,1.675307035446167,0.3183758757816183,10.0,106.0,0.0
G,D,"[5, 6]",0.0,0.0,0.4289240837097168,1.7514350414276123,0.3196472765217892,10.0,107.0,0.0
B,L,"[5, 5]",0.0,0.0,0.7824289798736572,2.1069328784942627,0.3264757839441764,10.0,108.0,0.0
Y,R,"[5, 6]",0.0,0.0,0.36331820487976074,1.8984341621398926,0.5415299514442222,10.0,109.0,0.0
R,U,"[4, 6]",0.0,0.0,0.24036812782287598,1.5329790115356445,0.2913204277620506,10.0,110.0,0.0
,,"(6, 6)",,,,,,10.0,,
Y,R,"[6, 7]",0.0,0.0,0.6872420310974121,3.443023204803467,0.5008071220391186,,111.0,0.0
G,D,"[7, 7]",0.0,0.0,0.6031839847564697,2.0656299591064453,0.46664788108340244,11.0,112.0,0.0
G,D,"[8, 7]",0.0,0.0,0.6417100429534912,2.397653818130493,0.7473801310030029,11.0,113.0,0.0
B,L,"[8, 6]",0.0,0.0,0.226593017578125,1.5408389568328857,0.30530512034966206,11.0,114.0,0.0
B,L,"[8, 5]",0.0,0.0,0.34667110443115234,2.0757570266723633,0.7306587930972138,11.0,115.0,0.0
R,U,"[7, 5]",0.0,0.0,0.2712528705596924,1.7842659950256348,0.4986707832300403,11.0,116.0,0.0
Y,R,"[7, 6]",0.0,0.0,0.2496500015258789,1.5095150470733643,0.2582793369360382,11.0,117.0,0.0
B,L,"[7, 5]",0.0,0.0,0.4362959861755371,2.030399799346924,0.588668176498214,11.0,118.0,0.0
G,D,"[8, 5]",0.0,0.0,0.2509739398956299,1.5618419647216797,0.31719123926608517,11.0,119.0,0.0
Y,R,"[8, 6]",0.0,0.0,0.42023301124572754,1.693023920059204,0.26033092261910823,11.0,120.0,0.0
,,"(6, 6)",,,,,,11.0,,
B,L,"[6, 5]",0.0,0.0,0.6588759422302246,3.7115941047668457,0.5219712454389156,,121.0,0.0
G,D,"[7, 5]",0.0,0.0,0.40230798721313477,2.147933006286621,0.7362619642959303,12.0,122.0,0.0
B,L,"[7, 4]",0.0,0.0,0.15435004234313965,1.8288679122924805,0.6652748376265574,12.0,123.0,0.0
Y,R,"[7, 5]",0.0,0.0,0.42581915855407715,1.771742820739746,0.33736503930528106,12.0,124.0,0.0
R,U,"[6, 5]",0.0,0.0,0.27158379554748535,1.590825080871582,0.3116263538434255,12.0,125.0,0.0
R,U,"[5, 5]",0.0,0.0,0.24836421012878418,1.5621390342712402,0.3238221654619857,12.0,126.0,0.0
B,L,"[5, 4]",0.0,0.0,0.3408060073852539,2.0747601985931396,0.7314781051604118,12.0,127.0,0.0
G,D,"[6, 4]",0.0,0.0,0.4080791473388672,1.902306079864502,0.48390080245038714,12.0,128.0,0.0
B,L,"[6, 3]",0.0,0.0,0.3211400508880615,1.6483089923858643,0.31567029436629956,12.0,129.0,0.0
Y,R,"[6, 4]",0.0,0.0,0.5347599983215332,2.142108917236328,0.5742705708841125,12.0,130.0,0.0
,,"(6, 6)",,,,,,12.0,,
R,U,"[5, 6]",1.0,1.0,0.5387060642242432,3.0504910945892334,0.47494185593429605,,131.0,0.0
B,L,"[5, 5]",0.0,1.0,0.266247034072876,1.8336060047149658,0.5750161461190344,13.0,132.0,0.0
R,U,"[4, 5]",0.0,1.0,0.19506597518920898,1.678642988204956,0.4871989832803564,13.0,133.0,0.0
Y,R,"[4, 6]",0.0,1.0,0.7514321804046631,2.032170057296753,0.26953303238165743,13.0,134.0,0.0
Y,R,"[4, 7]",0.0,1.0,0.14163899421691895,1.7782700061798096,0.6308035433468567,13.0,135.0,0.0
G,D,"[5, 7]",1.0,2.0,0.3810238838195801,2.117353916168213,0.7148297118496557,13.0,136.0,0.0
G,D,"[6, 7]",0.0,2.0,0.19778013229370117,1.9503178596496582,0.7484327874975794,13.0,137.0,0.0
Y,R,"[6, 8]",1.0,3.0,0.44442296028137207,2.1225290298461914,0.6711305047549887,13.0,138.0,0.0
Y,R,"[6, 9]",1.0,4.0,0.1840970516204834,1.7835490703582764,0.5880779414034949,13.0,139.0,0.0
Y,R,"[6, 10]",1.0,5.0,0.19497179985046387,1.6506781578063965,0.45555308709656045,13.0,140.0,0.0
,,"(6, 6)",,,,,,13.0,,
Y,R,"[6, 7]",0.0,0.0,0.7587428092956543,3.692025899887085,0.5477318638935963,,141.0,0.0
R,U,"[5, 7]",1.0,1.0,0.9537038803100586,2.3614439964294434,0.3925216466219504,14.0,142.0,0.0
B,L,"[5, 6]",1.0,2.0,0.30292606353759766,1.81964111328125,0.5121024911492005,14.0,143.0,0.0
G,D,"[6, 6]",0.0,2.0,0.3006479740142822,1.8150560855865479,0.527140028342495,14.0,144.0,0.0
R,U,"[5, 6]",0.0,2.0,0.24687504768371582,1.662611961364746,0.4232412216605473,14.0,145.0,0.0
B,L,"[5, 5]",0.0,2.0,0.19045019149780273,1.6434760093688965,0.4501697160923528,14.0,146.0,0.0
G,D,"[6, 5]",0.0,2.0,0.19133496284484863,1.839827060699463,0.6397168789469501,14.0,147.0,0.0
R,U,"[5, 5]",0.0,2.0,0.18229293823242188,1.6468360424041748,0.47015386157914313,14.0,148.0,0.0
Y,R,"[5, 6]",0.0,2.0,0.1856701374053955,1.5997340679168701,0.40325587515832484,14.0,149.0,0.0
B,L,"[5, 5]",0.0,2.0,0.11493301391601562,1.369762897491455,0.25658247319049693,14.0,150.0,0.0
,,"(6, 6)",,,,,,14.0,,
Y,R,"[6, 7]",0.0,0.0,0.3613109588623047,4.22639012336731,0.4327171571471101,,151.0,0.0
Y,R,"[6, 8]",1.0,1.0,0.2498481273651123,1.7180850505828857,0.4510349624052634,15.0,152.0,0.0
Y,R,"[6, 9]",1.0,2.0,0.20174384117126465,1.7655601501464844,0.5499382479801922,15.0,153.0,0.0
Y,R,"[6, 10]",1.0,3.0,0.2044379711151123,1.5486681461334229,0.3322026824778474,15.0,154.0,0.0
G,D,"[7, 10]",0.0,3.0,0.39384913444519043,1.9309680461883545,0.5294951546565569,15.0,155.0,0.0
Y,R,"[7, 11]",0.0,3.0,0.1808319091796875,1.7980780601501465,0.6107177201926186,15.0,156.0,0.0
R,U,"[6, 11]",0.0,3.0,0.15053701400756836,1.795705795288086,0.6565813593755616,15.0,157.0,0.0
B,L,"[6, 10]",0.0,3.0,0.13254189491271973,1.5779869556427002,0.4512565200764479,15.0,158.0,0.0
G,D,"[7, 10]",0.0,3.0,0.28246188163757324,2.026742935180664,0.7444806064939918,15.0,159.0,0.0
G,D,"[8, 10]",0.0,3.0,0.16705894470214844,1.5539329051971436,0.3989544680913077,15.0,160.0,0.0
,,"(6, 6)",,,,,,15.0,,
Y,R,"[6, 7]",0.0,0.0,0.3597588539123535,3.4833741188049316,0.29921308430588484,,161.0,0.0
B,L,"[6, 6]",0.0,0.0,0.23900485038757324,1.8453187942504883,0.5942188473506935,16.0,162.0,0.0
G,D,"[7, 6]",0.0,0.0,0.37260890007019043,1.778761863708496,0.40663779591141286,16.0,163.0,0.0
Y,R,"[7, 7]",0.0,0.0,0.26445794105529785,1.6648449897766113,0.40476403210456363,16.0,164.0,0.0
G,D,"[8, 7]",0.0,0.0,0.3684258460998535,1.8909239768981934,0.5123321871308497,16.0,165.0,0.0
B,L,"[8, 6]",0.0,0.0,0.4286000728607178,1.7184169292449951,0.297543707962892,16.0,166.0,0.0
G,D,"[9, 6]",0.0,0.0,0.4544510841369629,1.7108240127563477,0.25850210020625486,16.0,167.0,0.0
Y,R,"[9, 7]",0.0,0.0,0.36917996406555176,1.9354839324951172,0.5601765020448264,16.0,168.0,0.0
R,U,"[8, 7]",0.0,0.0,0.5795040130615234,1.8867988586425781,0.3139454036674338,16.0,169.0,0.0
B,L,"[8, 6]",0.0,0.0,0.3290591239929199,1.6165928840637207,0.2805477561627342,16.0,170.0,0.0
,,"(6, 6)",,,,,,16.0,,
R,U,"[5, 6]",-2.0,0.0,1.022261142730713,3.783720016479492,0.49736757622620453,,171.0,0.0
R,U,"[4, 6]",0.0,0.0,0.26590895652770996,1.6814239025115967,0.39574689953472025,17.0,172.0,0.0
G,D,"[5, 6]",0.0,0.0,0.6964869499206543,2.243353843688965,0.5555432319210156,17.0,173.0,0.0
B,L,"[5, 5]",0.0,0.0,0.19888806343078613,1.5706088542938232,0.3764410501274501,17.0,174.0,0.0
R,U,"[4, 5]",0.0,0.0,0.19005799293518066,1.5342938899993896,0.3441139501680334,17.0,175.0,0.0
Y,R,"[4, 6]",0.0,0.0,0.22274994850158691,1.5946218967437744,0.37201425651594594,17.0,176.0,0.0
G,D,"[5, 6]",0.0,0.0,0.2540621757507324,1.8122189044952393,0.5507348579817626,17.0,177.0,0.0
B,L,"[5, 5]",0.0,0.0,0.2022719383239746,1.8129961490631104,0.5970107707371504,17.0,178.0,0.0
G,D,"[6, 5]",0.0,0.0,0.35361599922180176,1.877040147781372,0.5076353923465295,17.0,179.0,0.0
R,U,"[5, 5]",0.0,0.0,0.2561759948730469,1.912895917892456,0.6537044321472014,17.0,180.0,0.0
,,"(6, 6)",,,,,,17.0,,
Y,R,"[6, 7]",0.0,0.0,0.7027969360351562,3.461211919784546,0.5818539833699018,,181.0,0.0
B,L,"[6, 6]",0.0,0.0,0.6576039791107178,2.3931751251220703,0.7250152425629175,18.0,182.0,0.0
B,L,"[6, 5]",-1.0,0.0,0.013917922973632812,5.827829122543335,0.686227825798521,18.0,183.0,0.0
B,L,"[6, 4]",0.0,0.0,0.36235499382019043,1.834808111190796,0.4710293269475508,18.0,184.0,0.0
G,D,"[7, 4]",0.0,0.0,0.2810628414154053,1.643099069595337,0.3644151685128729,18.0,185.0,0.0
R,U,"[6, 4]",0.0,0.0,0.3420841693878174,1.643178939819336,0.29100439530392525,18.0,186.0,0.0
R,U,"[5, 4]",0.0,0.0,0.6308670043945312,2.3701601028442383,0.7442213969657695,18.0,187.0,0.0
Y,R,"[5, 5]",0.0,0.0,0.44734716415405273,2.032447099685669,0.5934821723337118,18.0,188.0,0.0
G,D,"[6, 5]",0.0,0.0,0.2731151580810547,1.806110143661499,0.5330705646215976,18.0,189.0,0.0
B,L,"[6, 4]",0.0,0.0,0.3011918067932129,1.9710969924926758,0.6541302816958707,18.0,190.0,0.0
,,"(6, 6)",,,,,,18.0,,
Y,R,"[6, 7]",0.0,0.0,0.7040400505065918,3.4967129230499268,0.5173563055555664,,191.0,0.0
G,D,"[7, 7]",0.0,0.0,0.393934965133667,2.0853819847106934,0.685958979746035,19.0,192.0,0.0
G,D,"[8, 7]",0.0,0.0,0.2957010269165039,1.9222760200500488,0.6250005905633897,19.0,193.0,0.0
B,L,"[8, 6]",0.0,0.0,0.28009796142578125,1.6102650165557861,0.33559629156413834,19.0,194.0,0.0
R,U,"[7, 6]",0.0,0.0,0.3610658645629883,1.9065167903900146,0.5419027552932834,19.0,195.0,0.0
B,L,"[7, 5]",0.0,0.0,0.37157487869262695,1.7096319198608398,0.3351427004939365,19.0,196.0,0.0
B,L,"[7, 4]",0.0,0.0,0.4597299098968506,2.152662992477417,0.6875251484447014,19.0,197.0,0.0
G,D,"[8, 4]",-2.0,0.0,1.0738210678100586,2.3927838802337646,0.28066050015356786,19.0,198.0,0.0
G,D,"[9, 4]",0.0,0.0,0.2992680072784424,1.778568983078003,0.47576741667025046,19.0,199.0,0.0
Y,R,"[9, 5]",0.0,0.0,0.20756196975708008,1.6995880603790283,0.4923087861596699,19.0,200.0,0.0
,,"(6, 6)",,,,,,19.0,,
G,D,"[7, 6]",-2.0,0.0,1.0992460250854492,3.559999942779541,0.4355506812967658,,201.0,0.0
G,D,"[8, 6]",0.0,0.0,0.23847508430480957,1.636847972869873,0.38918194575760173,20.0,202.0,0.0
B,L,"[8, 5]",0.0,0.0,0.40769481658935547,1.9867849349975586,0.5758438606178141,20.0,203.0,0.0
R,U,"[7, 5]",0.0,0.0,0.18543601036071777,1.5673480033874512,0.3767637921529335,20.0,204.0,0.0
Y,R,"[7, 6]",0.0,0.0,0.21097207069396973,1.4724481105804443,0.26599445601182115,20.0,205.0,0.0
G,D,"[8, 6]",0.0,0.0,0.2894420623779297,1.8308210372924805,0.5299859877640052,20.0,206.0,0.0
Y,R,"[8, 7]",0.0,0.0,0.11436104774475098,1.6572179794311523,0.537225834372798,20.0,207.0,0.0
B,L,"[8, 6]",0.0,0.0,0.2611348628997803,1.6314640045166016,0.3686638134157231,20.0,208.0,0.0
G,D,"[9, 6]",0.0,0.0,0.37173986434936523,2.121973991394043,0.7403892579501984,20.0,209.0,0.0
R,U,"[8, 6]",0.0,0.0,0.24650192260742188,1.7651801109313965,0.5224261643577952,20.0,210.0,0.0
,,"(6, 6)",,,,,,20.0,,
G,D,"[7, 6]",0.0,0.0,0.736677885055542,3.2282609939575195,0.26774655187983065,,211.0,0.0
Y,R,"[7, 7]",-2.0,0.0,1.3822848796844482,2.8663477897644043,0.45060654658768623,21.0,212.0,0.0
Y,R,"[7, 8]",0.0,0.0,0.35484910011291504,1.9290339946746826,0.562994806588064,21.0,213.0,0.0
Y,R,"[7, 9]",0.0,0.0,0.2869560718536377,1.5888769626617432,0.2854289412205049,21.0,214.0,0.0
Y,R,"[7, 10]",0.0,0.0,0.34416913986206055,1.915910005569458,0.5676644802828893,21.0,215.0,0.0
R,U,"[6, 10]",1.0,1.0,0.22365307807922363,1.5948879718780518,0.3629344620856687,21.0,216.0,0.0
B,L,"[6, 9]",1.0,2.0,0.3289768695831299,1.6883611679077148,0.35121761651652467,21.0,217.0,0.0
G,D,"[7, 9]",0.0,2.0,0.855461835861206,2.220384120941162,0.3550076654764187,21.0,218.0,0.0
Y,R,"[7, 10]",0.0,2.0,0.22113513946533203,1.6900179386138916,0.46159615944182514,21.0,219.0,0.0
R,U,"[6, 10]",0.0,2.0,0.18781495094299316,1.8044281005859375,0.6159228711010651,21.0,220.0,0.0
,,"(6, 6)",,,,,,21.0,,
Y,R,"[6, 7]",0.0,0.0,0.6467409133911133,3.469817876815796,0.502671634993813,,221.0,0.0
G,D,"[7, 7]",0.0,0.0,0.35560107231140137,2.0432920455932617,0.6791741286048139,22.0,222.0,0.0
Y,R,"[7, 8]",0.0,0.0,0.22284603118896484,1.9087419509887695,0.671142263714497,22.0,223.0,0.0
G,D,"[8, 8]",0.0,0.0,0.2087879180908203,1.576413869857788,0.3645432526803255,22.0,224.0,0.0
R,U,"[7, 8]",0.0,0.0,0.3494257926940918,2.0690479278564453,0.7166348557753485,22.0,225.0,0.0
G,D,"[8, 8]",0.0,0.0,0.19472908973693848,1.6236329078674316,0.4239035970025134,22.0,226.0,0.0
Y,R,"[8, 9]",0.0,0.0,0.13749098777770996,1.6967461109161377,0.5537965947378405,22.0,227.0,0.0
B,L,"[8, 8]",0.0,0.0,0.19271016120910645,1.851992130279541,0.655835098567469,22.0,228.0,0.0
R,U,"[7, 8]",0.0,0.0,0.1967008113861084,1.9404089450836182,0.7462036324682009,22.0,229.0,0.0
B,L,"[7, 7]",0.0,0.0,0.20968294143676758,1.8185689449310303,0.5983101069916978,22.0,230.0,0.0
,,"(6, 6)",,,,,,22.0,,
Y,R,"[6, 7]",0.0,0.0,0.8430800437927246,20.717530012130737,0.49952520852930304,,231.0,0.0
R,U,"[5, 7]",1.0,1.0,0.1977081298828125,1.6447999477386475,0.4277364633985089,23.0,232.0,0.0
B,L,"[5, 6]",1.0,2.0,0.534588098526001,1.8152518272399902,0.2765536567738424,23.0,233.0,0.0
G,D,"[6, 6]",0.0,2.0,0.23124909400939941,1.5346150398254395,0.3109990165821768,23.0,234.0,0.0
B,L,"[6, 5]",0.0,2.0,0.2537648677825928,1.928062915802002,0.672261747272751,23.0,235.0,0.0
R,U,"[5, 5]",0.0,2.0,0.19748997688293457,1.589223861694336,0.39498973435605156,23.0,236.0,0.0
Y,R,"[5, 6]",0.0,2.0,0.18216490745544434,1.6866328716278076,0.5148800883977612,23.0,237.0,0.0
G,D,"[6, 6]",0.0,2.0,0.18013787269592285,1.679476022720337,0.4944947964680578,23.0,238.0,0.0
G,D,"[7, 6]",0.0,2.0,0.18793106079101562,1.8927440643310547,0.7202667595982898,23.0,239.0,0.0
R,U,"[6, 6]",0.0,2.0,0.18991708755493164,1.6612679958343506,0.46526913354214644,23.0,240.0,0.0
,,"(6, 6)",,,,,,23.0,,
G,D,"[7, 6]",0.0,0.0,0.6451611518859863,3.8893299102783203,0.6544358852123717,,241.0,0.0
R,U,"[6, 6]",0.0,0.0,0.19858598709106445,1.6936838626861572,0.49831381781996553,24.0,242.0,0.0
Y,R,"[6, 7]",0.0,0.0,0.2959020137786865,1.881462812423706,0.5797812203233805,24.0,243.0,0.0
Y,R,"[6, 8]",1.0,1.0,0.22357702255249023,1.8547608852386475,0.6177754012316784,24.0,244.0,0.0
Y,R,"[6, 9]",1.0,2.0,0.18547797203063965,1.784862995147705,0.6027841544248511,24.0,245.0,0.0
Y,R,"[6, 10]",1.0,3.0,0.20174098014831543,1.6292600631713867,0.4154669071793162,24.0,246.0,0.0
Y,R,"[6, 11]",0.0,3.0,0.19401288032531738,1.470538854598999,0.2695288989640419,24.0,247.0,0.0
B,L,"[6, 10]",0.0,3.0,0.29308009147644043,1.8389019966125488,0.5412986807277946,24.0,248.0,0.0
G,D,"[7, 10]",0.0,3.0,0.19074201583862305,1.7102470397949219,0.5184701275459147,24.0,249.0,0.0
G,D,"[8, 10]",0.0,3.0,0.18233203887939453,1.8628029823303223,0.6811745789974271,24.0,250.0,0.0
,,"(6, 6)",,,,,,24.0,,
R,U,"[5, 6]",1.0,1.0,0.6241028308868408,3.480534076690674,0.6948453749047668,,251.0,0.0
R,U,"[4, 6]",0.0,1.0,0.16866803169250488,1.6098480224609375,0.454941193404825,25.0,252.0,0.0
B,L,"[4, 5]",0.0,1.0,0.24202394485473633,1.5255138874053955,0.2810153595142095,25.0,253.0,0.0
G,D,"[5, 5]",0.0,1.0,0.30663013458251953,2.063283920288086,0.7437371438433746,25.0,254.0,0.0
Y,R,"[5, 6]",-1.0,1.0,0.02901005744934082,5.821313142776489,0.665276930227343,25.0,255.0,0.0
Y,R,"[5, 7]",1.0,2.0,0.1956028938293457,1.8334450721740723,0.6321280632783584,25.0,256.0,0.0
Y,R,"[5, 8]",1.0,3.0,0.16324901580810547,1.7555780410766602,0.5876816477746877,25.0,257.0,0.0
G,D,"[6, 8]",1.0,4.0,0.2799820899963379,1.7820301055908203,0.4865252131196625,25.0,258.0,0.0
Y,R,"[6, 9]",1.0,5.0,0.314802885055542,2.0464999675750732,0.7161576244995267,25.0,259.0,0.0
G,D,"[7, 9]",0.0,5.0,0.24786901473999023,1.576033115386963,0.32594542868707277,25.0,260.0,0.0
,,"(6, 6)",,,,,,25.0,,
Y,R,"[6, 7]",0.0,0.0,0.5516290664672852,3.492201089859009,0.3180438209027457,,261.0,0.0
Y,R,"[6, 8]",1.0,1.0,0.201218843460083,1.593379020690918,0.3781554103624522,26.0,262.0,0.0
Y,R,"[6, 9]",1.0,2.0,0.32541704177856445,1.6033060550689697,0.28153996099213885,26.0,263.0,0.0
G,D,"[7, 9]",0.0,2.0,0.2907719612121582,1.7646968364715576,0.4627511431683242,26.0,264.0,0.0
Y,R,"[7, 10]",0.0,2.0,0.21701693534851074,1.7609658241271973,0.5403447732646811,26.0,265.0,0.0
B,L,"[7, 9]",-1.0,2.0,0.08916401863098145,5.720151901245117,0.4939691207716956,26.0,266.0,0.0
B,L,"[7, 8]",0.0,2.0,0.23063397407531738,1.6393959522247314,0.41670105698632576,26.0,267.0,0.0
R,U,"[6, 8]",0.0,2.0,0.20451116561889648,1.9415440559387207,0.7247375877804958,26.0,268.0,0.0
Y,R,"[6, 9]",0.0,2.0,0.36236000061035156,1.9624779224395752,0.604210990532356,26.0,269.0,0.0
G,D,"[7, 9]",0.0,2.0,0.20886015892028809,1.7254719734191895,0.5131609215758772,26.0,270.0,0.0
,,"(6, 6)",,,,,,26.0,,
R,U,"[5, 6]",1.0,1.0,0.6606340408325195,3.5100879669189453,0.539888553309581,,271.0,0.0
B,L,"[5, 5]",0.0,1.0,0.9707279205322266,2.3575429916381836,0.3810941841746814,27.0,272.0,0.0
R,U,"[4, 5]",0.0,1.0,0.17933011054992676,1.8253450393676758,0.639449020863879,27.0,273.0,0.0
G,D,"[5, 5]",0.0,1.0,0.16368603706359863,1.795201063156128,0.6345334397349107,27.0,274.0,0.0
Y,R,"[5, 6]",0.0,1.0,0.15926790237426758,1.8622419834136963,0.696720053887868,27.0,275.0,0.0
B,L,"[5, 5]",-1.0,1.0,0.07149600982666016,5.732959985733032,0.5298046765504427,27.0,276.0,0.0
B,L,"[5, 4]",0.0,1.0,0.21676111221313477,1.4799220561981201,0.26003732441824684,27.0,277.0,0.0
R,U,"[4, 4]",0.0,1.0,0.3003878593444824,1.9181559085845947,0.6279524577733526,27.0,278.0,0.0
R,U,"[3, 4]",0.0,1.0,0.3515739440917969,1.9725937843322754,0.6004832726002263,27.0,279.0,0.0
Y,R,"[3, 5]",0.0,1.0,0.10198283195495605,1.509505033493042,0.37693885769424684,27.0,280.0,0.0
,,"(6, 6)",,,,,,27.0,,
G,D,"[7, 6]",-2.0,0.0,1.0043668746948242,3.7559449672698975,0.5162993169319452,,281.0,0.0
G,D,"[8, 6]",0.0,0.0,0.23145794868469238,1.728727102279663,0.4784665388124189,28.0,282.0,0.0
Y,R,"[8, 7]",0.0,0.0,0.6972661018371582,2.2170748710632324,0.5288065794486014,28.0,283.0,0.0
G,D,"[9, 7]",0.0,0.0,0.20676112174987793,1.8273570537567139,0.6228911543327141,28.0,284.0,0.0
G,D,"[10, 7]",0.0,0.0,0.5264618396759033,2.2650671005249023,0.7376599462193835,28.0,285.0,0.0
R,U,"[9, 7]",0.0,0.0,0.1845240592956543,1.747730016708374,0.5523750350845469,28.0,286.0,0.0
B,L,"[9, 6]",0.0,0.0,0.2065410614013672,1.598923921585083,0.3847359974764508,28.0,287.0,0.0
B,L,"[9, 5]",0.0,0.0,0.2105579376220703,1.7303152084350586,0.5149699816578868,28.0,288.0,0.0
G,D,"[10, 5]",0.0,0.0,0.6705820560455322,2.042668104171753,0.35791340510294356,28.0,289.0,0.0
Y,R,"[10, 6]",0.0,0.0,0.2162928581237793,1.7508690357208252,0.5419149604707979,28.0,290.0,0.0
,,"(6, 6)",,,,,,28.0,,
G,D,"[7, 6]",0.0,0.0,0.7990248203277588,4.027340888977051,0.6191296440059533,,291.0,0.0
R,U,"[6, 6]",0.0,0.0,0.1876230239868164,1.6599740982055664,0.4625674056248963,29.0,292.0,0.0
R,U,"[5, 6]",1.0,1.0,0.19570708274841309,1.9090969562530518,0.7046918749594075,29.0,293.0,0.0
R,U,"[4, 6]",0.0,1.0,0.6506099700927734,1.91451096534729,0.2698723286904223,29.0,294.0,0.0
B,L,"[4, 5]",0.0,1.0,0.2982180118560791,2.0306148529052734,0.7333972323173126,29.0,295.0,0.0
Y,R,"[4, 6]",0.0,1.0,0.1495649814605713,1.6947717666625977,0.5450280373682959,29.0,296.0,0.0
G,D,"[5, 6]",0.0,1.0,0.22552204132080078,1.7165858745574951,0.4951987781731855,29.0,297.0,0.0
Y,R,"[5, 7]",1.0,2.0,0.18497490882873535,1.692469835281372,0.5208089841530836,29.0,298.0,0.0
Y,R,"[5, 8]",1.0,3.0,0.1779007911682129,1.8321449756622314,0.6527638467462193,29.0,299.0,0.0
G,D,"[6, 8]",-1.0,3.0,0.030664920806884766,5.7618088722229,0.5981755345538818,29.0,300.0,0.0
,,"(6, 6)",,,,,,29.0,,
Y,R,"[6, 7]",0.0,0.0,0.6134359836578369,3.475132942199707,0.4401136111178093,,301.0,0.0
G,D,"[7, 7]",0.0,0.0,0.22159719467163086,1.792968988418579,0.5831797785477525,30.0,302.0,0.0
G,D,"[8, 7]",0.0,0.0,0.24416494369506836,1.5048868656158447,0.25513470230841157,30.0,303.0,0.0
G,D,"[9, 7]",0.0,0.0,0.3363039493560791,2.047823905944824,0.7025402565690546,30.0,304.0,0.0
R,U,"[8, 7]",0.0,0.0,0.11178207397460938,1.3808560371398926,0.2671159161555734,30.0,305.0,0.0
R,U,"[7, 7]",0.0,0.0,0.4193689823150635,2.1487228870391846,0.7317712787667352,30.0,306.0,0.0
B,L,"[7, 6]",0.0,0.0,0.19136810302734375,1.626899003982544,0.4259249623925009,30.0,307.0,0.0
B,L,"[7, 5]",0.0,0.0,0.2870330810546875,2.0329790115356445,0.7418673219730494,30.0,308.0,0.0
Y,R,"[7, 6]",0.0,0.0,0.25876808166503906,1.9656879901885986,0.7075406989440569,30.0,309.0,0.0
Y,R,"[7, 7]",0.0,0.0,0.1940460205078125,1.7181200981140137,0.5258033118224357,30.0,310.0,0.0
,,"(6, 6)",,,,,,30.0,,
R,U,"[5, 6]",1.0,1.0,0.9371130466461182,3.7906999588012695,0.26698700652962387,,311.0,0.0
B,L,"[5, 5]",0.0,1.0,0.33663487434387207,1.6261630058288574,0.2763424006702213,31.0,312.0,0.0
R,U,"[4, 5]",0.0,1.0,0.26793503761291504,1.549912929534912,0.2597598816506951,31.0,313.0,0.0
Y,R,"[4, 6]",0.0,1.0,0.4041619300842285,2.104264974594116,0.6969190391760995,31.0,314.0,0.0
G,D,"[5, 6]",0.0,1.0,0.20256590843200684,1.7400431632995605,0.5203854796844223,31.0,315.0,0.0
G,D,"[6, 6]",0.0,1.0,0.18338298797607422,1.6096210479736328,0.41360892294966584,31.0,316.0,0.0
B,L,"[6, 5]",0.0,1.0,0.2515580654144287,1.6611251831054688,0.40804923617181094,31.0,317.0,0.0
R,U,"[5, 5]",0.0,1.0,0.21162104606628418,1.7402679920196533,0.5317818704009182,31.0,318.0,0.0
Y,R,"[5, 6]",0.0,1.0,0.1345078945159912,1.6147639751434326,0.47986008707175526,31.0,319.0,0.0
B,L,"[5, 5]",0.0,1.0,0.20307683944702148,1.9410579204559326,0.7207688137727026,31.0,320.0,0.0
,,"(6, 6)",,,,,,31.0,,
R,U,"[5, 6]",1.0,1.0,0.6659369468688965,3.571988821029663,0.6259894132001734,,321.0,0.0
B,L,"[5, 5]",0.0,1.0,0.22313904762268066,1.8224928379058838,0.5987107837285952,32.0,322.0,0.0
R,U,"[4, 5]",0.0,1.0,0.17855501174926758,1.655946969985962,0.4715419966113965,32.0,323.0,0.0
R,U,"[3, 5]",0.0,1.0,0.43415307998657227,2.135066032409668,0.7064300295750812,32.0,324.0,0.0
G,D,"[4, 5]",0.0,1.0,0.18378090858459473,1.485954999923706,0.3093255743720192,32.0,325.0,0.0
B,L,"[4, 4]",0.0,1.0,0.3513619899749756,1.918529987335205,0.5777500354316065,32.0,326.0,0.0
B,L,"[4, 3]",0.0,1.0,0.2779121398925781,1.9380099773406982,0.6655889916486275,32.0,327.0,0.0
Y,R,"[4, 4]",0.0,1.0,0.20395684242248535,1.8645870685577393,0.6469043297190712,32.0,328.0,0.0
Y,R,"[4, 5]",0.0,1.0,0.20221495628356934,1.593553066253662,0.3740436415719463,32.0,329.0,0.0
B,L,"[4, 4]",0.0,1.0,0.42607593536376953,1.9118890762329102,0.485900822795764,32.0,330.0,0.0
,,"(6, 6)",,,,,,32.0,,
Y,R,"[6, 7]",0.0,0.0,0.5098810195922852,3.0628859996795654,0.315584854798531,,331.0,0.0
Y,R,"[6, 8]",1.0,1.0,0.24689388275146484,2.0101499557495117,0.7419648821441027,33.0,332.0,0.0
Y,R,"[6, 9]",1.0,2.0,0.26180291175842285,1.9303481578826904,0.6725669819728415,33.0,333.0,0.0
G,D,"[7, 9]",0.0,2.0,0.2638568878173828,1.8973281383514404,0.6364447653063094,33.0,334.0,0.0
Y,R,"[7, 10]",0.0,2.0,0.22414803504943848,1.6115961074829102,0.3817206211286978,33.0,335.0,0.0
Y,R,"[7, 11]",0.0,2.0,0.28284502029418945,1.9190380573272705,0.6338975568142269,33.0,336.0,0.0
R,U,"[6, 11]",0.0,2.0,0.46811890602111816,1.953253984451294,0.4872970684646827,33.0,337.0,0.0
Y,R,"[6, 12]",-3.0,2.0,0.27257800102233887,1.7906839847564697,0.5113214993443405,33.0,338.0,0.0
B,L,"[6, 11]",0.0,2.0,0.20734381675720215,1.5376088619232178,0.3324182828834788,33.0,339.0,0.0
Y,R,"[6, 12]",-3.0,2.0,0.2235279083251953,1.614684820175171,0.38040787084979477,33.0,340.0,0.0
,,"(6, 6)",,,,,,33.0,,
Y,R,"[6, 7]",0.0,0.0,0.41930699348449707,3.3127260208129883,0.6595526766147831,,341.0,0.0
R,U,"[5, 7]",1.0,1.0,0.17209887504577637,1.810218095779419,0.6365022065940311,34.0,342.0,0.0
B,L,"[5, 6]",1.0,2.0,0.25969600677490234,1.7681291103363037,0.5048493449029222,34.0,343.0,0.0
Y,R,"[5, 7]",0.0,2.0,0.3737189769744873,1.9127671718597412,0.5343197048774122,34.0,344.0,0.0
G,D,"[6, 7]",0.0,2.0,0.2122330665588379,1.6747429370880127,0.45908120938771063,34.0,345.0,0.0
R,U,"[5, 7]",0.0,2.0,0.19957494735717773,1.5645668506622314,0.3737803804176265,34.0,346.0,0.0
R,U,"[4, 7]",0.0,2.0,0.3657991886138916,2.0337188243865967,0.6739076144214904,34.0,347.0,0.0
R,U,"[3, 7]",0.0,2.0,0.29053378105163574,1.729982852935791,0.4375921353083195,34.0,348.0,0.0
G,D,"[4, 7]",0.0,2.0,0.6594130992889404,2.1846280097961426,0.5220828578834487,34.0,349.0,0.0
B,L,"[4, 6]",0.0,2.0,0.19999194145202637,1.7349441051483154,0.5403315455378259,34.0,350.0,0.0
,,"(6, 6)",,,,,,34.0,,
B,L,"[6, 5]",0.0,0.0,0.4507279396057129,3.1140480041503906,0.3712332402435629,,351.0,0.0
Y,R,"[6, 6]",0.0,0.0,0.19107604026794434,1.452073097229004,0.25679575579369696,35.0,352.0,0.0
Y,R,"[6, 7]",0.0,0.0,0.24721384048461914,1.7421560287475586,0.4987092411236842,35.0,353.0,0.0
G,D,"[7, 7]",0.0,0.0,0.18210196495056152,1.8662869930267334,0.6815766578211779,35.0,354.0,0.0
R,U,"[6, 7]",-1.0,0.0,0.03433704376220703,5.753820896148682,0.5855406652753637,35.0,355.0,0.0
R,U,"[5, 7]",-2.0,0.0,1.385072946548462,2.9569740295410156,0.5425764888363078,35.0,356.0,0.0
Y,R,"[5, 8]",-2.0,0.0,1.118910789489746,2.4989540576934814,0.3585295188264232,35.0,357.0,0.0
Y,R,"[5, 9]",0.0,0.0,0.7340600490570068,2.0845680236816406,0.3597918408751432,35.0,358.0,0.0
R,U,"[4, 9]",1.0,1.0,0.37572312355041504,1.9346470832824707,0.5608101662363716,35.0,359.0,0.0
B,L,"[4, 8]",0.0,1.0,0.3973729610443115,1.7822120189666748,0.3933657987635069,35.0,360.0,0.0
,,"(6, 6)",,,,,,35.0,,
R,U,"[5, 6]",1.0,1.0,0.9266130924224854,17.723614931106567,0.30052438761939054,,361.0,0.0
R,U,"[4, 6]",0.0,1.0,0.30823707580566406,1.7841558456420898,0.46806667734358753,36.0,362.0,0.0
B,L,"[4, 5]",0.0,1.0,0.21506619453430176,1.5639348030090332,0.3487526473816145,36.0,363.0,0.0
G,D,"[5, 5]",0.0,1.0,0.16738200187683105,1.6793289184570312,0.5112345466356798,36.0,364.0,0.0
Y,R,"[5, 6]",0.0,1.0,0.19815301895141602,1.5217540264129639,0.3331839968888991,36.0,365.0,0.0
R,U,"[4, 6]",0.0,1.0,0.2000739574432373,1.8781828880310059,0.6776373465781442,36.0,366.0,0.0
B,L,"[4, 5]",0.0,1.0,0.507080078125,1.8193919658660889,0.31412214056185483,36.0,367.0,0.0
R,U,"[3, 5]",0.0,1.0,0.936830997467041,2.2041311264038086,0.2517220929118009,36.0,368.0,0.0
G,D,"[4, 5]",0.0,1.0,0.4286351203918457,1.8247060775756836,0.3929481604607842,36.0,369.0,0.0
B,L,"[4, 4]",0.0,1.0,0.24246501922607422,1.9787611961364746,0.7380034450135413,36.0,370.0,0.0
,,"(6, 6)",,,,,,36.0,,
R,U,"[5, 6]",1.0,1.0,0.8502058982849121,3.656851053237915,0.3620525382699638,,371.0,0.0
B,L,"[5, 5]",0.0,1.0,0.2672438621520996,1.9209911823272705,0.6660007256905278,37.0,372.0,0.0
G,D,"[6, 5]",0.0,1.0,0.22266793251037598,1.8291449546813965,0.5952189191651858,37.0,373.0,0.0
Y,R,"[6, 6]",-1.0,1.0,0.07281613349914551,5.554682970046997,0.36704852130235305,37.0,374.0,0.0
Y,R,"[6, 7]",0.0,1.0,0.21155309677124023,1.560472011566162,0.3441078873938522,37.0,375.0,0.0
R,U,"[5, 7]",1.0,2.0,0.4860398769378662,2.1153628826141357,0.6259043802407893,37.0,376.0,0.0
B,L,"[5, 6]",0.0,2.0,0.21828603744506836,1.8220229148864746,0.6145430831285333,37.0,377.0,0.0
R,U,"[4, 6]",0.0,2.0,0.21460914611816406,1.4858720302581787,0.26766653375681543,37.0,378.0,0.0
R,U,"[3, 6]",-1.0,2.0,0.016499042510986328,5.414913892745972,0.2659944347714984,37.0,379.0,0.0
R,U,"[2, 6]",0.0,2.0,0.42032313346862793,2.0920119285583496,0.6575945669840206,37.0,380.0,0.0
,,"(6, 6)",,,,,,37.0,,
G,D,"[7, 6]",0.0,0.0,0.6234760284423828,3.697532892227173,0.7217109437923944,,381.0,0.0
Y,R,"[7, 7]",0.0,0.0,0.22744989395141602,1.7239751815795898,0.4960706318819149,38.0,382.0,0.0
B,L,"[7, 6]",0.0,0.0,0.2816629409790039,1.5818860530853271,0.2947914606405209,38.0,383.0,0.0
Y,R,"[7, 7]",0.0,0.0,0.27204108238220215,1.9035780429840088,0.6313624090454932,38.0,384.0,0.0
R,U,"[6, 7]",0.0,0.0,0.12537217140197754,1.6622729301452637,0.5272690913587139,38.0,385.0,0.0
B,L,"[6, 6]",0.0,0.0,0.21148896217346191,1.8416860103607178,0.6355402109253653,38.0,386.0,0.0
G,D,"[7, 6]",0.0,0.0,0.23115897178649902,1.793936014175415,0.5633409678099841,38.0,387.0,0.0
B,L,"[7, 5]",0.0,0.0,0.1969928741455078,1.7861359119415283,0.5822716675068789,38.0,388.0,0.0
Y,R,"[7, 6]",0.0,0.0,0.2165999412536621,1.63031005859375,0.4126266822814521,38.0,389.0,0.0
Y,R,"[7, 7]",0.0,0.0,0.22906494140625,1.6868209838867188,0.4496170760774196,38.0,390.0,0.0
,,"(6, 6)",,,,,,38.0,,
R,U,"[5, 6]",1.0,1.0,0.8716192245483398,3.8269460201263428,0.45992909631760026,,391.0,0.0
R,U,"[4, 6]",0.0,1.0,0.20439600944519043,1.7766950130462646,0.5699378635297223,39.0,392.0,0.0
Y,R,"[4, 7]",0.0,1.0,0.5347239971160889,2.2535500526428223,0.7065325114902584,39.0,393.0,0.0
G,D,"[5, 7]",1.0,2.0,0.25403594970703125,1.9470899105072021,0.6870736512911282,39.0,394.0,0.0
G,D,"[6, 7]",0.0,2.0,0.20534491539001465,1.7836499214172363,0.5709012418935131,39.0,395.0,0.0
Y,R,"[6, 8]",1.0,3.0,0.4066429138183594,1.8607659339904785,0.4484366454210434,39.0,396.0,0.0
Y,R,"[6, 9]",1.0,4.0,0.21298003196716309,1.4778380393981934,0.25988677364380774,39.0,397.0,0.0
Y,R,"[6, 10]",1.0,5.0,0.3838460445404053,2.0841639041900635,0.6935517514190381,39.0,398.0,0.0
B,L,"[6, 9]",0.0,5.0,0.7724061012268066,2.377835988998413,0.6049370546151442,39.0,399.0,0.0
Y,R,"[6, 10]",0.0,5.0,0.2272930145263672,1.5185461044311523,0.29038126581548196,39.0,400.0,0.0
,,"(6, 6)",,,,,,39.0,,
G,D,"[7, 6]",0.0,0.0,0.6537768840789795,3.615273952484131,0.35583479373558574,,401.0,0.0
B,L,"[7, 5]",0.0,0.0,0.23599791526794434,1.7107999324798584,0.46653371833014856,40.0,402.0,0.0
Y,R,"[7, 6]",0.0,0.0,0.19093012809753418,1.6685528755187988,0.46846798805287165,40.0,403.0,0.0
R,U,"[6, 6]",0.0,0.0,0.26950597763061523,1.563122034072876,0.2817100853088908,40.0,404.0,0.0
G,D,"[7, 6]",0.0,0.0,0.5398788452148438,1.9893040657043457,0.43772086627262463,40.0,405.0,0.0
B,L,"[7, 5]",0.0,0.0,0.21686291694641113,1.6059460639953613,0.3770791228097017,40.0,406.0,0.0
Y,R,"[7, 6]",0.0,0.0,0.244110107421875,1.9155361652374268,0.6759238043384312,40.0,407.0,0.0
R,U,"[6, 6]",0.0,0.0,0.1712329387664795,1.5399670600891113,0.36582108083724096,40.0,408.0,0.0
R,U,"[5, 6]",1.0,1.0,0.47648000717163086,1.8980400562286377,0.41398695873911046,40.0,409.0,0.0
R,U,"[4, 6]",0.0,1.0,0.24944710731506348,1.5115711688995361,0.2589926605417298,40.0,410.0,0.0
,,"(6, 6)",,,,,,40.0,,
B,L,"[6, 5]",0.0,0.0,0.7767679691314697,3.6101489067077637,0.5022019587928772,,411.0,0.0
G,D,"[7, 5]",0.0,0.0,0.1704549789428711,1.65932297706604,0.4783678456939432,41.0,412.0,0.0
G,D,"[8, 5]",0.0,0.0,0.6250860691070557,2.252556085586548,0.6308250224477496,41.0,413.0,0.0
Y,R,"[8, 6]",0.0,0.0,0.21837711334228516,1.8724629878997803,0.6532293093435291,41.0,414.0,0.0
R,U,"[7, 6]",0.0,0.0,0.15154814720153809,1.8404979705810547,0.6771037268340576,41.0,415.0,0.0
B,L,"[7, 5]",0.0,0.0,0.13950896263122559,1.5585250854492188,0.43561958465616346,41.0,416.0,0.0
G,D,"[8, 5]",0.0,0.0,0.2442789077758789,1.65004301071167,0.40251473311928376,41.0,417.0,0.0
R,U,"[7, 5]",0.0,0.0,0.23239898681640625,1.8346338272094727,0.6035710198721511,41.0,418.0,0.0
Y,R,"[7, 6]",0.0,0.0,0.17494702339172363,1.9018938541412354,0.7223078492781085,41.0,419.0,0.0
B,L,"[7, 5]",0.0,0.0,0.2138068675994873,1.5465350151062012,0.3358323136677367,41.0,420.0,0.0
,,"(6, 6)",,,,,,41.0,,
R,U,"[5, 6]",1.0,1.0,0.767564058303833,9.423313856124878,0.3926932249988784,,421.0,0.0
R,U,"[4, 6]",0.0,1.0,0.18134689331054688,1.7491281032562256,0.5749080369703277,42.0,422.0,0.0
B,L,"[4, 5]",0.0,1.0,0.19759678840637207,1.9122669696807861,0.7204786946171928,42.0,423.0,0.0
Y,R,"[4, 6]",-1.0,1.0,0.052513837814331055,5.917987823486328,0.7381338419299264,42.0,424.0,0.0
Y,R,"[4, 7]",0.0,1.0,0.36162900924682617,2.104353904724121,0.742562790162508,42.0,425.0,0.0
G,D,"[5, 7]",1.0,2.0,0.3024449348449707,1.7185499668121338,0.4114151895452674,42.0,426.0,0.0
G,D,"[6, 7]",0.0,2.0,0.19988799095153809,1.679098129272461,0.4906038297458388,42.0,427.0,0.0
Y,R,"[6, 8]",1.0,3.0,0.21454691886901855,1.8389391899108887,0.6294284776990968,42.0,428.0,0.0
Y,R,"[6, 9]",1.0,4.0,0.24271893501281738,1.9659740924835205,0.7121804510405846,42.0,429.0,0.0
Y,R,"[6, 10]",1.0,5.0,0.48564791679382324,1.9638609886169434,0.47641570454538074,42.0,430.0,0.0
,,"(6, 6)",,,,,,42.0,,
Y,R,"[6, 7]",0.0,0.0,0.42734599113464355,4.523364782333374,0.6660756466064859,,431.0,0.0
R,U,"[5, 7]",1.0,1.0,0.10875391960144043,1.3769679069519043,0.26031095864703907,43.0,432.0,0.0
B,L,"[5, 6]",1.0,2.0,0.34736084938049316,1.6485400199890137,0.3087797266654637,43.0,433.0,0.0
G,D,"[6, 6]",0.0,2.0,0.29837703704833984,1.5965368747711182,0.3054743603494731,43.0,434.0,0.0
G,D,"[7, 6]",0.0,2.0,0.8544180393218994,2.1963460445404053,0.33493707347012985,43.0,435.0,0.0
R,U,"[6, 6]",0.0,2.0,0.23935604095458984,1.923896074295044,0.6753183223486154,43.0,436.0,0.0
B,L,"[6, 5]",0.0,2.0,0.19106197357177734,1.6203429698944092,0.4293311141663983,43.0,437.0,0.0
Y,R,"[6, 6]",0.0,2.0,0.19258904457092285,1.5558619499206543,0.33528164297873236,43.0,438.0,0.0
G,D,"[7, 6]",0.0,2.0,0.4744861125946045,2.0269410610198975,0.5451518202612227,43.0,439.0,0.0
B,L,"[7, 5]",0.0,2.0,0.19520211219787598,1.4908568859100342,0.30302547709182687,43.0,440.0,0.0
,,"(6, 6)",,,,,,43.0,,
R,U,"[5, 6]",1.0,1.0,0.4220740795135498,3.968410015106201,0.5711540042836297,,441.0,0.0
R,U,"[4, 6]",0.0,1.0,0.5587639808654785,2.2143399715423584,0.6521130227928643,44.0,442.0,0.0
B,L,"[4, 5]",0.0,1.0,0.15969300270080566,1.6872448921203613,0.5228190934022977,44.0,443.0,0.0
R,U,"[3, 5]",0.0,1.0,0.18675494194030762,1.6117830276489258,0.418254363960337,44.0,444.0,0.0
G,D,"[4, 5]",0.0,1.0,0.22997021675109863,1.6614630222320557,0.4297955618455574,44.0,445.0,0.0
Y,R,"[4, 6]",0.0,1.0,0.19247198104858398,1.8536300659179688,0.6498585942139934,44.0,446.0,0.0
Y,R,"[4, 7]",0.0,1.0,0.17724180221557617,1.6770877838134766,0.49392481638411534,44.0,447.0,0.0
R,U,"[3, 7]",0.0,1.0,0.21190404891967773,1.9112460613250732,0.7047274767092095,44.0,448.0,0.0
R,U,"[2, 7]",0.0,1.0,0.2023940086364746,1.67861008644104,0.4836587286374263,44.0,449.0,0.0
R,U,"[1, 7]",0.0,1.0,0.1878049373626709,1.566706895828247,0.36708805661087107,44.0,450.0,0.0
,,"(6, 6)",,,,,,44.0,,
G,D,"[7, 6]",0.0,0.0,0.46512889862060547,3.504828929901123,0.2888564022665937,,451.0,0.0
B,L,"[7, 5]",0.0,0.0,0.25348711013793945,1.9859848022460938,0.7245478904254038,45.0,452.0,0.0
B,L,"[7, 4]",-1.0,0.0,0.04326605796813965,5.629857063293457,0.4711068977628472,45.0,453.0,0.0
Y,R,"[7, 5]",0.0,0.0,0.6867110729217529,2.362622022628784,0.6669281543335908,45.0,454.0,0.0
G,D,"[8, 5]",0.0,0.0,0.530493974685669,1.8475430011749268,0.3148409663082067,45.0,455.0,0.0
B,L,"[8, 4]",0.0,0.0,0.28137803077697754,1.9795160293579102,0.6939616834353107,45.0,456.0,0.0
R,U,"[7, 4]",0.0,0.0,0.19202184677124023,1.691701889038086,0.5027158974070935,45.0,457.0,0.0
R,U,"[6, 4]",0.0,0.0,0.1874239444732666,1.7813289165496826,0.5837714911997219,45.0,458.0,0.0
B,L,"[6, 3]",0.0,0.0,0.17881202697753906,1.7807071208953857,0.5980081595047513,45.0,459.0,0.0
B,L,"[6, 2]",0.0,0.0,0.14922404289245605,1.746082067489624,0.5940840239906454,45.0,460.0,0.0
,,"(6, 6)",,,,,,45.0,,
R,U,"[5, 6]",1.0,1.0,0.6723339557647705,3.940308094024658,0.4181858297366631,,461.0,0.0
B,L,"[5, 5]",0.0,1.0,0.3500092029571533,1.9374351501464844,0.588805628872726,46.0,462.0,0.0
R,U,"[4, 5]",0.0,1.0,0.1963059902191162,1.7305359840393066,0.5359930526031645,46.0,463.0,0.0
G,D,"[5, 5]",0.0,1.0,0.20107793807983398,1.6049048900604248,0.39115118140921895,46.0,464.0,0.0
Y,R,"[5, 6]",0.0,1.0,0.21484112739562988,1.822361946105957,0.6132930213141567,46.0,465.0,0.0
Y,R,"[5, 7]",-1.0,1.0,0.022908926010131836,5.531372785568237,0.3783087899805542,46.0,466.0,0.0
Y,R,"[5, 8]",1.0,2.0,0.533951997756958,2.0298779010772705,0.49120743229424757,46.0,467.0,0.0
Y,R,"[5, 9]",0.0,2.0,0.3517038822174072,1.8512868881225586,0.5091477996384945,46.0,468.0,0.0
G,D,"[6, 9]",1.0,3.0,0.20005297660827637,1.827949047088623,0.6204563364686524,46.0,469.0,0.0
Y,R,"[6, 10]",1.0,4.0,0.18958783149719238,1.477997064590454,0.28209522577903506,46.0,470.0,0.0
,,"(6, 6)",,,,,,46.0,,
Y,R,"[6, 7]",-2.0,0.0,1.4169399738311768,5.4330480098724365,0.6150215879730598,,471.0,0.0
R,U,"[5, 7]",1.0,1.0,0.2589609622955322,1.988947868347168,0.7204641415757937,47.0,472.0,0.0
B,L,"[5, 6]",-1.0,1.0,0.08177614212036133,5.8262858390808105,0.6138294562278909,47.0,473.0,0.0
R,U,"[4, 6]",0.0,1.0,0.7409510612487793,2.3893887996673584,0.6362836581276448,47.0,474.0,0.0
B,L,"[4, 5]",0.0,1.0,0.2058560848236084,1.9552600383758545,0.7413990538377602,47.0,475.0,0.0
G,D,"[5, 5]",0.0,1.0,0.21456193923950195,1.8505010604858398,0.6423244754250648,47.0,476.0,0.0
G,D,"[6, 5]",0.0,1.0,0.1487560272216797,1.839388132095337,0.6817767557269749,47.0,477.0,0.0
G,D,"[7, 5]",0.0,1.0,0.18964791297912598,1.767125129699707,0.5656931581611824,47.0,478.0,0.0
Y,R,"[7, 6]",0.0,1.0,0.22472190856933594,1.6159570217132568,0.38194826867337045,47.0,479.0,0.0
B,L,"[7, 5]",0.0,1.0,0.3561701774597168,1.6889309883117676,0.3205116507803438,47.0,480.0,0.0
,,"(6, 6)",,,,,,47.0,,
R,U,"[5, 6]",1.0,1.0,0.32480692863464355,3.962279796600342,0.7494687259282442,,481.0,0.0
B,L,"[5, 5]",0.0,1.0,0.23115205764770508,1.818213939666748,0.5843899387877138,48.0,482.0,0.0
R,U,"[4, 5]",0.0,1.0,0.20875811576843262,1.6290340423583984,0.4136133662128277,48.0,483.0,0.0
R,U,"[3, 5]",0.0,1.0,0.323775053024292,1.8463408946990967,0.5099186057781195,48.0,484.0,0.0
G,D,"[4, 5]",0.0,1.0,0.26249194145202637,1.8472580909729004,0.5905953110186706,48.0,485.0,0.0
Y,R,"[4, 6]",0.0,1.0,0.21704816818237305,1.7416551113128662,0.5322058150548212,48.0,486.0,0.0
B,L,"[4, 5]",0.0,1.0,0.19743108749389648,1.7639620304107666,0.5627775493205938,48.0,487.0,0.0
G,D,"[5, 5]",0.0,1.0,0.23923301696777344,1.6041698455810547,0.35061329083171167,48.0,488.0,0.0
R,U,"[4, 5]",0.0,1.0,0.2769949436187744,1.8232920169830322,0.5405461869105177,48.0,489.0,0.0
B,L,"[4, 4]",-2.0,1.0,1.1204490661621094,2.4567999839782715,0.31425241090696254,48.0,490.0,0.0
,,"(6, 6)",,,,,,48.0,,
G,D,"[7, 6]",0.0,0.0,0.48514604568481445,3.6026580333709717,0.6998742740265195,,491.0,0.0
G,D,"[8, 6]",0.0,0.0,0.19890689849853516,1.8846840858459473,0.6843400007291125,49.0,492.0,0.0
G,D,"[9, 6]",-1.0,0.0,0.0749809741973877,5.743760108947754,0.5449500210594171,49.0,493.0,0.0
B,L,"[9, 5]",0.0,0.0,0.5268199443817139,1.798565149307251,0.2770331341619609,49.0,494.0,0.0
Y,R,"[9, 6]",0.0,0.0,0.4506211280822754,1.7195069789886475,0.27994811568925293,49.0,495.0,0.0
Y,R,"[9, 7]",0.0,0.0,0.5273199081420898,2.0184848308563232,0.48174504602565243,49.0,496.0,0.0
R,U,"[8, 7]",0.0,0.0,0.17946505546569824,1.859605073928833,0.6744075616667643,49.0,497.0,0.0
R,U,"[7, 7]",0.0,0.0,0.2567601203918457,1.5832321643829346,0.3247051271394,49.0,498.0,0.0
R,U,"[6, 7]",0.0,0.0,0.3976759910583496,2.1027719974517822,0.7105630439381856,49.0,499.0,0.0
B,L,"[6, 6]",0.0,0.0,0.15752696990966797,1.5461368560791016,0.3902525101357055,49.0,500.0,0.0
,,"(6, 6)",,,,,,49.0,,
R,U,"[5, 6]",1.0,1.0,0.3163027763366699,3.3829329013824463,0.35650189659679027,,501.0,0.0
B,L,"[5, 5]",0.0,1.0,0.21257901191711426,1.8485009670257568,0.6382986118755642,50.0,502.0,0.0
G,D,"[6, 5]",0.0,1.0,0.35048699378967285,2.0342071056365967,0.6891958815195888,50.0,503.0,0.0
Y,R,"[6, 6]",0.0,1.0,0.26749610900878906,1.9036879539489746,0.6433368044867832,50.0,504.0,0.0
G,D,"[7, 6]",0.0,1.0,0.19942402839660645,1.8034899234771729,0.6130631055930015,50.0,505.0,0.0
R,U,"[6, 6]",0.0,1.0,0.1875460147857666,1.5706138610839844,0.38407749460438684,50.0,506.0,0.0
Y,R,"[6, 7]",0.0,1.0,0.312960147857666,1.8001689910888672,0.4842465543542417,50.0,507.0,0.0
B,L,"[6, 6]",0.0,1.0,0.24382901191711426,1.6202359199523926,0.3714309979035325,50.0,508.0,0.0
G,D,"[7, 6]",0.0,1.0,0.2664980888366699,1.636749029159546,0.3581543160684087,50.0,509.0,0.0
Y,R,"[7, 7]",0.0,1.0,0.22449994087219238,1.6111769676208496,0.3856568414938296,50.0,510.0,0.0
,,"(6, 6)",,,,,,50.0,,
G,D,"[7, 6]",0.0,0.0,0.8331141471862793,3.894544839859009,0.5469333374475088,,511.0,0.0
Y,R,"[7, 7]",0.0,0.0,0.3136928081512451,1.8775520324707031,0.5580088793067062,51.0,512.0,0.0
R,U,"[6, 7]",0.0,0.0,0.2041001319885254,1.5045139789581299,0.29608469802534476,51.0,513.0,0.0
B,L,"[6, 6]",0.0,0.0,0.30530881881713867,1.8196511268615723,0.5321093760002986,51.0,514.0,0.0
R,U,"[5, 6]",1.0,1.0,0.19350409507751465,1.6787891387939453,0.47772469627860764,51.0,515.0,0.0
Y,R,"[5, 7]",1.0,2.0,0.5403001308441162,2.1205859184265137,0.5813812550977095,51.0,516.0,0.0
G,D,"[6, 7]",0.0,2.0,0.2727999687194824,1.8420391082763672,0.5568865424768413,51.0,517.0,0.0
B,L,"[6, 6]",0.0,2.0,0.1658008098602295,1.8550300598144531,0.6950135337833216,51.0,518.0,0.0
Y,R,"[6, 7]",0.0,2.0,0.2220468521118164,1.7648849487304688,0.5433042256438998,51.0,519.0,0.0
G,D,"[7, 7]",0.0,2.0,0.18717694282531738,1.517509937286377,0.3277994208711415,51.0,520.0,0.0
,,"(6, 6)",,,,,,51.0,,
R,U,"[5, 6]",1.0,1.0,0.4017148017883301,3.2717669010162354,0.649567620739381,,521.0,0.0
Y,R,"[5, 7]",1.0,2.0,0.2539989948272705,1.735856056213379,0.46887041057495465,52.0,522.0,0.0
Y,R,"[5, 8]",1.0,3.0,0.6523628234863281,1.9613068103790283,0.29719314740067476,52.0,523.0,0.0
G,D,"[6, 8]",1.0,4.0,0.38948798179626465,1.8068749904632568,0.40384112942491307,52.0,524.0,0.0
Y,R,"[6, 9]",1.0,5.0,0.24191808700561523,1.7029051780700684,0.45675423034498985,52.0,525.0,0.0
Y,R,"[6, 10]",1.0,6.0,0.18860793113708496,1.5372779369354248,0.34417445134674135,52.0,526.0,0.0
Y,R,"[6, 11]",0.0,6.0,0.8713490962982178,2.613057851791382,0.7402684435951468,52.0,527.0,0.0
G,D,"[7, 11]",0.0,6.0,0.25400590896606445,1.7680599689483643,0.5082875129507203,52.0,528.0,0.0
B,L,"[7, 10]",0.0,6.0,0.19730901718139648,1.6453819274902344,0.45385421661091163,52.0,529.0,0.0
R,U,"[6, 10]",0.0,6.0,0.43232202529907227,2.03694486618042,0.6074251775540991,52.0,530.0,0.0
,,"(6, 6)",,,,,,52.0,,
Y,R,"[6, 7]",0.0,0.0,0.6781730651855469,3.4045069217681885,0.42880364002954213,,531.0,0.0
R,U,"[5, 7]",1.0,1.0,0.21225404739379883,1.6138269901275635,0.4093183141518541,53.0,532.0,0.0
Y,R,"[5, 8]",1.0,2.0,0.23583507537841797,1.685978889465332,0.445351522006983,53.0,533.0,0.0
G,D,"[6, 8]",1.0,3.0,0.2760598659515381,1.809377908706665,0.538139551406354,53.0,534.0,0.0
Y,R,"[6, 9]",1.0,4.0,0.19421005249023438,1.8618929386138916,0.6664798046891482,53.0,535.0,0.0
Y,R,"[6, 10]",1.0,5.0,0.17290902137756348,1.8777518272399902,0.694126932174298,53.0,536.0,0.0
G,D,"[7, 10]",0.0,5.0,0.21634197235107422,1.7313108444213867,0.5254830068022482,53.0,537.0,0.0
B,L,"[7, 9]",0.0,5.0,0.20394515991210938,1.6461398601531982,0.4385223568898166,53.0,538.0,0.0
Y,R,"[7, 10]",0.0,5.0,0.23911690711975098,1.6831669807434082,0.4551675996738953,53.0,539.0,0.0
R,U,"[6, 10]",0.0,5.0,0.1858689785003662,1.522960901260376,0.3449484743592551,53.0,540.0,0.0
,,"(6, 6)",,,,,,53.0,,
Y,R,"[6, 7]",0.0,0.0,0.7102751731872559,3.786384105682373,0.44785845874537467,,541.0,0.0
R,U,"[5, 7]",1.0,1.0,0.2929990291595459,1.8741140365600586,0.571860554518097,54.0,542.0,0.0
Y,R,"[5, 8]",1.0,2.0,0.24171090126037598,1.7565457820892334,0.5117376313118629,54.0,543.0,0.0
Y,R,"[5, 9]",0.0,2.0,0.20710301399230957,1.9416420459747314,0.7364081424783135,54.0,544.0,0.0
G,D,"[6, 9]",1.0,3.0,0.20546817779541016,1.5208210945129395,0.3077467649946552,54.0,545.0,0.0
Y,R,"[6, 10]",1.0,4.0,0.37207984924316406,1.724006175994873,0.36516287017572446,54.0,546.0,0.0
Y,R,"[6, 11]",0.0,4.0,0.45271897315979004,1.995239019393921,0.5268984601610833,54.0,547.0,0.0
G,D,"[7, 11]",0.0,4.0,0.2250051498413086,1.9633769989013672,0.7401216246722555,54.0,548.0,0.0
B,L,"[7, 10]",0.0,4.0,0.35219597816467285,1.9406428337097168,0.5808800688252491,54.0,549.0,0.0
R,U,"[6, 10]",0.0,4.0,0.3610107898712158,1.6884019374847412,0.3195349940734102,54.0,550.0,0.0
,,"(6, 6)",,,,,,54.0,,
Y,R,"[6, 7]",0.0,0.0,0.662294864654541,3.3832719326019287,0.3032847113840358,,551.0,0.0
R,U,"[5, 7]",1.0,1.0,0.2330639362335205,1.5736989974975586,0.32684356616867344,55.0,552.0,0.0
Y,R,"[5, 8]",1.0,2.0,0.295076847076416,1.6629829406738281,0.373184692531465,55.0,553.0,0.0
G,D,"[6, 8]",1.0,3.0,0.22073698043823242,1.551621913909912,0.3245344902524889,55.0,554.0,0.0
B,L,"[6, 7]",0.0,3.0,0.3376319408416748,1.923717975616455,0.5981391183151574,55.0,555.0,0.0
Y,R,"[6, 8]",0.0,3.0,0.17103004455566406,1.81968092918396,0.6511634393370362,55.0,556.0,0.0
G,D,"[7, 8]",-1.0,3.0,0.03751087188720703,5.72828483581543,0.5628970558345836,55.0,557.0,0.0
G,D,"[8, 8]",0.0,3.0,0.6183099746704102,1.9992010593414307,0.3790337394028535,55.0,558.0,0.0
B,L,"[8, 7]",0.0,3.0,0.8620851039886475,2.352555990219116,0.4980979297341163,55.0,559.0,0.0
Y,R,"[8, 8]",0.0,3.0,0.2053050994873047,1.4949610233306885,0.27659393247539477,55.0,560.0,0.0
,,"(6, 6)",,,,,,55.0,,
R,U,"[5, 6]",1.0,1.0,0.851020097732544,4.645539999008179,0.4053962049365578,,561.0,0.0
Y,R,"[5, 7]",1.0,2.0,0.29143285751342773,1.8659000396728516,0.5717829835478483,56.0,562.0,0.0
G,D,"[6, 7]",0.0,2.0,0.21538186073303223,1.5409331321716309,0.3291578990042942,56.0,563.0,0.0
Y,R,"[6, 8]",1.0,3.0,0.580557107925415,2.1918609142303467,0.620795544921869,56.0,564.0,0.0
B,L,"[6, 7]",0.0,3.0,0.2006230354309082,1.653993844985962,0.44168372032137065,56.0,565.0,0.0
Y,R,"[6, 8]",0.0,3.0,0.224761962890625,1.9594509601593018,0.7341564817188333,56.0,566.0,0.0
R,U,"[5, 8]",-1.0,3.0,0.028234004974365234,5.643932104110718,0.4783216138860368,56.0,567.0,0.0
R,U,"[4, 8]",0.0,3.0,0.31898999214172363,1.5654699802398682,0.26068201023521975,56.0,568.0,0.0
B,L,"[4, 7]",0.0,3.0,0.27225708961486816,1.990224838256836,0.7172314018231027,56.0,569.0,0.0
Y,R,"[4, 8]",0.0,3.0,0.21567702293395996,1.9562599658966064,0.7400546214814523,56.0,570.0,0.0
,,"(6, 6)",,,,,,56.0,,
Y,R,"[6, 7]",-2.0,0.0,1.2753398418426514,4.251209020614624,0.4419511687382173,,571.0,0.0
Y,R,"[6, 8]",1.0,1.0,0.30689191818237305,1.9994518756866455,0.6913874971345431,57.0,572.0,0.0
G,D,"[7, 8]",0.0,1.0,0.25267601013183594,1.4945249557495117,0.2527474673124122,57.0,573.0,0.0
Y,R,"[7, 9]",0.0,1.0,0.24753499031066895,1.9932479858398438,0.7454016839845966,57.0,574.0,0.0
R,U,"[6, 9]",1.0,2.0,0.1944870948791504,1.5925869941711426,0.40503597582996,57.0,575.0,0.0
R,U,"[5, 9]",0.0,2.0,0.23259902000427246,1.5822839736938477,0.35410301959658663,57.0,576.0,0.0
B,L,"[5, 8]",1.0,3.0,0.8133578300476074,2.540402889251709,0.7107500474167393,57.0,577.0,0.0
G,D,"[6, 8]",0.0,3.0,0.3209419250488281,2.0663180351257324,0.7436906925035269,57.0,578.0,0.0
Y,R,"[6, 9]",0.0,3.0,0.19231200218200684,1.5771911144256592,0.38804720625438655,57.0,579.0,0.0
G,D,"[7, 9]",0.0,3.0,0.34389281272888184,1.709632158279419,0.3644614664516741,57.0,580.0,0.0
,,"(6, 6)",,,,,,57.0,,
Y,R,"[6, 7]",-2.0,0.0,1.328131914138794,5.888338088989258,0.4027865597864493,,581.0,0.0
Y,R,"[6, 8]",1.0,1.0,0.23153400421142578,1.586470127105713,0.33946384521832945,58.0,582.0,0.0
R,U,"[5, 8]",1.0,2.0,0.22409796714782715,1.9390349388122559,0.7114184177822106,58.0,583.0,0.0
G,D,"[6, 8]",0.0,2.0,0.1276688575744629,1.7114319801330566,0.5898548626523406,58.0,584.0,0.0
Y,R,"[6, 9]",1.0,3.0,0.5862710475921631,2.254380941390991,0.6605666895909666,58.0,585.0,0.0
G,D,"[7, 9]",0.0,3.0,0.47017884254455566,1.8453519344329834,0.3728639965686468,58.0,586.0,0.0
Y,R,"[7, 10]",0.0,3.0,0.26574087142944336,1.6072568893432617,0.3467330588324598,58.0,587.0,0.0
B,L,"[7, 9]",0.0,3.0,0.2486732006072998,1.8580708503723145,0.6046013013491428,58.0,588.0,0.0
B,L,"[7, 8]",0.0,3.0,0.20575904846191406,1.8912320137023926,0.6792860560192724,58.0,589.0,0.0
G,D,"[8, 8]",0.0,3.0,0.4187619686126709,2.0420100688934326,0.621363374779266,58.0,590.0,0.0
,,"(6, 6)",,,,,,58.0,,
R,U,"[5, 6]",1.0,1.0,0.7464430332183838,11.209587097167969,0.38131795522768824,,591.0,0.0
Y,R,"[5, 7]",1.0,2.0,0.25007009506225586,1.629986047744751,0.3614041124008839,59.0,592.0,0.0
G,D,"[6, 7]",0.0,2.0,0.36568307876586914,2.000622034072876,0.6449853283029752,59.0,593.0,0.0
Y,R,"[6, 8]",1.0,3.0,0.35576510429382324,1.8492510318756104,0.4945754864994086,59.0,594.0,0.0
Y,R,"[6, 9]",1.0,4.0,0.17575311660766602,1.5004658699035645,0.328390237987128,59.0,595.0,0.0
G,D,"[7, 9]",0.0,4.0,0.2847578525543213,1.947281837463379,0.6757028867584463,59.0,596.0,0.0
Y,R,"[7, 10]",0.0,4.0,0.17400312423706055,1.7203059196472168,0.5458316459745063,59.0,597.0,0.0
R,U,"[6, 10]",1.0,5.0,0.22454309463500977,1.6594798564910889,0.4221951234169609,59.0,598.0,0.0
Y,R,"[6, 11]",0.0,5.0,0.3037571907043457,1.5775809288024902,0.2666445766995662,59.0,599.0,0.0
R,U,"[5, 11]",0.0,5.0,0.36385107040405273,1.8586459159851074,0.49171080001403583,59.0,600.0,0.0
,,"(6, 6)",,,,,,59.0,,
R,U,"[5, 6]",1.0,1.0,0.8202080726623535,5.1809680461883545,0.27318428556077906,,601.0,0.0
Y,R,"[5, 7]",1.0,2.0,0.3631579875946045,2.039760112762451,0.6791884386316187,60.0,602.0,0.0
R,U,"[4, 7]",0.0,2.0,0.20023107528686523,1.9054090976715088,0.7011756637079918,60.0,603.0,0.0
B,L,"[4, 6]",0.0,2.0,0.20343995094299316,1.8052740097045898,0.5899417505223021,60.0,604.0,0.0
G,D,"[5, 6]",0.0,2.0,0.23122787475585938,1.8299710750579834,0.6032709821565896,60.0,605.0,0.0
Y,R,"[5, 7]",0.0,2.0,0.20878100395202637,1.4755301475524902,0.26251031797496055,60.0,606.0,0.0
Y,R,"[5, 8]",1.0,3.0,0.3505380153656006,2.0797650814056396,0.7250918211843201,60.0,607.0,0.0
G,D,"[6, 8]",1.0,4.0,0.1832871437072754,1.7520959377288818,0.5607476956179696,60.0,608.0,0.0
Y,R,"[6, 9]",1.0,5.0,0.1672360897064209,1.5968048572540283,0.4243999906385975,60.0,609.0,0.0
Y,R,"[6, 10]",1.0,6.0,0.18926715850830078,1.9341790676116943,0.7415910522536833,60.0,610.0,0.0
,,"(6, 6)",,,,,,60.0,,
R,U,"[5, 6]",1.0,1.0,0.875546932220459,5.662801027297974,0.4048030469668952,,611.0,0.0
Y,R,"[5, 7]",1.0,2.0,0.28055500984191895,1.6664869785308838,0.3883251509833076,61.0,612.0,0.0
G,D,"[6, 7]",0.0,2.0,0.523543119430542,2.151293992996216,0.6225567802431771,61.0,613.0,0.0
Y,R,"[6, 8]",1.0,3.0,0.1960148811340332,1.5496869087219238,0.3557285131682175,61.0,614.0,0.0
G,D,"[7, 8]",0.0,3.0,0.546159029006958,2.0974597930908203,0.5531665468643889,61.0,615.0,0.0
Y,R,"[7, 9]",0.0,3.0,0.15720295906066895,1.854475975036621,0.6907854255703649,61.0,616.0,0.0
R,U,"[6, 9]",1.0,4.0,0.19837498664855957,1.5774030685424805,0.3853600926794354,61.0,617.0,0.0
B,L,"[6, 8]",0.0,4.0,0.30451393127441406,2.0119330883026123,0.6970407397055919,61.0,618.0,0.0
Y,R,"[6, 9]",0.0,4.0,0.44234681129455566,2.1822972297668457,0.7291124683919622,61.0,619.0,0.0
Y,R,"[6, 10]",-1.0,4.0,0.03028106689453125,5.791339159011841,0.6205615304770447,61.0,620.0,0.0
,,"(6, 6)",,,,,,61.0,,
R,U,"[5, 6]",1.0,1.0,0.5831661224365234,3.794891119003296,0.3327975215724566,,621.0,0.0
Y,R,"[5, 7]",1.0,2.0,0.23492002487182617,1.8048350811004639,0.554102764826041,62.0,622.0,0.0
G,D,"[6, 7]",0.0,2.0,0.31782007217407227,1.8886408805847168,0.5592531269195882,62.0,623.0,0.0
Y,R,"[6, 8]",1.0,3.0,0.18810081481933594,1.74835205078125,0.5575951814204366,62.0,624.0,0.0
B,L,"[6, 7]",0.0,3.0,0.2600588798522949,1.9400789737701416,0.6809030091986507,62.0,625.0,0.0
Y,R,"[6, 8]",0.0,3.0,0.1818079948425293,1.4830901622772217,0.2975701637866015,62.0,626.0,0.0
G,D,"[7, 8]",0.0,3.0,0.29369616508483887,1.8532459735870361,0.5507613393430213,62.0,627.0,0.0
R,U,"[6, 8]",0.0,3.0,0.19745206832885742,1.7305941581726074,0.5314161877438042,62.0,628.0,0.0
B,L,"[6, 7]",0.0,3.0,0.22537493705749512,1.5116760730743408,0.27688580150203806,62.0,629.0,0.0
Y,R,"[6, 8]",0.0,3.0,0.22971200942993164,1.8398330211639404,0.6161301148759033,62.0,630.0,0.0
,,"(6, 6)",,,,,,62.0,,
Y,R,"[6, 7]",0.0,0.0,0.5941731929779053,4.03909707069397,0.4057064843249038,,631.0,0.0
R,U,"[5, 7]",1.0,1.0,0.19047999382019043,1.8455889225006104,0.651059532775454,63.0,632.0,0.0
Y,R,"[5, 8]",1.0,2.0,0.20131897926330566,1.5969879627227783,0.3982262671919789,63.0,633.0,0.0
Y,R,"[5, 9]",0.0,2.0,0.3651430606842041,1.9685418605804443,0.6001152258466336,63.0,634.0,0.0
G,D,"[6, 9]",1.0,3.0,0.2238600254058838,1.7106380462646484,0.4774639728494432,63.0,635.0,0.0
Y,R,"[6, 10]",1.0,4.0,0.27391600608825684,1.850097894668579,0.5776174732268611,63.0,636.0,0.0
Y,R,"[6, 11]",0.0,4.0,0.7289719581604004,2.179266929626465,0.4569234508766437,63.0,637.0,0.0
G,D,"[7, 11]",0.0,4.0,0.27471208572387695,1.7556660175323486,0.47934969668198146,63.0,638.0,0.0
Y,R,"[7, 12]",-3.0,4.0,0.25119495391845703,1.837864875793457,0.5837387501354402,63.0,639.0,0.0
Y,R,"[7, 11]",0.0,4.0,0.1229400634765625,1.506842851638794,0.3741171148283712,63.0,640.0,0.0
,,"(6, 6)",,,,,,63.0,,
R,U,"[5, 6]",1.0,1.0,0.6646161079406738,4.609896898269653,0.700561893972329,,641.0,0.0
B,L,"[5, 5]",0.0,1.0,0.6301019191741943,2.2290849685668945,0.5962789814837197,64.0,642.0,0.0
Y,R,"[5, 6]",0.0,1.0,0.23123717308044434,1.6003820896148682,0.36363624081622753,64.0,643.0,0.0
R,U,"[4, 6]",0.0,1.0,0.2051990032196045,1.8623709678649902,0.6423365883473959,64.0,644.0,0.0
Y,R,"[4, 7]",0.0,1.0,0.11652898788452148,1.5578129291534424,0.45032404579981516,64.0,645.0,0.0
B,L,"[4, 6]",0.0,1.0,0.17850995063781738,1.5134129524230957,0.33055299707992913,64.0,646.0,0.0
G,D,"[5, 6]",0.0,1.0,0.27428102493286133,1.6553981304168701,0.3692052089370144,64.0,647.0,0.0
Y,R,"[5, 7]",1.0,2.0,0.3174431324005127,1.8252720832824707,0.49449593661531643,64.0,648.0,0.0
Y,R,"[5, 8]",1.0,3.0,0.20342111587524414,1.5818030834197998,0.37648266732463265,64.0,649.0,0.0
Y,R,"[5, 9]",0.0,3.0,0.22347784042358398,1.8785929679870605,0.6547447170516829,64.0,650.0,0.0
,,"(6, 6)",,,,,,64.0,,
R,U,"[5, 6]",1.0,1.0,0.30153894424438477,3.3935258388519287,0.43180483236104283,,651.0,0.0
Y,R,"[5, 7]",1.0,2.0,0.20874691009521484,1.8799960613250732,0.6615939374953784,65.0,652.0,0.0
Y,R,"[5, 8]",1.0,3.0,0.11749696731567383,1.7274830341339111,0.6059245639744255,65.0,653.0,0.0
G,D,"[6, 8]",1.0,4.0,0.25705599784851074,1.926927089691162,0.6661431027454274,65.0,654.0,0.0
Y,R,"[6, 9]",1.0,5.0,0.20130205154418945,1.693566083908081,0.4765717070047702,65.0,655.0,0.0
R,U,"[5, 9]",0.0,5.0,0.22065520286560059,1.5023021697998047,0.2789985555876116,65.0,656.0,0.0
Y,R,"[5, 10]",1.0,6.0,0.29550600051879883,1.8423280715942383,0.5544600590636224,65.0,657.0,0.0
Y,R,"[5, 11]",0.0,6.0,0.22084808349609375,1.8853671550750732,0.6563722688854193,65.0,658.0,0.0
B,L,"[5, 10]",0.0,6.0,0.31157684326171875,1.97855806350708,0.6683051491929082,65.0,659.0,0.0
R,U,"[4, 10]",1.0,7.0,0.30473995208740234,1.5924010276794434,0.29453702295957335,65.0,660.0,0.0
,,"(6, 6)",,,,,,65.0,,
R,U,"[5, 6]",1.0,1.0,0.5067789554595947,4.47962498664856,0.27428377526589404,,661.0,0.0
Y,R,"[5, 7]",1.0,2.0,0.20169687271118164,1.6709818840026855,0.46156457257128836,66.0,662.0,0.0
Y,R,"[5, 8]",1.0,3.0,0.3024020195007324,1.9598338603973389,0.654782723359336,66.0,663.0,0.0
G,D,"[6, 8]",1.0,4.0,0.18068408966064453,1.52150297164917,0.3432829661614721,66.0,664.0,0.0
B,L,"[6, 7]",0.0,4.0,0.3729071617126465,1.9009201526641846,0.5273079714958121,66.0,665.0,0.0
Y,R,"[6, 8]",0.0,4.0,0.1832280158996582,1.7162280082702637,0.5436219823782255,66.0,666.0,0.0
Y,R,"[6, 9]",1.0,5.0,0.16635489463806152,1.4773550033569336,0.3045676337002444,66.0,667.0,0.0
Y,R,"[6, 10]",1.0,6.0,0.5729649066925049,2.2344610691070557,0.6553388877380979,66.0,668.0,0.0
R,U,"[5, 10]",1.0,7.0,0.3786890506744385,1.901271104812622,0.5069406237364521,66.0,669.0,0.0
B,L,"[5, 9]",0.0,7.0,0.346235990524292,2.024151086807251,0.6809322077833139,66.0,670.0,0.0
,,"(6, 6)",,,,,,66.0,,
Y,R,"[6, 7]",0.0,0.0,0.505403995513916,4.715739011764526,0.31346377524503005,,671.0,0.0
R,U,"[5, 7]",-1.0,0.0,0.037367820739746094,5.642268896102905,0.4723799335391599,67.0,672.0,0.0
R,U,"[4, 7]",0.0,0.0,0.19391512870788574,1.6218149662017822,0.4277159803311598,67.0,673.0,0.0
Y,R,"[4, 8]",0.0,0.0,0.20648813247680664,1.8115010261535645,0.6056405885959066,67.0,674.0,0.0
R,U,"[3, 8]",0.0,0.0,0.2798421382904053,1.7808659076690674,0.5032730001464418,67.0,675.0,0.0
Y,R,"[3, 9]",1.0,1.0,0.3288130760192871,1.584947109222412,0.25539428121303187,67.0,676.0,0.0
Y,R,"[3, 10]",0.0,1.0,0.3561840057373047,1.938122034072876,0.5765328267565113,67.0,677.0,0.0
B,L,"[3, 9]",0.0,1.0,0.4319190979003906,2.14615797996521,0.7226116968666791,67.0,678.0,0.0
G,D,"[4, 9]",1.0,2.0,0.16997408866882324,1.739098072052002,0.5618612191869314,67.0,679.0,0.0
G,D,"[5, 9]",0.0,2.0,0.20470690727233887,1.8957951068878174,0.6909446275506205,67.0,680.0,0.0
,,"(6, 6)",,,,,,67.0,,
R,U,"[5, 6]",1.0,1.0,0.9960660934448242,5.255287170410156,0.5962869371285853,,681.0,0.0
Y,R,"[5, 7]",1.0,2.0,0.19227290153503418,1.7390799522399902,0.5355164971029437,68.0,682.0,0.0
Y,R,"[5, 8]",1.0,3.0,0.1257469654083252,1.71726393699646,0.586062201988,68.0,683.0,0.0
G,D,"[6, 8]",1.0,4.0,0.4217078685760498,1.7918729782104492,0.3615072659844012,68.0,684.0,0.0
Y,R,"[6, 9]",1.0,5.0,0.3094460964202881,1.6607420444488525,0.3556899957501635,68.0,685.0,0.0
Y,R,"[6, 10]",1.0,6.0,0.21970701217651367,1.9642491340637207,0.7362573655721425,68.0,686.0,0.0
Y,R,"[6, 11]",0.0,6.0,0.33115696907043457,1.7893650531768799,0.4593393636107319,68.0,687.0,0.0
G,D,"[7, 11]",0.0,6.0,0.3105030059814453,1.859847068786621,0.5524347790972292,68.0,688.0,0.0
B,L,"[7, 10]",0.0,6.0,0.35776400566101074,1.9749767780303955,0.6104137950461104,68.0,689.0,0.0
Y,R,"[7, 11]",0.0,6.0,0.37827396392822266,1.8459858894348145,0.47327140273697255,68.0,690.0,0.0
,,"(6, 6)",,,,,,68.0,,
Y,R,"[6, 7]",0.0,0.0,0.6951830387115479,4.673878908157349,0.6969449730867028,,691.0,0.0
R,U,"[5, 7]",-1.0,0.0,0.030397891998291016,5.906352996826172,0.7367969970509964,69.0,692.0,0.0
B,L,"[5, 6]",-2.0,0.0,1.1445879936218262,2.5520310401916504,0.3723892172246935,69.0,693.0,0.0
G,D,"[6, 6]",0.0,0.0,0.323606014251709,1.981245994567871,0.6534650474803151,69.0,694.0,0.0
Y,R,"[6, 7]",0.0,0.0,0.2052929401397705,1.7944588661193848,0.5815187317995039,69.0,695.0,0.0
R,U,"[5, 7]",0.0,0.0,0.18503189086914062,1.8631868362426758,0.6612075305164701,69.0,696.0,0.0
B,L,"[5, 6]",0.0,0.0,0.7743110656738281,2.1856369972229004,0.4139319309714883,69.0,697.0,0.0
G,D,"[6, 6]",0.0,0.0,0.2743551731109619,1.6855659484863281,0.3994528369382926,69.0,698.0,0.0
G,D,"[7, 6]",0.0,0.0,0.41964101791381836,1.739872932434082,0.30602412921066313,69.0,699.0,0.0
Y,R,"[7, 7]",0.0,0.0,0.25281190872192383,1.495574951171875,0.25163643805447133,69.0,700.0,0.0
,,"(6, 6)",,,,,,69.0,,
R,U,"[5, 6]",1.0,1.0,0.5903449058532715,4.1898229122161865,0.27479279429504305,,701.0,0.0
Y,R,"[5, 7]",1.0,2.0,0.3353300094604492,1.7527639865875244,0.41082314959266103,70.0,702.0,0.0
Y,R,"[5, 8]",1.0,3.0,0.3347351551055908,1.632606029510498,0.2937647014964252,70.0,703.0,0.0
G,D,"[6, 8]",1.0,4.0,0.34311699867248535,1.9808919429779053,0.64089208135671,70.0,704.0,0.0
Y,R,"[6, 9]",1.0,5.0,0.36216306686401367,2.0260541439056396,0.6669987130849,70.0,705.0,0.0
R,U,"[5, 9]",0.0,5.0,0.1937868595123291,1.7544970512390137,0.5548568956100752,70.0,706.0,0.0
B,L,"[5, 8]",0.0,5.0,0.27422118186950684,1.590264081954956,0.3122532716122319,70.0,707.0,0.0
G,D,"[6, 8]",0.0,5.0,0.3917820453643799,1.7036528587341309,0.3157281476139135,70.0,708.0,0.0
Y,R,"[6, 9]",0.0,5.0,0.26926517486572266,1.8216760158538818,0.5372619384366184,70.0,709.0,0.0
Y,R,"[6, 10]",1.0,6.0,0.20168495178222656,1.6152441501617432,0.4027873168444189,70.0,710.0,0.0
,,"(6, 6)",,,,,,70.0,,
R,U,"[5, 6]",1.0,1.0,0.4398059844970703,5.606268882751465,0.2924083263404159,,711.0,0.0
Y,R,"[5, 7]",1.0,2.0,0.23001909255981445,1.865070104598999,0.6406354179021498,71.0,712.0,0.0
G,D,"[6, 7]",0.0,2.0,0.4135291576385498,2.1498661041259766,0.7404095210521673,71.0,713.0,0.0
Y,R,"[6, 8]",1.0,3.0,0.19670796394348145,1.7063090801239014,0.513529627773591,71.0,714.0,0.0
G,D,"[7, 8]",0.0,3.0,0.18588709831237793,1.673919916152954,0.4709856100853955,71.0,715.0,0.0
Y,R,"[7, 9]",0.0,3.0,0.21907806396484375,1.8779959678649902,0.6487289589338396,71.0,716.0,0.0
B,L,"[7, 8]",0.0,3.0,0.19846510887145996,1.8940730094909668,0.6928755687735649,71.0,717.0,0.0
R,U,"[6, 8]",0.0,3.0,0.24469900131225586,1.777637004852295,0.537431301083523,71.0,718.0,0.0
Y,R,"[6, 9]",1.0,4.0,0.19147706031799316,1.5906758308410645,0.3947618337258276,71.0,719.0,0.0
Y,R,"[6, 10]",1.0,5.0,0.1403510570526123,1.673421859741211,0.5347605570159114,71.0,720.0,0.0
,,"(6, 6)",,,,,,71.0,,
R,U,"[5, 6]",1.0,1.0,0.45670104026794434,4.093649864196777,0.5950882434155886,,721.0,0.0
Y,R,"[5, 7]",1.0,2.0,0.2643249034881592,1.686633825302124,0.4319998725899309,72.0,722.0,0.0
Y,R,"[5, 8]",1.0,3.0,0.5083560943603516,1.9394550323486328,0.42136253482586494,72.0,723.0,0.0
G,D,"[6, 8]",1.0,4.0,0.46175384521484375,1.9713170528411865,0.5093724339356847,72.0,724.0,0.0
Y,R,"[6, 9]",1.0,5.0,0.3709721565246582,1.8963959217071533,0.5223724506885186,72.0,725.0,0.0
G,D,"[7, 9]",0.0,5.0,0.5690999031066895,2.1787359714508057,0.6011850601931024,72.0,726.0,0.0
Y,R,"[7, 10]",0.0,5.0,0.22956085205078125,1.7407970428466797,0.5085550562549341,72.0,727.0,0.0
R,U,"[6, 10]",1.0,6.0,0.22149419784545898,1.6779429912567139,0.45342419092574804,72.0,728.0,0.0
B,L,"[6, 9]",0.0,6.0,0.21072888374328613,1.9005670547485352,0.6870634429041867,72.0,729.0,0.0
Y,R,"[6, 10]",0.0,6.0,0.4552600383758545,1.8133490085601807,0.3511906743273498,72.0,730.0,0.0
,,"(6, 6)",,,,,,72.0,,
R,U,"[5, 6]",1.0,1.0,0.501723051071167,3.6671390533447266,0.4845765657602002,,731.0,0.0
Y,R,"[5, 7]",-1.0,1.0,0.0711519718170166,5.558452844619751,0.359936542245899,73.0,732.0,0.0
Y,R,"[5, 8]",1.0,2.0,0.24730992317199707,1.5185389518737793,0.2784783672519016,73.0,733.0,0.0
Y,R,"[5, 9]",-2.0,2.0,1.1287240982055664,2.7659730911254883,0.6108125686550036,73.0,734.0,0.0
Y,R,"[5, 10]",1.0,3.0,0.19146203994750977,1.56256103515625,0.35697273714860683,73.0,735.0,0.0
G,D,"[6, 10]",1.0,4.0,0.3046598434448242,2.034289836883545,0.7243560732966653,73.0,736.0,0.0
Y,R,"[6, 11]",-1.0,4.0,0.07864809036254883,5.678714990615845,0.46995141537263807,73.0,737.0,0.0
Y,R,"[6, 12]",-3.0,4.0,0.24006414413452148,1.7606711387634277,0.5139662912672873,73.0,738.0,0.0
Y,R,"[6, 11]",-1.0,4.0,0.09865307807922363,5.82497501373291,0.5889412879891233,73.0,739.0,0.0
Y,R,"[6, 12]",-3.0,4.0,0.24704599380493164,1.6198089122772217,0.3756633216323964,73.0,740.0,0.0
,,"(6, 6)",,,,,,73.0,,
R,U,"[5, 6]",1.0,1.0,0.372967004776001,14.30834412574768,0.3509290897632421,,741.0,0.0
Y,R,"[5, 7]",1.0,2.0,0.17420101165771484,1.9015741348266602,0.7189965012440809,74.0,742.0,0.0
Y,R,"[5, 8]",-1.0,2.0,0.06090497970581055,5.60027813911438,0.40291140111454404,74.0,743.0,0.0
Y,R,"[5, 9]",0.0,2.0,0.4024198055267334,2.015212059020996,0.6012389944920418,74.0,744.0,0.0
G,D,"[6, 9]",-2.0,2.0,1.0495069026947021,2.346217155456543,0.2644952286518391,74.0,745.0,0.0
G,D,"[7, 9]",0.0,2.0,0.24681997299194336,1.9924910068511963,0.739912042712012,74.0,746.0,0.0
Y,R,"[7, 10]",0.0,2.0,0.19669580459594727,1.536607027053833,0.34369727050987936,74.0,747.0,0.0
Y,R,"[7, 11]",0.0,2.0,0.22140717506408691,1.8228490352630615,0.5994680963198695,74.0,748.0,0.0
R,U,"[6, 11]",0.0,2.0,0.20035195350646973,1.938694953918457,0.73814921804744,74.0,749.0,0.0
R,U,"[5, 11]",0.0,2.0,0.16785502433776855,1.6451740264892578,0.48347644384142296,74.0,750.0,0.0
,,"(6, 6)",,,,,,74.0,,
R,U,"[5, 6]",1.0,1.0,0.8513169288635254,4.296892881393433,0.730232514779011,,751.0,0.0
Y,R,"[5, 7]",1.0,2.0,0.25427699089050293,1.8072998523712158,0.5377900287042294,75.0,752.0,0.0
Y,R,"[5, 8]",1.0,3.0,0.33751988410949707,1.8394339084625244,0.4940190938085553,75.0,753.0,0.0
G,D,"[6, 8]",1.0,4.0,0.3666961193084717,1.6758930683135986,0.30337684918522667,75.0,754.0,0.0
Y,R,"[6, 9]",1.0,5.0,0.35919713973999023,2.0070769786834717,0.6434546131833325,75.0,755.0,0.0
Y,R,"[6, 10]",1.0,6.0,0.1077280044555664,1.6863141059875488,0.5798600782417533,75.0,756.0,0.0
R,U,"[5, 10]",1.0,7.0,0.2826821804046631,1.7326769828796387,0.42939061179503146,75.0,757.0,0.0
B,L,"[5, 9]",0.0,7.0,0.2523798942565918,1.8239009380340576,0.5532931296316694,75.0,758.0,0.0
Y,R,"[5, 10]",0.0,7.0,0.2933940887451172,1.627842903137207,0.33128319397297684,75.0,759.0,0.0
G,D,"[6, 10]",0.0,7.0,0.28622984886169434,1.801015853881836,0.4988078390719371,75.0,760.0,0.0
,,"(6, 6)",,,,,,75.0,,
Y,R,"[6, 7]",0.0,0.0,0.9988889694213867,4.068879842758179,0.5509416799471661,,761.0,0.0
R,U,"[5, 7]",1.0,1.0,0.27971482276916504,1.578536033630371,0.2965011883468933,76.0,762.0,0.0
Y,R,"[5, 8]",1.0,2.0,0.33171916007995605,2.0820059776306152,0.7282228096300005,76.0,763.0,0.0
Y,R,"[5, 9]",0.0,2.0,0.17632508277893066,1.6835589408874512,0.5121599734332622,76.0,764.0,0.0
Y,R,"[5, 10]",1.0,3.0,0.634864091873169,2.1154191493988037,0.47729987597900636,76.0,765.0,0.0
Y,R,"[5, 11]",0.0,3.0,0.4364750385284424,1.7788121700286865,0.33969802690493667,76.0,766.0,0.0
R,U,"[4, 11]",0.0,3.0,0.4979851245880127,2.1722629070281982,0.6783175421971459,76.0,767.0,0.0
R,U,"[3, 11]",0.0,3.0,0.12865805625915527,1.7722110748291016,0.6506299714022377,76.0,768.0,0.0
B,L,"[3, 10]",0.0,3.0,0.3008139133453369,1.6955499649047852,0.3964861903652854,76.0,769.0,0.0
Y,R,"[3, 11]",0.0,3.0,0.4603230953216553,2.0386879444122314,0.5684395947502028,76.0,770.0,0.0
,,"(6, 6)",,,,,,76.0,,
R,U,"[5, 6]",1.0,1.0,0.42615199089050293,3.420909881591797,0.5226776062811734,,771.0,0.0
Y,R,"[5, 7]",1.0,2.0,0.16452908515930176,1.567878007888794,0.4074978300150634,77.0,772.0,0.0
Y,R,"[5, 8]",1.0,3.0,0.3147239685058594,1.8817439079284668,0.5556269060122778,77.0,773.0,0.0
G,D,"[6, 8]",1.0,4.0,0.21967196464538574,1.8408188819885254,0.6133324151504713,77.0,774.0,0.0
Y,R,"[6, 9]",-1.0,4.0,0.06606292724609375,5.765970945358276,0.5626563269245308,77.0,775.0,0.0
Y,R,"[6, 10]",1.0,5.0,0.24956393241882324,1.9871749877929688,0.7161763444211979,77.0,776.0,0.0
R,U,"[5, 10]",1.0,6.0,0.2337019443511963,1.7629029750823975,0.5127726192819044,77.0,777.0,0.0
R,U,"[4, 10]",1.0,7.0,0.27521300315856934,1.614833116531372,0.32780079466961654,77.0,778.0,0.0
B,L,"[4, 9]",1.0,8.0,0.7902472019195557,2.065268039703369,0.2765881275448598,77.0,779.0,0.0
G,D,"[5, 9]",0.0,8.0,0.5257048606872559,2.267490863800049,0.743611377617512,77.0,780.0,0.0
,,"(6, 6)",,,,,,77.0,,
Y,R,"[6, 7]",-2.0,0.0,1.2138431072235107,4.789438009262085,0.5501354200613604,,781.0,0.0
Y,R,"[6, 8]",1.0,1.0,0.47685694694519043,1.9406249523162842,0.4574911001040889,78.0,782.0,0.0
Y,R,"[6, 9]",1.0,2.0,0.22914505004882812,1.6751899719238281,0.44920737458442433,78.0,783.0,0.0
G,D,"[7, 9]",0.0,2.0,0.2159409523010254,1.937690019607544,0.7199688877729866,78.0,784.0,0.0
Y,R,"[7, 10]",0.0,2.0,0.19572091102600098,1.5419528484344482,0.3457087563719372,78.0,785.0,0.0
R,U,"[6, 10]",1.0,3.0,0.29512715339660645,1.6047680377960205,0.31706810267115415,78.0,786.0,0.0
R,U,"[5, 10]",1.0,4.0,0.2323620319366455,1.6561400890350342,0.4065333911491464,78.0,787.0,0.0
B,L,"[5, 9]",0.0,4.0,0.5157921314239502,1.8743371963500977,0.3644375441615352,78.0,788.0,0.0
R,U,"[4, 9]",1.0,5.0,0.6180250644683838,2.066754102706909,0.4310410926677459,78.0,789.0,0.0
R,U,"[3, 9]",1.0,6.0,0.2835540771484375,1.60178804397583,0.2995622765114176,78.0,790.0,0.0
,,"(6, 6)",,,,,,78.0,,
R,U,"[5, 6]",1.0,1.0,0.9812219142913818,7.558229923248291,0.2581293343020197,,791.0,0.0
Y,R,"[5, 7]",1.0,2.0,0.29097604751586914,1.6564791202545166,0.364622893402014,79.0,792.0,0.0
Y,R,"[5, 8]",1.0,3.0,0.20528411865234375,1.778825044631958,0.5597908929331705,79.0,793.0,0.0
G,D,"[6, 8]",1.0,4.0,0.4727509021759033,2.2202630043029785,0.7466626467968198,79.0,794.0,0.0
Y,R,"[6, 9]",1.0,5.0,0.18947601318359375,1.8096070289611816,0.6063763585802441,79.0,795.0,0.0
R,U,"[5, 9]",0.0,5.0,0.1756591796875,1.5211350917816162,0.3445707646850733,79.0,796.0,0.0
R,U,"[4, 9]",1.0,6.0,0.2539200782775879,1.7211298942565918,0.4656733359193846,79.0,797.0,0.0
R,U,"[3, 9]",1.0,7.0,0.28637003898620605,1.727569818496704,0.4266151279997736,79.0,798.0,0.0
B,L,"[3, 8]",0.0,7.0,0.3149299621582031,1.8559958934783936,0.5489513026775623,79.0,799.0,0.0
R,U,"[2, 8]",0.0,7.0,0.1855318546295166,1.8739988803863525,0.6730526553489549,79.0,800.0,0.0
,,"(6, 6)",,,,,,79.0,,
R,U,"[5, 6]",-2.0,0.0,1.4587209224700928,5.295222043991089,0.5851314553335639,,801.0,0.0
Y,R,"[5, 7]",1.0,1.0,0.19571495056152344,1.5196359157562256,0.32151267412057316,80.0,802.0,0.0
Y,R,"[5, 8]",1.0,2.0,0.32337307929992676,1.9652621746063232,0.6365623665499318,80.0,803.0,0.0
G,D,"[6, 8]",1.0,3.0,0.23159384727478027,1.7685599327087402,0.5219695889736388,80.0,804.0,0.0
Y,R,"[6, 9]",1.0,4.0,0.21826791763305664,1.5459628105163574,0.3182293167412334,80.0,805.0,0.0
R,U,"[5, 9]",0.0,4.0,0.23595714569091797,1.8441429138183594,0.5955651019900693,80.0,806.0,0.0
R,U,"[4, 9]",-1.0,4.0,0.041275978088378906,5.8832619190216064,0.728719575217691,80.0,807.0,0.0
R,U,"[3, 9]",1.0,5.0,0.38701391220092773,1.7389779090881348,0.3512853016924767,80.0,808.0,0.0
B,L,"[3, 8]",0.0,5.0,0.7835960388183594,2.1514780521392822,0.3694155026037307,80.0,809.0,0.0
B,L,"[3, 7]",0.0,5.0,0.19218111038208008,1.7958431243896484,0.5983159268508973,80.0,810.0,0.0
,,"(6, 6)",,,,,,80.0,,
R,U,"[5, 6]",-2.0,0.0,1.2467560768127441,4.857330799102783,0.6725050346686159,,811.0,0.0
Y,R,"[5, 7]",1.0,1.0,0.3102707862854004,1.8732059001922607,0.5623408733769112,81.0,812.0,0.0
Y,R,"[5, 8]",1.0,2.0,0.297868013381958,1.7777528762817383,0.47356810373469616,81.0,813.0,0.0
B,L,"[5, 7]",0.0,2.0,0.35625696182250977,2.0084590911865234,0.648639580148922,81.0,814.0,0.0
Y,R,"[5, 8]",0.0,2.0,0.3969271183013916,2.1501219272613525,0.7485303100897719,81.0,815.0,0.0
R,U,"[4, 8]",0.0,2.0,0.239854097366333,1.517388105392456,0.2664397580500735,81.0,816.0,0.0
G,D,"[5, 8]",0.0,2.0,0.22458600997924805,1.7103371620178223,0.47666341385175653,81.0,817.0,0.0
B,L,"[5, 7]",0.0,2.0,0.15936708450317383,1.4251680374145508,0.26880319335840847,81.0,818.0,0.0
B,L,"[5, 6]",0.0,2.0,0.2298140525817871,1.7709200382232666,0.5393100381761864,81.0,819.0,0.0
B,L,"[5, 5]",0.0,2.0,0.45160412788391113,2.16444993019104,0.7204178199047422,81.0,820.0,0.0
,,"(6, 6)",,,,,,81.0,,
R,U,"[5, 6]",1.0,1.0,0.778649091720581,10.428309917449951,0.5489839235371412,,821.0,0.0
Y,R,"[5, 7]",1.0,2.0,0.22174715995788574,1.512794017791748,0.27894589383096835,82.0,822.0,0.0
Y,R,"[5, 8]",1.0,3.0,0.3218419551849365,1.6432039737701416,0.32193896611117756,82.0,823.0,0.0
G,D,"[6, 8]",1.0,4.0,0.31278300285339355,2.0612971782684326,0.7496066475642069,82.0,824.0,0.0
Y,R,"[6, 9]",1.0,5.0,0.17076396942138672,1.803636074066162,0.6199035423910386,82.0,825.0,0.0
R,U,"[5, 9]",0.0,5.0,0.2231731414794922,1.7202789783477783,0.4904629479242092,82.0,826.0,0.0
R,U,"[4, 9]",1.0,6.0,0.20361089706420898,1.8483960628509521,0.638640583498707,82.0,827.0,0.0
R,U,"[3, 9]",1.0,7.0,0.459683895111084,1.7151360511779785,0.2542270602574425,82.0,828.0,0.0
B,L,"[3, 8]",0.0,7.0,0.40447497367858887,1.907623052597046,0.49479835624267565,82.0,829.0,0.0
B,L,"[3, 7]",0.0,7.0,0.2781810760498047,1.5654668807983398,0.29397465606223944,82.0,830.0,0.0
,,"(6, 6)",,,,,,82.0,,
R,U,"[5, 6]",1.0,1.0,0.5359349250793457,4.20889687538147,0.6525834820783769,,831.0,0.0
Y,R,"[5, 7]",1.0,2.0,0.30980587005615234,2.0330588817596436,0.7190295107642044,83.0,832.0,0.0
Y,R,"[5, 8]",1.0,3.0,0.25504398345947266,1.9336299896240234,0.6695039739234505,83.0,833.0,0.0
G,D,"[6, 8]",1.0,4.0,0.29263782501220703,1.8121469020843506,0.5152846682224235,83.0,834.0,0.0
Y,R,"[6, 9]",1.0,5.0,0.27677202224731445,1.5573370456695557,0.2727708489408102,83.0,835.0,0.0
Y,R,"[6, 10]",1.0,6.0,0.5359640121459961,2.0967531204223633,0.5527283686369173,83.0,836.0,0.0
R,U,"[5, 10]",1.0,7.0,0.2814030647277832,1.7443060874938965,0.4471267576939608,83.0,837.0,0.0
R,U,"[4, 10]",1.0,8.0,0.20905804634094238,1.5304410457611084,0.3110247930646264,83.0,838.0,0.0
B,L,"[4, 9]",1.0,9.0,0.5384819507598877,1.9679570198059082,0.4288704969939741,83.0,839.0,0.0
B,L,"[4, 8]",0.0,9.0,0.3541719913482666,1.9457859992980957,0.6076335649181241,83.0,840.0,0.0
,,"(6, 6)",,,,,,83.0,,
R,U,"[5, 6]",1.0,1.0,0.5324680805206299,7.2243921756744385,0.41591445547188777,,841.0,0.0
Y,R,"[5, 7]",1.0,2.0,0.2809560298919678,1.684804916381836,0.4004999779761518,84.0,842.0,0.0
Y,R,"[5, 8]",1.0,3.0,0.21637415885925293,1.6890220642089844,0.45635246272969515,84.0,843.0,0.0
G,D,"[6, 8]",1.0,4.0,0.3302309513092041,1.6916589736938477,0.364675185644775,84.0,844.0,0.0
Y,R,"[6, 9]",1.0,5.0,0.5401670932769775,2.108293056488037,0.5560827507655265,84.0,845.0,0.0
Y,R,"[6, 10]",1.0,6.0,0.2126319408416748,1.5650951862335205,0.3548409053361634,84.0,846.0,0.0
R,U,"[5, 10]",1.0,7.0,0.5117390155792236,1.8004839420318604,0.28879401061533133,84.0,847.0,0.0
R,U,"[4, 10]",1.0,8.0,0.41883301734924316,2.1082468032836914,0.6798777378129872,84.0,848.0,0.0
B,L,"[4, 9]",1.0,9.0,0.3142249584197998,2.0199339389801025,0.699712252497361,84.0,849.0,0.0
R,U,"[3, 9]",1.0,10.0,0.23358702659606934,1.5645408630371094,0.31472871344149245,84.0,850.0,0.0
,,"(6, 6)",,,,,,84.0,,
R,U,"[5, 6]",1.0,1.0,0.9641261100769043,7.871948003768921,0.5031966711501832,,851.0,0.0
Y,R,"[5, 7]",1.0,2.0,0.2580149173736572,1.846022129058838,0.5825946383448042,85.0,852.0,0.0
Y,R,"[5, 8]",1.0,3.0,0.456348180770874,2.038567066192627,0.5712173461227613,85.0,853.0,0.0
G,D,"[6, 8]",1.0,4.0,0.20239901542663574,1.5962531566619873,0.3844105960910622,85.0,854.0,0.0
Y,R,"[6, 9]",1.0,5.0,0.45015382766723633,1.7987380027770996,0.3333695873279595,85.0,855.0,0.0
Y,R,"[6, 10]",1.0,6.0,0.26590394973754883,1.7860209941864014,0.5023411790323151,85.0,856.0,0.0
R,U,"[5, 10]",1.0,7.0,0.36490511894226074,2.04248309135437,0.6614321061716784,85.0,857.0,0.0
R,U,"[4, 10]",1.0,8.0,0.20924901962280273,1.8813221454620361,0.675962597384548,85.0,858.0,0.0
B,L,"[4, 9]",1.0,9.0,0.23902106285095215,1.885303020477295,0.6447675504670485,85.0,859.0,0.0
R,U,"[3, 9]",1.0,10.0,0.20540404319763184,1.6589009761810303,0.45395492495630696,85.0,860.0,0.0
,,"(6, 6)",,,,,,85.0,,
R,U,"[5, 6]",1.0,1.0,0.5356471538543701,3.8165979385375977,0.37064290470657474,,861.0,0.0
Y,R,"[5, 7]",1.0,2.0,0.22527599334716797,1.7374820709228516,0.5080848059108376,86.0,862.0,0.0
Y,R,"[5, 8]",1.0,3.0,0.24698686599731445,1.5211918354034424,0.27942766698593186,86.0,863.0,0.0
G,D,"[6, 8]",1.0,4.0,0.46773195266723633,1.8532860279083252,0.36619970248434186,86.0,864.0,0.0
Y,R,"[6, 9]",1.0,5.0,0.373898983001709,2.08884596824646,0.7046127510718535,86.0,865.0,0.0
Y,R,"[6, 10]",1.0,6.0,0.14285802841186523,1.5350208282470703,0.3898497052627314,86.0,866.0,0.0
R,U,"[5, 10]",1.0,7.0,0.33632802963256836,1.9159440994262695,0.5723431891088759,86.0,867.0,0.0
R,U,"[4, 10]",1.0,8.0,0.18576908111572266,1.6747028827667236,0.4805405095431136,86.0,868.0,0.0
B,L,"[4, 9]",1.0,9.0,0.35838818550109863,1.874495029449463,0.5049950831420553,86.0,869.0,0.0
R,U,"[3, 9]",1.0,10.0,0.22570586204528809,1.9112129211425781,0.6827146362739024,86.0,870.0,0.0
,,"(6, 6)",,,,,,86.0,,
R,U,"[5, 6]",1.0,1.0,0.707103967666626,4.763278007507324,0.6961787202156211,,871.0,0.0
Y,R,"[5, 7]",1.0,2.0,0.19858193397521973,1.5548131465911865,0.35120376515947,87.0,872.0,0.0
Y,R,"[5, 8]",1.0,3.0,0.3186190128326416,1.7747950553894043,0.44264491639455406,87.0,873.0,0.0
G,D,"[6, 8]",1.0,4.0,0.4122750759124756,1.6688501834869385,0.26182609375346283,87.0,874.0,0.0
Y,R,"[6, 9]",1.0,5.0,0.2846639156341553,2.0050151348114014,0.716237555805807,87.0,875.0,0.0
Y,R,"[6, 10]",1.0,6.0,0.16594696044921875,1.8364410400390625,0.652810840652438,87.0,876.0,0.0
R,U,"[5, 10]",1.0,7.0,0.34069013595581055,1.613624095916748,0.2668899074709835,87.0,877.0,0.0
R,U,"[4, 10]",1.0,8.0,0.46373605728149414,1.9480490684509277,0.4647427024967403,87.0,878.0,0.0
B,L,"[4, 9]",1.0,9.0,0.24383997917175293,1.8237411975860596,0.5717716060927709,87.0,879.0,0.0
R,U,"[3, 9]",1.0,10.0,0.20249390602111816,1.9141249656677246,0.702415771936749,87.0,880.0,0.0
,,"(6, 6)",,,,,,87.0,,
R,U,"[5, 6]",1.0,1.0,0.581151008605957,5.415366172790527,0.4015836933374214,,881.0,0.0
Y,R,"[5, 7]",1.0,2.0,0.1968550682067871,1.586271047592163,0.38793352781128265,88.0,882.0,0.0
Y,R,"[5, 8]",1.0,3.0,0.41562914848327637,1.7431910037994385,0.3145901677407686,88.0,883.0,0.0
G,D,"[6, 8]",1.0,4.0,0.3880040645599365,2.010676860809326,0.6082670069887424,88.0,884.0,0.0
Y,R,"[6, 9]",1.0,5.0,0.19533705711364746,1.445720911026001,0.25431473414435235,88.0,885.0,0.0
Y,R,"[6, 10]",1.0,6.0,0.3393890857696533,1.9200971126556396,0.5743049068777374,88.0,886.0,0.0
R,U,"[5, 10]",1.0,7.0,0.23150205612182617,1.7014989852905273,0.47579886031503393,88.0,887.0,0.0
R,U,"[4, 10]",-1.0,7.0,0.09607386589050293,5.745514869689941,0.5215212346886993,88.0,888.0,0.0
B,L,"[4, 9]",1.0,8.0,0.27945590019226074,1.7862019538879395,0.49106823261413574,88.0,889.0,0.0
R,U,"[3, 9]",1.0,9.0,0.2815079689025879,1.5266599655151367,0.2513138592223184,88.0,890.0,0.0
,,"(6, 6)",,,,,,88.0,,
R,U,"[5, 6]",1.0,1.0,0.6717610359191895,4.559597015380859,0.3940273865708474,,891.0,0.0
Y,R,"[5, 7]",1.0,2.0,0.32334303855895996,1.6180241107940674,0.2955623068732331,89.0,892.0,0.0
Y,R,"[5, 8]",1.0,3.0,0.4578230381011963,2.188076972961426,0.7331340999874219,89.0,893.0,0.0
G,D,"[6, 8]",1.0,4.0,0.24570298194885254,1.9885368347167969,0.7384715512215281,89.0,894.0,0.0
Y,R,"[6, 9]",1.0,5.0,0.15375089645385742,1.875067949295044,0.7134983865215265,89.0,895.0,0.0
Y,R,"[6, 10]",-1.0,5.0,0.07283210754394531,5.817636013031006,0.6147028644834677,89.0,896.0,0.0
R,U,"[5, 10]",1.0,6.0,0.3275740146636963,2.023319959640503,0.6879597146897165,89.0,897.0,0.0
R,U,"[4, 10]",1.0,7.0,0.2413020133972168,1.8013370037078857,0.5560389249267335,89.0,898.0,0.0
B,L,"[4, 9]",1.0,8.0,0.5304031372070312,1.9626569747924805,0.4356304226099025,89.0,899.0,0.0
R,U,"[3, 9]",1.0,9.0,0.3615279197692871,1.8181841373443604,0.4535935618339873,89.0,900.0,0.0
,,"(6, 6)",,,,,,89.0,,
R,U,"[5, 6]",1.0,1.0,0.6698288917541504,3.621162176132202,0.32511767217714566,,901.0,0.0
Y,R,"[5, 7]",1.0,2.0,0.573544979095459,2.3037290573120117,0.7284185167204555,90.0,902.0,0.0
Y,R,"[5, 8]",1.0,3.0,0.10369181632995605,1.7699971199035645,0.681851941680151,90.0,903.0,0.0
G,D,"[6, 8]",1.0,4.0,0.2709329128265381,1.7500710487365723,0.465575878656845,90.0,904.0,0.0
Y,R,"[6, 9]",1.0,5.0,0.5308129787445068,2.168240785598755,0.616938435551653,90.0,905.0,0.0
Y,R,"[6, 10]",1.0,6.0,0.2868781089782715,2.044739007949829,0.7449681400912478,90.0,906.0,0.0
R,U,"[5, 10]",1.0,7.0,0.2485640048980713,1.7304048538208008,0.47555894813527066,90.0,907.0,0.0
B,L,"[5, 9]",0.0,7.0,0.7312800884246826,2.0853869915008545,0.36140445980014735,90.0,908.0,0.0
B,L,"[5, 8]",0.0,7.0,0.5590529441833496,2.108947992324829,0.553365904621959,90.0,909.0,0.0
R,U,"[4, 8]",0.0,7.0,0.31913280487060547,1.8016300201416016,0.4717703072387309,90.0,910.0,0.0
,,"(6, 6)",,,,,,90.0,,
R,U,"[5, 6]",1.0,1.0,0.5772459506988525,4.179800033569336,0.2518097628108851,,911.0,0.0
Y,R,"[5, 7]",1.0,2.0,0.4008638858795166,2.164713144302368,0.7494834771102888,91.0,912.0,0.0
Y,R,"[5, 8]",-1.0,2.0,0.052532196044921875,5.5565879344940186,0.3730410129144377,91.0,913.0,0.0
G,D,"[6, 8]",1.0,3.0,0.2730128765106201,1.9779839515686035,0.7010065593736754,91.0,914.0,0.0
Y,R,"[6, 9]",1.0,4.0,0.4883561134338379,2.088465929031372,0.5893732665685609,91.0,915.0,0.0
Y,R,"[6, 10]",1.0,5.0,0.4512050151824951,1.8504412174224854,0.3902269996531993,91.0,916.0,0.0
R,U,"[5, 10]",1.0,6.0,0.6263918876647949,2.249962091445923,0.6233115590168223,91.0,917.0,0.0
R,U,"[4, 10]",1.0,7.0,0.32144713401794434,1.902738094329834,0.5759912048428486,91.0,918.0,0.0
B,L,"[4, 9]",1.0,8.0,0.5895040035247803,1.9444000720977783,0.3538415229794276,91.0,919.0,0.0
R,U,"[3, 9]",1.0,9.0,0.37685108184814453,1.9166960716247559,0.5374260239506712,91.0,920.0,0.0
,,"(6, 6)",,,,,,91.0,,
R,U,"[5, 6]",1.0,1.0,0.7206900119781494,6.538508176803589,0.3591730431746039,,921.0,0.0
Y,R,"[5, 7]",1.0,2.0,0.2600419521331787,1.816641092300415,0.5590459046207767,92.0,922.0,0.0
Y,R,"[5, 8]",1.0,3.0,0.19849896430969238,1.9379761219024658,0.7468821696793515,92.0,923.0,0.0
G,D,"[6, 8]",1.0,4.0,0.2614758014678955,1.6102681159973145,0.340883746896648,92.0,924.0,0.0
Y,R,"[6, 9]",1.0,5.0,0.3713982105255127,1.6641261577606201,0.28867448230185216,92.0,925.0,0.0
Y,R,"[6, 10]",1.0,6.0,0.38782501220703125,1.8419320583343506,0.4471793129616612,92.0,926.0,0.0
R,U,"[5, 10]",1.0,7.0,0.32177209854125977,1.5979981422424316,0.26207349688514187,92.0,927.0,0.0
R,U,"[4, 10]",1.0,8.0,0.49846506118774414,1.9385991096496582,0.4340795162120081,92.0,928.0,0.0
B,L,"[4, 9]",1.0,9.0,0.5542449951171875,2.1086440086364746,0.5422453246463921,92.0,929.0,0.0
R,U,"[3, 9]",1.0,10.0,0.33458900451660156,2.082836866378784,0.741644704242886,92.0,930.0,0.0
,,"(6, 6)",,,,,,92.0,,
R,U,"[5, 6]",1.0,1.0,0.6966040134429932,2.836595058441162,0.5783068380634261,,931.0,0.0
Y,R,"[5, 7]",1.0,2.0,0.30817103385925293,1.6782281398773193,0.37338085709951785,93.0,932.0,0.0
Y,R,"[5, 8]",1.0,3.0,0.38985300064086914,1.7750089168548584,0.38186920641989414,93.0,933.0,0.0
G,D,"[6, 8]",1.0,4.0,0.3732478618621826,1.7891759872436523,0.4044217428933981,93.0,934.0,0.0
Y,R,"[6, 9]",1.0,5.0,0.6312570571899414,2.064044952392578,0.41854593151644665,93.0,935.0,0.0
Y,R,"[6, 10]",1.0,6.0,0.25841403007507324,1.7819390296936035,0.5170933985307576,93.0,936.0,0.0
R,U,"[5, 10]",1.0,7.0,0.38248395919799805,1.721992015838623,0.3226400515270325,93.0,937.0,0.0
R,U,"[4, 10]",1.0,8.0,0.37386608123779297,2.047304153442383,0.6696325586854031,93.0,938.0,0.0
B,L,"[4, 9]",1.0,9.0,0.47901082038879395,1.734593152999878,0.25455300744903336,93.0,939.0,0.0
R,U,"[3, 9]",1.0,10.0,0.741628885269165,2.4811999797821045,0.7353404643582213,93.0,940.0,0.0
,,"(6, 6)",,,,,,93.0,,
Y,R,"[6, 7]",0.0,0.0,0.6280529499053955,5.654252052307129,0.6064964021309458,,941.0,0.0
Y,R,"[6, 8]",1.0,1.0,0.7375829219818115,2.2296130657196045,0.48610570601072306,94.0,942.0,0.0
Y,R,"[6, 9]",-2.0,1.0,1.1184351444244385,2.6720569133758545,0.5081084289692743,94.0,943.0,0.0
G,D,"[7, 9]",0.0,1.0,0.35890817642211914,1.6565430164337158,0.29829105898587255,94.0,944.0,0.0
Y,R,"[7, 10]",0.0,1.0,0.4239931106567383,2.178471803665161,0.7429285740223561,94.0,945.0,0.0
Y,R,"[7, 11]",0.0,1.0,0.2504458427429199,1.9663779735565186,0.7262205969911637,94.0,946.0,0.0
R,U,"[6, 11]",0.0,1.0,0.2979099750518799,1.5867860317230225,0.29689222492666373,94.0,947.0,0.0
B,L,"[6, 10]",1.0,2.0,0.3002150058746338,1.7943389415740967,0.4741705407486573,94.0,948.0,0.0
R,U,"[5, 10]",1.0,3.0,0.33367085456848145,1.8538568019866943,0.5114907787056561,94.0,949.0,0.0
R,U,"[4, 10]",1.0,4.0,0.19775104522705078,1.5500850677490234,0.3616719257917046,94.0,950.0,0.0
,,"(6, 6)",,,,,,94.0,,
R,U,"[5, 6]",1.0,1.0,0.9006190299987793,5.151086091995239,0.3295215079681239,,951.0,0.0
Y,R,"[5, 7]",1.0,2.0,0.2693450450897217,1.6714239120483398,0.38422508219641055,95.0,952.0,0.0
Y,R,"[5, 8]",1.0,3.0,0.2644309997558594,1.6596219539642334,0.3771687356436846,95.0,953.0,0.0
G,D,"[6, 8]",1.0,4.0,0.393665075302124,2.059572219848633,0.6698346097447656,95.0,954.0,0.0
Y,R,"[6, 9]",1.0,5.0,0.17650985717773438,1.6613199710845947,0.4814952483606127,95.0,955.0,0.0
Y,R,"[6, 10]",1.0,6.0,0.1733541488647461,1.877540111541748,0.6920772578100349,95.0,956.0,0.0
R,U,"[5, 10]",1.0,7.0,0.21411609649658203,1.780122995376587,0.5723356253755796,95.0,957.0,0.0
R,U,"[4, 10]",1.0,8.0,0.18662691116333008,1.5273728370666504,0.350212278440613,95.0,958.0,0.0
B,L,"[4, 9]",1.0,9.0,0.36986422538757324,1.785053014755249,0.40190709043318035,95.0,959.0,0.0
R,U,"[3, 9]",1.0,10.0,0.24706101417541504,1.7450129985809326,0.49687140642993716,95.0,960.0,0.0
,,"(6, 6)",,,,,,95.0,,
R,U,"[5, 6]",1.0,1.0,0.6150960922241211,4.1742048263549805,0.6874812641146579,,961.0,0.0
Y,R,"[5, 7]",1.0,2.0,0.18222308158874512,1.5374579429626465,0.342100643120697,96.0,962.0,0.0
Y,R,"[5, 8]",1.0,3.0,0.2833120822906494,1.5465381145477295,0.2553425185747516,96.0,963.0,0.0
G,D,"[6, 8]",1.0,4.0,0.5872921943664551,2.321106195449829,0.7260262398900506,96.0,964.0,0.0
Y,R,"[6, 9]",1.0,5.0,0.2097010612487793,1.685122013092041,0.47813476711134234,96.0,965.0,0.0
Y,R,"[6, 10]",1.0,6.0,0.23452496528625488,1.8838651180267334,0.6450672984797883,96.0,966.0,0.0
R,U,"[5, 10]",-2.0,6.0,1.0053200721740723,2.3965771198272705,0.35887861720718833,96.0,967.0,0.0
R,U,"[4, 10]",1.0,7.0,0.6174418926239014,1.9368200302124023,0.3123099566827487,96.0,968.0,0.0
B,L,"[4, 9]",1.0,8.0,0.32597899436950684,1.6542229652404785,0.3330989291622937,96.0,969.0,0.0
R,U,"[3, 9]",1.0,9.0,0.3328580856323242,1.814957857131958,0.4646528855040017,96.0,970.0,0.0
,,"(6, 6)",,,,,,96.0,,
R,U,"[5, 6]",1.0,1.0,0.5389680862426758,3.386323928833008,0.734251351606837,,971.0,0.0
Y,R,"[5, 7]",1.0,2.0,0.2565159797668457,1.5724389553070068,0.30712609297308846,97.0,972.0,0.0
Y,R,"[5, 8]",1.0,3.0,0.44405388832092285,1.7574341297149658,0.314514135931185,97.0,973.0,0.0
G,D,"[6, 8]",1.0,4.0,0.4463632106781006,1.7191178798675537,0.26714217504579746,97.0,974.0,0.0
Y,R,"[6, 9]",1.0,5.0,0.4205958843231201,1.9893150329589844,0.5560838842887621,97.0,975.0,0.0
Y,R,"[6, 10]",1.0,6.0,0.35488009452819824,1.952996015548706,0.5924289263055795,97.0,976.0,0.0
R,U,"[5, 10]",1.0,7.0,0.2607300281524658,1.6800050735473633,0.4225105429577004,97.0,977.0,0.0
R,U,"[4, 10]",1.0,8.0,0.20639395713806152,1.784020185470581,0.5732382685551081,97.0,978.0,0.0
B,L,"[4, 9]",1.0,9.0,0.22196602821350098,1.7528681755065918,0.5262149304773664,97.0,979.0,0.0
R,U,"[3, 9]",1.0,10.0,0.17904281616210938,1.8726119995117188,0.6986823084621426,97.0,980.0,0.0
,,"(6, 6)",,,,,,97.0,,
R,U,"[5, 6]",1.0,1.0,0.9731049537658691,5.499584913253784,0.6649847838285847,,981.0,0.0
Y,R,"[5, 7]",1.0,2.0,0.27277588844299316,1.8751630783081055,0.5902693949393194,98.0,982.0,0.0
Y,R,"[5, 8]",1.0,3.0,0.39734983444213867,2.00714111328125,0.5973618509926817,98.0,983.0,0.0
G,D,"[6, 8]",1.0,4.0,0.25472307205200195,1.7941770553588867,0.5250559293375824,98.0,984.0,0.0
Y,R,"[6, 9]",1.0,5.0,0.3794560432434082,1.8626649379730225,0.48773464683742324,98.0,985.0,0.0
Y,R,"[6, 10]",1.0,6.0,0.26014184951782227,1.8271081447601318,0.5646819892931094,98.0,986.0,0.0
R,U,"[5, 10]",1.0,7.0,0.9413290023803711,2.2842819690704346,0.3327656611696933,98.0,987.0,0.0
R,U,"[4, 10]",1.0,8.0,0.2734229564666748,1.9545469284057617,0.6703648570287356,98.0,988.0,0.0
B,L,"[4, 9]",1.0,9.0,0.21919798851013184,1.4952940940856934,0.2660071568909406,98.0,989.0,0.0
R,U,"[3, 9]",1.0,10.0,0.30202293395996094,2.0401549339294434,0.7226668145162654,98.0,990.0,0.0
,,"(6, 6)",,,,,,98.0,,
R,U,"[5, 6]",1.0,1.0,0.4629209041595459,9.253045082092285,0.5258935820560504,,991.0,0.0
Y,R,"[5, 7]",1.0,2.0,0.32471799850463867,1.6690399646759033,0.34475360430575114,99.0,992.0,0.0
Y,R,"[5, 8]",1.0,3.0,0.27419209480285645,1.590712070465088,0.31891261030967677,99.0,993.0,0.0
G,D,"[6, 8]",1.0,4.0,0.3826260566711426,1.7181880474090576,0.32062510000498196,99.0,994.0,0.0
Y,R,"[6, 9]",1.0,5.0,0.37671399116516113,1.8331928253173828,0.4537900810378541,99.0,995.0,0.0
Y,R,"[6, 10]",1.0,6.0,0.5835428237915039,2.2281599044799805,0.6318468793055338,99.0,996.0,0.0
R,U,"[5, 10]",1.0,7.0,0.23769807815551758,1.865746021270752,0.614300791796538,99.0,997.0,0.0
R,U,"[4, 10]",1.0,8.0,0.1782550811767578,1.6879940032958984,0.5023999530886015,99.0,998.0,0.0
B,L,"[4, 9]",1.0,9.0,0.191727876663208,1.453765869140625,0.2561392270676247,99.0,999.0,0.0
R,U,"[3, 9]",1.0,10.0,0.33686089515686035,1.6279489994049072,0.28412460097895376,99.0,1000.0,0.0
