button_choice,action_choice,coordinate_choice,reward,cumulative_reward,rt,total_trial_time,iti,block_n,trial_n,trial_type
R,U,"[5, 6]",-2.0,0.0,1.1028320789337158,2.6891520023345947,0.5563169471562838,0.0,1.0,0.0
Y,R,"[5, 7]",1.0,1.0,0.2264699935913086,1.6917169094085693,0.3652928315449896,0.0,2.0,0.0
Y,R,"[5, 8]",1.0,2.0,0.21323800086975098,1.9975697994232178,0.6791785636096722,0.0,3.0,0.0
G,D,"[6, 8]",1.0,3.0,0.1680910587310791,1.7283039093017578,0.4577800850009488,0.0,4.0,0.0
G,D,"[7, 8]",0.0,3.0,0.22600698471069336,1.5918679237365723,0.2664046867412688,0.0,5.0,0.0
Y,R,"[7, 9]",0.0,3.0,0.3455348014831543,1.7186779975891113,0.26860529550646023,0.0,6.0,0.0
R,U,"[6, 9]",1.0,4.0,0.2521631717681885,1.974647045135498,0.6261432687519983,0.0,7.0,0.0
R,U,"[5, 9]",0.0,4.0,0.1540679931640625,1.4912941455841064,0.2512795917047273,0.0,8.0,0.0
R,U,"[4, 9]",1.0,5.0,0.2213129997253418,1.7903048992156982,0.44132827310109474,0.0,9.0,0.0
R,U,"[3, 9]",1.0,6.0,0.37002015113830566,1.791553020477295,0.3332290981334952,0.0,10.0,0.0
,,"(6, 6)",,,,,,,,
R,U,"[5, 6]",1.0,1.0,0.3639049530029297,4.516994953155518,0.6999539500194684,1.0,11.0,0.0
Y,R,"[5, 7]",-1.0,1.0,0.08376502990722656,5.780313014984131,0.5637189384043682,1.0,12.0,0.0
Y,R,"[5, 8]",1.0,2.0,0.21070504188537598,2.042799949645996,0.7231429342074097,1.0,13.0,0.0
Y,R,"[5, 9]",0.0,2.0,0.20019817352294922,2.020800828933716,0.7272212118166494,1.0,14.0,0.0
Y,R,"[5, 10]",1.0,3.0,0.287506103515625,1.9852569103240967,0.5960533580398143,1.0,15.0,0.0
Y,R,"[5, 11]",0.0,3.0,0.36254000663757324,1.7925000190734863,0.3220973165347288,1.0,16.0,0.0
R,U,"[4, 11]",0.0,3.0,0.24881696701049805,1.910999059677124,0.5664856136801851,1.0,17.0,0.0
R,U,"[3, 11]",0.0,3.0,0.22019696235656738,1.8146209716796875,0.4811450639596777,1.0,18.0,0.0
B,L,"[3, 10]",0.0,3.0,0.1852719783782959,1.8615448474884033,0.5759012679112454,1.0,19.0,0.0
R,U,"[2, 10]",0.0,3.0,0.16922283172607422,1.5352160930633545,0.2780326643516465,1.0,20.0,0.0
,,"(6, 6)",,,,,,,,
R,U,"[5, 6]",1.0,1.0,0.5051250457763672,4.622281074523926,0.5503536806597309,2.0,21.0,0.0
Y,R,"[5, 7]",1.0,2.0,0.20687603950500488,2.0255661010742188,0.7090242778871914,2.0,22.0,0.0
Y,R,"[5, 8]",1.0,3.0,0.24060893058776855,2.0449869632720947,0.7041406978611209,2.0,23.0,0.0
G,D,"[6, 8]",1.0,4.0,0.24342894554138184,1.6534340381622314,0.3078415384007393,2.0,24.0,0.0
Y,R,"[6, 9]",1.0,5.0,0.36132097244262695,2.1624250411987305,0.7032776484962895,2.0,25.0,0.0
Y,R,"[6, 10]",1.0,6.0,0.26028990745544434,1.8750572204589844,0.5120652189210526,2.0,26.0,0.0
R,U,"[5, 10]",1.0,7.0,0.3771328926086426,1.9859440326690674,0.514687109228971,2.0,27.0,0.0
R,U,"[4, 10]",1.0,8.0,0.315932035446167,1.7600250244140625,0.3416087287739847,2.0,28.0,0.0
B,L,"[4, 9]",1.0,9.0,0.4602479934692383,2.1245980262756348,0.5660369144913029,2.0,29.0,0.0
R,U,"[3, 9]",1.0,10.0,0.24781394004821777,1.9459779262542725,0.594646191886955,2.0,30.0,0.0
,,"(6, 6)",,,,,,,,
R,U,"[5, 6]",1.0,1.0,0.5396571159362793,6.825256109237671,0.6705280672126404,3.0,31.0,0.0
Y,R,"[5, 7]",1.0,2.0,0.2218329906463623,2.0022170543670654,0.6729081675615267,3.0,32.0,0.0
Y,R,"[5, 8]",1.0,3.0,0.19382190704345703,1.994554042816162,0.7008227531608036,3.0,33.0,0.0
G,D,"[6, 8]",1.0,4.0,0.21543002128601074,1.6337831020355225,0.3182597491455932,3.0,34.0,0.0
Y,R,"[6, 9]",1.0,5.0,0.32222414016723633,1.7128710746765137,0.28119908328834803,3.0,35.0,0.0
Y,R,"[6, 10]",1.0,6.0,0.4541809558868408,2.226820945739746,0.674364012071361,3.0,36.0,0.0
R,U,"[5, 10]",1.0,7.0,0.21927499771118164,1.743095874786377,0.4344528059916166,3.0,37.0,0.0
R,U,"[4, 10]",1.0,8.0,0.2751331329345703,1.7884559631347656,0.4061870737300579,3.0,38.0,0.0
B,L,"[4, 9]",1.0,9.0,0.2510559558868408,1.8307719230651855,0.4870652863244579,3.0,39.0,0.0
R,U,"[3, 9]",1.0,10.0,0.2045581340789795,2.0046231746673584,0.6913889175642141,3.0,40.0,0.0
,,"(6, 6)",,,,,,,,
R,U,"[5, 6]",1.0,1.0,0.5682110786437988,3.3801300525665283,0.6217495966470148,4.0,41.0,0.0
Y,R,"[5, 7]",1.0,2.0,0.19781279563903809,1.8181140422821045,0.523312561630473,4.0,42.0,0.0
Y,R,"[5, 8]",1.0,3.0,0.21320199966430664,1.747124195098877,0.4371748456714098,4.0,43.0,0.0
G,D,"[6, 8]",1.0,4.0,0.2472379207611084,1.7488431930541992,0.40284244472428987,4.0,44.0,0.0
Y,R,"[6, 9]",1.0,5.0,0.2805969715118408,1.96026611328125,0.5794360764966855,4.0,45.0,0.0
Y,R,"[6, 10]",1.0,6.0,0.1817159652709961,1.8840241432189941,0.5968671710014815,4.0,46.0,0.0
R,U,"[5, 10]",1.0,7.0,0.14319801330566406,1.9430129528045654,0.689924969804711,4.0,47.0,0.0
R,U,"[4, 10]",1.0,8.0,0.17508888244628906,1.9068889617919922,0.6301886488398691,4.0,48.0,0.0
B,L,"[4, 9]",1.0,9.0,0.19350981712341309,1.6632370948791504,0.3604882738407474,4.0,49.0,0.0
R,U,"[3, 9]",1.0,10.0,0.27049899101257324,1.7915639877319336,0.4350177387074239,4.0,50.0,0.0
,,"(6, 6)",,,,,,,,
R,U,"[5, 6]",1.0,1.0,0.7882919311523438,3.013580083847046,0.5488857644374981,5.0,51.0,0.0
Y,R,"[5, 7]",1.0,2.0,0.20998692512512207,1.9727809429168701,0.6547450278651799,5.0,52.0,0.0
Y,R,"[5, 8]",1.0,3.0,0.1942739486694336,1.6146278381347656,0.31985874790516555,5.0,53.0,0.0
G,D,"[6, 8]",1.0,4.0,0.27384090423583984,1.649522066116333,0.2694534560782602,5.0,54.0,0.0
Y,R,"[6, 9]",1.0,5.0,0.26533007621765137,1.8372879028320312,0.47316022784948303,5.0,55.0,0.0
Y,R,"[6, 10]",1.0,6.0,0.23452019691467285,1.6319758892059326,0.30534951859391457,5.0,56.0,0.0
R,U,"[5, 10]",1.0,7.0,0.30925512313842773,1.9241838455200195,0.5128524908940947,5.0,57.0,0.0
R,U,"[4, 10]",1.0,8.0,0.27416205406188965,1.956035852432251,0.5688230976283237,5.0,58.0,0.0
B,L,"[4, 9]",1.0,9.0,0.20352983474731445,1.7179899215698242,0.4202263094691344,5.0,59.0,0.0
R,U,"[3, 9]",1.0,10.0,0.23995590209960938,1.7284929752349854,0.3822866435254809,5.0,60.0,0.0
,,"(6, 6)",,,,,,,,
R,U,"[5, 6]",1.0,1.0,0.6166219711303711,3.0753629207611084,0.6240497530832328,6.0,61.0,0.0
Y,R,"[5, 7]",1.0,2.0,0.20657706260681152,1.7788410186767578,0.4695575533345796,6.0,62.0,0.0
Y,R,"[5, 8]",1.0,3.0,0.27486300468444824,2.051692008972168,0.6713090523844164,6.0,63.0,0.0
G,D,"[6, 8]",1.0,4.0,0.2285909652709961,1.650331974029541,0.3220051094046393,6.0,64.0,0.0
Y,R,"[6, 9]",1.0,5.0,0.34465503692626953,2.1319310665130615,0.6868660242295772,6.0,65.0,0.0
Y,R,"[6, 10]",1.0,6.0,0.21166086196899414,1.97652006149292,0.6635158849219024,6.0,66.0,0.0
R,U,"[5, 10]",1.0,7.0,0.20918989181518555,1.7178778648376465,0.3984266258290044,6.0,67.0,0.0
R,U,"[4, 10]",1.0,8.0,0.3548250198364258,2.1170220375061035,0.664645075441963,6.0,68.0,0.0
B,L,"[4, 9]",1.0,9.0,0.2684011459350586,1.951397180557251,0.5834050864290105,6.0,69.0,0.0
R,U,"[3, 9]",1.0,10.0,0.2577650547027588,1.824841022491455,0.458278867054737,6.0,70.0,0.0
,,"(6, 6)",,,,,,,,
R,U,"[5, 6]",1.0,1.0,0.7174439430236816,4.064702987670898,0.5562704442935498,7.0,71.0,0.0
Y,R,"[5, 7]",1.0,2.0,0.22461509704589844,1.8646550178527832,0.5374794375191112,7.0,72.0,0.0
Y,R,"[5, 8]",1.0,3.0,0.2228250503540039,2.075866937637329,0.746738307007356,7.0,73.0,0.0
G,D,"[6, 8]",1.0,4.0,0.21175003051757812,2.0498340129852295,0.7299498098788262,7.0,74.0,0.0
Y,R,"[6, 9]",1.0,5.0,0.20783591270446777,1.9154119491577148,0.5954379933073914,7.0,75.0,0.0
Y,R,"[6, 10]",1.0,6.0,0.25385499000549316,1.6846981048583984,0.3470456367770524,7.0,76.0,0.0
R,U,"[5, 10]",1.0,7.0,0.3712158203125,2.1273961067199707,0.6575529825958704,7.0,77.0,0.0
R,U,"[4, 10]",1.0,8.0,0.20070910453796387,1.7292821407318115,0.4370959381280075,7.0,78.0,0.0
B,L,"[4, 9]",1.0,9.0,0.2394709587097168,1.8853321075439453,0.5390429834449169,7.0,79.0,0.0
R,U,"[3, 9]",1.0,10.0,0.20079898834228516,1.7621729373931885,0.4679630269858424,7.0,80.0,0.0
,,"(6, 6)",,,,,,,,
R,U,"[5, 6]",1.0,1.0,0.6525430679321289,2.934169054031372,0.3522872421958901,8.0,81.0,0.0
Y,R,"[5, 7]",1.0,2.0,0.2915689945220947,2.0610110759735107,0.6630170883778086,8.0,82.0,0.0
Y,R,"[5, 8]",1.0,3.0,0.20647382736206055,1.6839449405670166,0.3639791190126873,8.0,83.0,0.0
G,D,"[6, 8]",1.0,4.0,0.22899198532104492,1.8328778743743896,0.4967275010897463,8.0,84.0,0.0
Y,R,"[6, 9]",1.0,5.0,0.22274994850158691,2.0125060081481934,0.6758487093398166,8.0,85.0,0.0
Y,R,"[6, 10]",1.0,6.0,0.1998739242553711,1.7526590824127197,0.46195714119026604,8.0,86.0,0.0
R,U,"[5, 10]",1.0,7.0,0.23833703994750977,1.931197166442871,0.5931677954049481,8.0,87.0,0.0
R,U,"[4, 10]",1.0,8.0,0.17087817192077637,1.8807721138000488,0.6238994703408232,8.0,88.0,0.0
B,L,"[4, 9]",1.0,9.0,0.2468729019165039,1.752068042755127,0.4094858546192859,8.0,89.0,0.0
R,U,"[3, 9]",1.0,10.0,0.21050310134887695,1.7010769844055176,0.39393968688117154,8.0,90.0,0.0
,,"(6, 6)",,,,,,,,
R,U,"[5, 6]",1.0,1.0,0.5146050453186035,3.491318941116333,0.4353001326823313,9.0,91.0,0.0
Y,R,"[5, 7]",1.0,2.0,0.2081139087677002,1.8932349681854248,0.5783651413158368,9.0,92.0,0.0
Y,R,"[5, 8]",1.0,3.0,0.19338297843933105,1.814371109008789,0.5262652000528786,9.0,93.0,0.0
G,D,"[6, 8]",1.0,4.0,0.22184419631958008,1.5579781532287598,0.2512239451653135,9.0,94.0,0.0
Y,R,"[6, 9]",1.0,5.0,0.29176902770996094,1.7362940311431885,0.33739176607078936,9.0,95.0,0.0
Y,R,"[6, 10]",1.0,6.0,0.26801300048828125,1.6909911632537842,0.3115156280934642,9.0,96.0,0.0
R,U,"[5, 10]",1.0,7.0,0.24170303344726562,1.68674898147583,0.34858128227048846,9.0,97.0,0.0
R,U,"[4, 10]",1.0,8.0,0.2583351135253906,1.888922929763794,0.5206297293158209,9.0,98.0,0.0
B,L,"[4, 9]",1.0,9.0,0.23449397087097168,1.678907871246338,0.3496803646217725,9.0,99.0,0.0
R,U,"[3, 9]",1.0,10.0,0.2285768985748291,1.785187005996704,0.4514141132225598,9.0,100.0,0.0
,,"(6, 6)",,,,,,,,
R,U,"[5, 6]",1.0,1.0,0.597743034362793,2.521026849746704,0.2892637633623682,10.0,101.0,0.0
Y,R,"[5, 7]",1.0,2.0,0.20938706398010254,1.7967948913574219,0.4859715695059962,10.0,102.0,0.0
Y,R,"[5, 8]",1.0,3.0,0.2520439624786377,1.7909519672393799,0.4435882803703054,10.0,103.0,0.0
G,D,"[6, 8]",1.0,4.0,0.23413705825805664,1.6827459335327148,0.35962688876402477,10.0,104.0,0.0
Y,R,"[6, 9]",1.0,5.0,0.2348799705505371,1.9823758602142334,0.6587354788575864,10.0,105.0,0.0
Y,R,"[6, 10]",1.0,6.0,0.20249485969543457,1.8564081192016602,0.5651974524720489,10.0,106.0,0.0
R,U,"[5, 10]",1.0,7.0,0.21271800994873047,1.6192660331726074,0.30128935143618435,10.0,107.0,0.0
R,U,"[4, 10]",1.0,8.0,0.28812193870544434,1.9199960231781006,0.5212606216475713,10.0,108.0,0.0
B,L,"[4, 9]",1.0,9.0,0.20463991165161133,2.0139381885528564,0.7016056628424712,10.0,109.0,0.0
R,U,"[3, 9]",1.0,10.0,0.23067617416381836,1.906752109527588,0.57523783260147,10.0,110.0,0.0
,,"(6, 6)",,,,,,,,
R,U,"[5, 6]",1.0,1.0,0.6476850509643555,2.8270111083984375,0.31915845438307666,11.0,111.0,0.0
Y,R,"[5, 7]",1.0,2.0,0.2584109306335449,1.731734037399292,0.36746909009233397,11.0,112.0,0.0
Y,R,"[5, 8]",1.0,3.0,0.3062760829925537,1.9942529201507568,0.5782604207485197,11.0,113.0,0.0
G,D,"[6, 8]",1.0,4.0,0.20028209686279297,1.7138340473175049,0.42566491752925684,11.0,114.0,0.0
Y,R,"[6, 9]",1.0,5.0,0.21373891830444336,1.7590081691741943,0.4513590691250793,11.0,115.0,0.0
Y,R,"[6, 10]",1.0,6.0,0.22577786445617676,1.614995002746582,0.2832425635785026,11.0,116.0,0.0
R,U,"[5, 10]",1.0,7.0,0.3358280658721924,2.0410878658294678,0.5906710002572697,11.0,117.0,0.0
R,U,"[4, 10]",1.0,8.0,0.19135713577270508,1.5667109489440918,0.27444396213686084,11.0,118.0,0.0
B,L,"[4, 9]",1.0,9.0,0.2770650386810303,1.7362561225891113,0.3605422293808096,11.0,119.0,0.0
R,U,"[3, 9]",1.0,10.0,0.23039793968200684,1.8719871044158936,0.5490042498438583,11.0,120.0,0.0
,,"(6, 6)",,,,,,,,
R,U,"[5, 6]",1.0,1.0,0.6669960021972656,3.20906400680542,0.3418268500886618,12.0,121.0,0.0
Y,R,"[5, 7]",1.0,2.0,0.22717618942260742,1.7958660125732422,0.47088544394309806,12.0,122.0,0.0
Y,R,"[5, 8]",1.0,3.0,0.21064114570617676,1.802609920501709,0.4900288075944014,12.0,123.0,0.0
G,D,"[6, 8]",1.0,4.0,0.1514267921447754,1.7571370601654053,0.5137613300980881,12.0,124.0,0.0
Y,R,"[6, 9]",1.0,5.0,0.18293404579162598,1.96126389503479,0.6749597026389333,12.0,125.0,0.0
Y,R,"[6, 10]",-1.0,5.0,0.060235023498535156,5.6260600090026855,0.45139638255890724,12.0,126.0,0.0
Y,R,"[6, 11]",0.0,5.0,0.2712230682373047,1.7808940410614014,0.39901647314373123,12.0,127.0,0.0
R,U,"[5, 11]",0.0,5.0,0.3641178607940674,1.894953966140747,0.42717472569029624,12.0,128.0,0.0
G,D,"[6, 11]",0.0,5.0,0.24016404151916504,1.7801778316497803,0.4408032342781223,12.0,129.0,0.0
B,L,"[6, 10]",0.0,5.0,0.20072603225708008,1.8344950675964355,0.5419378417137222,12.0,130.0,0.0
,,"(6, 6)",,,,,,,,
R,U,"[5, 6]",1.0,1.0,0.5983130931854248,5.718364000320435,0.5269828219982774,13.0,131.0,0.0
Y,R,"[5, 7]",1.0,2.0,0.2270510196685791,1.6433699131011963,0.320562007655085,13.0,132.0,0.0
Y,R,"[5, 8]",1.0,3.0,0.2804110050201416,1.726381778717041,0.3470547970320447,13.0,133.0,0.0
G,D,"[6, 8]",1.0,4.0,0.32178711891174316,1.9222378730773926,0.48562090765403687,13.0,134.0,0.0
Y,R,"[6, 9]",1.0,5.0,0.22218608856201172,1.6325829029083252,0.3018278749247707,13.0,135.0,0.0
Y,R,"[6, 10]",1.0,6.0,0.29964494705200195,1.8272759914398193,0.42893433161598815,13.0,136.0,0.0
R,U,"[5, 10]",1.0,7.0,0.2555539608001709,2.0545408725738525,0.7000747070457104,13.0,137.0,0.0
R,U,"[4, 10]",1.0,8.0,0.2424311637878418,1.8305060863494873,0.4809181295967142,13.0,138.0,0.0
B,L,"[4, 9]",1.0,9.0,0.24274396896362305,1.6282169818878174,0.27560452160648896,13.0,139.0,0.0
R,U,"[3, 9]",1.0,10.0,0.2957611083984375,1.9895150661468506,0.5984466526215524,13.0,140.0,0.0
,,"(6, 6)",,,,,,,,
R,U,"[5, 6]",1.0,1.0,0.6884019374847412,3.116652011871338,0.4488619863088261,14.0,141.0,0.0
Y,R,"[5, 7]",1.0,2.0,0.27001500129699707,2.021766185760498,0.6537567729911579,14.0,142.0,0.0
Y,R,"[5, 8]",1.0,3.0,0.27126002311706543,2.065479040145874,0.685575798308128,14.0,143.0,0.0
G,D,"[6, 8]",1.0,4.0,0.275892972946167,1.7660510540008545,0.3853159981237936,14.0,144.0,0.0
Y,R,"[6, 9]",1.0,5.0,0.26197099685668945,1.7972321510314941,0.43251536771810395,14.0,145.0,0.0
Y,R,"[6, 10]",1.0,6.0,0.3489089012145996,2.101733922958374,0.6508129750406108,14.0,146.0,0.0
R,U,"[5, 10]",1.0,7.0,0.2072889804840088,1.7828178405761719,0.4670845554627172,14.0,147.0,0.0
R,U,"[4, 10]",1.0,8.0,0.2552618980407715,1.6790599822998047,0.3129827554818905,14.0,148.0,0.0
B,L,"[4, 9]",1.0,9.0,0.2651500701904297,1.7138879299163818,0.34348991611853147,14.0,149.0,0.0
R,U,"[3, 9]",1.0,10.0,0.22313594818115234,1.6747710704803467,0.3516464157105061,14.0,150.0,0.0
,,"(6, 6)",,,,,,,,
R,U,"[5, 6]",1.0,1.0,0.5352389812469482,3.0172901153564453,0.7353085465927481,15.0,151.0,0.0
Y,R,"[5, 7]",1.0,2.0,0.2181229591369629,1.696824073791504,0.3823854069127262,15.0,152.0,0.0
Y,R,"[5, 8]",1.0,3.0,0.26274895668029785,2.104466199874878,0.7365604537743954,15.0,153.0,0.0
G,D,"[6, 8]",1.0,4.0,0.23809504508972168,1.7868800163269043,0.4405684536931793,15.0,154.0,0.0
Y,R,"[6, 9]",1.0,5.0,0.21403098106384277,1.9466490745544434,0.636837932345844,15.0,155.0,0.0
Y,R,"[6, 10]",1.0,6.0,0.21642279624938965,1.9285671710968018,0.6155425201758555,15.0,156.0,0.0
R,U,"[5, 10]",1.0,7.0,0.20629191398620605,1.9176089763641357,0.5998734394490719,15.0,157.0,0.0
R,U,"[4, 10]",1.0,8.0,0.21829581260681152,1.6838929653167725,0.3672782902818045,15.0,158.0,0.0
G,D,"[5, 10]",0.0,8.0,0.23511290550231934,1.6807060241699219,0.3480494224063811,15.0,159.0,0.0
Y,R,"[5, 11]",0.0,8.0,0.41636204719543457,1.8569140434265137,0.33828564884835605,15.0,160.0,0.0
,,"(6, 6)",,,,,,,,
R,U,"[5, 6]",1.0,1.0,0.6039609909057617,3.0431599617004395,0.3983646725862152,16.0,161.0,0.0
Y,R,"[5, 7]",1.0,2.0,0.22789692878723145,1.980139970779419,0.6446953843701125,16.0,162.0,0.0
Y,R,"[5, 8]",1.0,3.0,0.22951698303222656,1.7329449653625488,0.4112955517837738,16.0,163.0,0.0
G,D,"[6, 8]",1.0,4.0,0.28021812438964844,1.8526010513305664,0.4804688305739997,16.0,164.0,0.0
Y,R,"[6, 9]",1.0,5.0,0.2244870662689209,2.040036916732788,0.7035717710670804,16.0,165.0,0.0
Y,R,"[6, 10]",1.0,6.0,0.2074589729309082,1.5757009983062744,0.26308906590185865,16.0,166.0,0.0
R,U,"[5, 10]",1.0,7.0,0.28518104553222656,2.1113200187683105,0.724008743232499,16.0,167.0,0.0
R,U,"[4, 10]",1.0,8.0,0.20694279670715332,1.7666540145874023,0.4575974373484214,16.0,168.0,0.0
B,L,"[4, 9]",1.0,9.0,0.21644306182861328,1.8183770179748535,0.509264922307374,16.0,169.0,0.0
R,U,"[3, 9]",1.0,10.0,0.23663091659545898,2.0186541080474854,0.6944773390061201,16.0,170.0,0.0
,,"(6, 6)",,,,,,,,
R,U,"[5, 6]",1.0,1.0,0.6092779636383057,2.8516781330108643,0.7127023446082348,17.0,171.0,0.0
Y,R,"[5, 7]",1.0,2.0,0.2028191089630127,1.5854439735412598,0.28198634296847175,17.0,172.0,0.0
Y,R,"[5, 8]",1.0,3.0,0.4630138874053955,2.299880027770996,0.7316598789715764,17.0,173.0,0.0
G,D,"[6, 8]",1.0,4.0,0.27013206481933594,2.1160199642181396,0.747462444803133,17.0,174.0,0.0
Y,R,"[6, 9]",1.0,5.0,0.20202898979187012,2.0437278747558594,0.741218468966593,17.0,175.0,0.0
Y,R,"[6, 10]",1.0,6.0,0.2116241455078125,1.9500868320465088,0.6415088381649908,17.0,176.0,0.0
R,U,"[5, 10]",1.0,7.0,0.2295670509338379,1.6573469638824463,0.332411495685819,17.0,177.0,0.0
R,U,"[4, 10]",1.0,8.0,0.25795888900756836,1.9692928791046143,0.6013774144643065,17.0,178.0,0.0
B,L,"[4, 9]",1.0,9.0,0.4132061004638672,1.7723369598388672,0.25756399706092103,17.0,179.0,0.0
R,U,"[3, 9]",1.0,10.0,0.2957451343536377,1.6480650901794434,0.2554943576252429,17.0,180.0,0.0
,,"(6, 6)",,,,,,,,
R,U,"[5, 6]",1.0,1.0,0.5088639259338379,5.969808101654053,0.5418940586628873,18.0,181.0,0.0
Y,R,"[5, 7]",1.0,2.0,0.21445798873901367,1.7712299823760986,0.4632608908458992,18.0,182.0,0.0
Y,R,"[5, 8]",1.0,3.0,0.22410082817077637,1.7884759902954102,0.45158150804777614,18.0,183.0,0.0
G,D,"[6, 8]",1.0,4.0,0.26766395568847656,2.0303900241851807,0.665257688027743,18.0,184.0,0.0
Y,R,"[6, 9]",1.0,5.0,0.1823420524597168,1.5660240650177002,0.2817430980698936,18.0,185.0,0.0
Y,R,"[6, 10]",1.0,6.0,0.31062793731689453,2.0049149990081787,0.586235163807205,18.0,186.0,0.0
R,U,"[5, 10]",1.0,7.0,0.21015596389770508,1.7966389656066895,0.48301098126996295,18.0,187.0,0.0
R,U,"[4, 10]",1.0,8.0,0.2156229019165039,1.6288208961486816,0.3120072129273665,18.0,188.0,0.0
B,L,"[4, 9]",1.0,9.0,0.3710360527038574,1.7677810192108154,0.2966140844371456,18.0,189.0,0.0
R,U,"[3, 9]",1.0,10.0,0.21024608612060547,1.7639110088348389,0.44365969803158484,18.0,190.0,0.0
,,"(6, 6)",,,,,,,,
R,U,"[5, 6]",1.0,1.0,0.6574108600616455,2.945574998855591,0.7224295011535402,19.0,191.0,0.0
Y,R,"[5, 7]",1.0,2.0,0.19150710105895996,1.6846351623535156,0.3905466261906333,19.0,192.0,0.0
Y,R,"[5, 8]",1.0,3.0,0.23225784301757812,1.8675060272216797,0.5409709752216965,19.0,193.0,0.0
G,D,"[6, 8]",1.0,4.0,0.23247289657592773,1.9846980571746826,0.6591159307232809,19.0,194.0,0.0
Y,R,"[6, 9]",1.0,5.0,0.19107317924499512,2.0260980129241943,0.7352015036951609,19.0,195.0,0.0
Y,R,"[6, 10]",1.0,6.0,0.20050716400146484,1.7299351692199707,0.43215188667156496,19.0,196.0,0.0
R,U,"[5, 10]",1.0,7.0,0.23313283920288086,1.9326460361480713,0.597708205576905,19.0,197.0,0.0
R,U,"[4, 10]",1.0,8.0,0.20323491096496582,1.6607019901275635,0.35897852466707003,19.0,198.0,0.0
B,L,"[4, 9]",1.0,9.0,0.2753469944000244,1.7058360576629639,0.33148435719371766,19.0,199.0,0.0
R,U,"[3, 9]",1.0,10.0,0.35350894927978516,2.133673906326294,0.6816290929588652,19.0,200.0,0.0
,,"(6, 6)",,,,,,,,
R,U,"[5, 6]",1.0,1.0,0.7802278995513916,3.0827929973602295,0.314784325526484,20.0,201.0,0.0
Y,R,"[5, 7]",1.0,2.0,0.21089696884155273,1.667855978012085,0.34918905268918093,20.0,202.0,0.0
Y,R,"[5, 8]",1.0,3.0,0.23392200469970703,1.794097900390625,0.45995110439965947,20.0,203.0,0.0
G,D,"[6, 8]",1.0,4.0,0.24437499046325684,2.0171730518341064,0.6768090507463416,20.0,204.0,0.0
Y,R,"[6, 9]",1.0,5.0,0.22179388999938965,1.7600059509277344,0.4536928248839804,20.0,205.0,0.0
Y,R,"[6, 10]",1.0,6.0,0.2207930088043213,1.7961149215698242,0.4666140804905206,20.0,206.0,0.0
R,U,"[5, 10]",1.0,7.0,0.22559499740600586,1.6693618297576904,0.3360334005762445,20.0,207.0,0.0
R,U,"[4, 10]",1.0,8.0,0.26315784454345703,1.627427101135254,0.26359937494887203,20.0,208.0,0.0
B,L,"[4, 9]",1.0,9.0,0.29833197593688965,1.746243953704834,0.3430436260853423,20.0,209.0,0.0
R,U,"[3, 9]",1.0,10.0,0.21995902061462402,1.7800958156585693,0.4730164604806222,20.0,210.0,0.0
,,"(6, 6)",,,,,,,,
R,U,"[5, 6]",1.0,1.0,0.5714960098266602,2.9781479835510254,0.5179042810540424,21.0,211.0,0.0
Y,R,"[5, 7]",1.0,2.0,0.22426795959472656,2.008121967315674,0.675475602498409,21.0,212.0,0.0
Y,R,"[5, 8]",1.0,3.0,0.19565892219543457,1.7275359630584717,0.4369983153374446,21.0,213.0,0.0
G,D,"[6, 8]",1.0,4.0,0.23123407363891602,1.762321949005127,0.4325949988582866,21.0,214.0,0.0
Y,R,"[6, 9]",1.0,5.0,0.23000216484069824,2.011042833328247,0.6768799993774157,21.0,215.0,0.0
Y,R,"[6, 10]",1.0,6.0,0.1929609775543213,1.9808809757232666,0.690838252829824,21.0,216.0,0.0
R,U,"[5, 10]",1.0,7.0,0.20570087432861328,1.9016311168670654,0.5926975972480693,21.0,217.0,0.0
R,U,"[4, 10]",1.0,8.0,0.22160100936889648,1.838144063949585,0.5309049331859086,21.0,218.0,0.0
B,L,"[4, 9]",1.0,9.0,0.24566197395324707,1.9362678527832031,0.5839302327693492,21.0,219.0,0.0
R,U,"[3, 9]",1.0,10.0,0.19315791130065918,1.6522958278656006,0.35303419358759686,21.0,220.0,0.0
,,"(6, 6)",,,,,,,,
R,U,"[5, 6]",1.0,1.0,0.6548631191253662,3.387831926345825,0.6073527299297284,22.0,221.0,0.0
Y,R,"[5, 7]",1.0,2.0,0.18021106719970703,1.588212013244629,0.3123682423997079,22.0,222.0,0.0
Y,R,"[5, 8]",1.0,3.0,0.2902350425720215,1.7904951572418213,0.402983011974272,22.0,223.0,0.0
G,D,"[6, 8]",1.0,4.0,0.2624239921569824,1.6414811611175537,0.2778808755875545,22.0,224.0,0.0
Y,R,"[6, 9]",1.0,5.0,0.23674893379211426,1.7955858707427979,0.47329740382211105,22.0,225.0,0.0
Y,R,"[6, 10]",1.0,6.0,0.2121880054473877,1.6440749168395996,0.3341615838250864,22.0,226.0,0.0
R,U,"[5, 10]",1.0,7.0,0.22873497009277344,1.6096198558807373,0.27712495052278846,22.0,227.0,0.0
R,U,"[4, 10]",1.0,8.0,0.27517104148864746,1.9050159454345703,0.532019918388795,22.0,228.0,0.0
B,L,"[4, 9]",1.0,9.0,0.2096550464630127,1.9729151725769043,0.6548625640908021,22.0,229.0,0.0
R,U,"[3, 9]",1.0,10.0,0.2377169132232666,1.8768761157989502,0.5485039424616,22.0,230.0,0.0
,,"(6, 6)",,,,,,,,
R,U,"[5, 6]",1.0,1.0,0.7896499633789062,5.347423076629639,0.5628390726171599,23.0,231.0,0.0
Y,R,"[5, 7]",1.0,2.0,0.22780108451843262,1.7142860889434814,0.3603598607609081,23.0,232.0,0.0
Y,R,"[5, 8]",1.0,3.0,0.22185897827148438,1.5940189361572266,0.2878516710428027,23.0,233.0,0.0
G,D,"[6, 8]",1.0,4.0,0.3369100093841553,1.8739359378814697,0.4282280582623737,23.0,234.0,0.0
Y,R,"[6, 9]",1.0,5.0,0.23108696937561035,2.030017852783203,0.7080866337019647,23.0,235.0,0.0
Y,R,"[6, 10]",1.0,6.0,0.19088196754455566,1.9037349224090576,0.6119354828130014,23.0,236.0,0.0
R,U,"[5, 10]",1.0,7.0,0.2890779972076416,1.671571969985962,0.30055929443037194,23.0,237.0,0.0
R,U,"[4, 10]",1.0,8.0,0.20954108238220215,1.8119580745697021,0.49565862971572405,23.0,238.0,0.0
B,L,"[4, 9]",1.0,9.0,0.21666502952575684,2.001417875289917,0.6968321308618908,23.0,239.0,0.0
R,U,"[3, 9]",1.0,10.0,0.2142651081085205,1.7543020248413086,0.43478209556140307,23.0,240.0,0.0
,,"(6, 6)",,,,,,,,
R,U,"[5, 6]",1.0,1.0,0.6387670040130615,3.0036680698394775,0.3720649751293015,24.0,241.0,0.0
Y,R,"[5, 7]",1.0,2.0,0.2573080062866211,1.6545701026916504,0.293107239297183,24.0,242.0,0.0
Y,R,"[5, 8]",1.0,3.0,0.26235508918762207,1.9495151042938232,0.5923958673181615,24.0,243.0,0.0
G,D,"[6, 8]",1.0,4.0,0.20936894416809082,2.0288631916046143,0.7211058931683427,24.0,244.0,0.0
Y,R,"[6, 9]",1.0,5.0,0.2182168960571289,1.6824700832366943,0.3707081752395028,24.0,245.0,0.0
Y,R,"[6, 10]",1.0,6.0,0.2926769256591797,1.922746181488037,0.526556242875037,24.0,246.0,0.0
R,U,"[5, 10]",1.0,7.0,0.2491769790649414,1.8785781860351562,0.5385437632097991,24.0,247.0,0.0
R,U,"[4, 10]",1.0,8.0,0.19316792488098145,1.7175190448760986,0.42275247976005575,24.0,248.0,0.0
B,L,"[4, 9]",1.0,9.0,0.3115220069885254,2.096935987472534,0.6860898873345123,24.0,249.0,0.0
R,U,"[3, 9]",1.0,10.0,0.22649812698364258,1.6683719158172607,0.33817044081608894,24.0,250.0,0.0
,,"(6, 6)",,,,,,,,
R,U,"[5, 6]",1.0,1.0,0.6792011260986328,3.0354950428009033,0.7400095762114653,25.0,251.0,0.0
Y,R,"[5, 7]",1.0,2.0,0.21458101272583008,1.680351972579956,0.3707976556608481,25.0,252.0,0.0
Y,R,"[5, 8]",1.0,3.0,0.26750993728637695,1.9562690258026123,0.5600234681975003,25.0,253.0,0.0
R,U,"[4, 8]",0.0,3.0,0.23235487937927246,1.679124116897583,0.35609083596128377,25.0,254.0,0.0
Y,R,"[4, 9]",1.0,4.0,0.25621604919433594,1.673448085784912,0.31302224580032983,25.0,255.0,0.0
Y,R,"[4, 10]",1.0,5.0,0.3260078430175781,1.7756690979003906,0.3385882196977661,25.0,256.0,0.0
R,U,"[3, 10]",0.0,5.0,0.23923611640930176,1.7357110977172852,0.3909950742562939,25.0,257.0,0.0
R,U,"[2, 10]",0.0,5.0,0.191148042678833,2.0233311653137207,0.7306092740030437,25.0,258.0,0.0
B,L,"[2, 9]",0.0,5.0,0.19553589820861816,1.645576000213623,0.34326228835585054,25.0,259.0,0.0
R,U,"[1, 9]",0.0,5.0,0.2479410171508789,1.8369529247283936,0.4968779752924216,25.0,260.0,0.0
,,"(6, 6)",,,,,,,,
R,U,"[5, 6]",1.0,1.0,0.6859169006347656,3.2706220149993896,0.3843165212675293,26.0,261.0,0.0
Y,R,"[5, 7]",1.0,2.0,0.23941302299499512,1.6488349437713623,0.29989512596653023,26.0,262.0,0.0
Y,R,"[5, 8]",1.0,3.0,0.30928611755371094,2.118846893310547,0.7016277552571648,26.0,263.0,0.0
G,D,"[6, 8]",1.0,4.0,0.2510249614715576,1.722628116607666,0.37453846052391765,26.0,264.0,0.0
Y,R,"[6, 9]",1.0,5.0,0.26386499404907227,2.0716381072998047,0.7125804149242301,26.0,265.0,0.0
Y,R,"[6, 10]",1.0,6.0,0.18655705451965332,1.9212579727172852,0.633845917332114,26.0,266.0,0.0
R,U,"[5, 10]",1.0,7.0,0.2189769744873047,1.6673879623413086,0.35155941834569987,26.0,267.0,0.0
R,U,"[4, 10]",1.0,8.0,0.23583197593688965,1.7907788753509521,0.45889642462869124,26.0,268.0,0.0
B,L,"[4, 9]",1.0,9.0,0.23818087577819824,2.0199458599090576,0.6953102280776586,26.0,269.0,0.0
R,U,"[3, 9]",1.0,10.0,0.14443302154541016,1.8896000385284424,0.6516476357358665,26.0,270.0,0.0
,,"(6, 6)",,,,,,,,
R,U,"[5, 6]",1.0,1.0,0.5920529365539551,2.899245023727417,0.7338041620962469,27.0,271.0,0.0
Y,R,"[5, 7]",1.0,2.0,0.186384916305542,1.7692201137542725,0.48692319244996257,27.0,272.0,0.0
Y,R,"[5, 8]",1.0,3.0,0.2287149429321289,1.7358291149139404,0.40623745453059773,27.0,273.0,0.0
G,D,"[6, 8]",1.0,4.0,0.24292778968811035,1.6660678386688232,0.32238204510966895,27.0,274.0,0.0
Y,R,"[6, 9]",1.0,5.0,0.32006192207336426,1.6663548946380615,0.2554529185691819,27.0,275.0,0.0
Y,R,"[6, 10]",1.0,6.0,0.46842193603515625,2.2654380798339844,0.7038565084727799,27.0,276.0,0.0
R,U,"[5, 10]",1.0,7.0,0.17318010330200195,1.8425500392913818,0.5632341070345265,27.0,277.0,0.0
R,U,"[4, 10]",1.0,8.0,0.18113183975219727,1.9746718406677246,0.6877268617106337,27.0,278.0,0.0
B,L,"[4, 9]",1.0,9.0,0.17623686790466309,1.7597370147705078,0.4810130384356004,27.0,279.0,0.0
R,U,"[3, 9]",1.0,10.0,0.21585798263549805,1.6049070358276367,0.28594205160273173,27.0,280.0,0.0
,,"(6, 6)",,,,,,,,
R,U,"[5, 6]",1.0,1.0,0.4040849208831787,2.941094160079956,0.36059250942106486,28.0,281.0,0.0
Y,R,"[5, 7]",1.0,2.0,0.24946999549865723,1.7268030643463135,0.38720264576323904,28.0,282.0,0.0
Y,R,"[5, 8]",1.0,3.0,0.2365269660949707,1.9056589603424072,0.5592379252875399,28.0,283.0,0.0
G,D,"[6, 8]",1.0,4.0,0.21546196937561035,1.7483899593353271,0.44121479771859573,28.0,284.0,0.0
Y,R,"[6, 9]",1.0,5.0,0.22445893287658691,1.9656398296356201,0.6400676140234864,28.0,285.0,0.0
Y,R,"[6, 10]",1.0,6.0,0.19370794296264648,1.747709035873413,0.4547508668006688,28.0,286.0,0.0
R,U,"[5, 10]",1.0,7.0,0.1586768627166748,1.8275198936462402,0.5653894289839052,28.0,287.0,0.0
R,U,"[4, 10]",1.0,8.0,0.20006608963012695,1.9302380084991455,0.6289507420806772,28.0,288.0,0.0
B,L,"[4, 9]",1.0,9.0,0.23427510261535645,1.8334829807281494,0.47925041085243913,28.0,289.0,0.0
R,U,"[3, 9]",1.0,10.0,0.17902779579162598,1.6234979629516602,0.33632024370205926,28.0,290.0,0.0
,,"(6, 6)",,,,,,,,
R,U,"[5, 6]",1.0,1.0,0.558912992477417,2.8882150650024414,0.34111071238984547,29.0,291.0,0.0
Y,R,"[5, 7]",1.0,2.0,0.21842193603515625,1.9017210006713867,0.5925789594899054,29.0,292.0,0.0
Y,R,"[5, 8]",1.0,3.0,0.20959091186523438,1.7917978763580322,0.4845359502085089,29.0,293.0,0.0
G,D,"[6, 8]",1.0,4.0,0.2110428810119629,1.8974859714508057,0.5820332720248369,29.0,294.0,0.0
Y,R,"[6, 9]",1.0,5.0,0.25844407081604004,1.7418100833892822,0.37406868467023036,29.0,295.0,0.0
Y,R,"[6, 10]",1.0,6.0,0.22207999229431152,1.674739122390747,0.36546165175037354,29.0,296.0,0.0
R,U,"[5, 10]",1.0,7.0,0.22843003273010254,1.8150749206542969,0.48034605367461136,29.0,297.0,0.0
R,U,"[4, 10]",1.0,8.0,0.22231101989746094,1.702199935913086,0.36583064047740305,29.0,298.0,0.0
B,L,"[4, 9]",1.0,9.0,0.2389829158782959,1.6711468696594238,0.32053346205384553,29.0,299.0,0.0
R,U,"[3, 9]",1.0,10.0,0.23805999755859375,1.895967960357666,0.54967160769257,29.0,300.0,0.0
,,"(6, 6)",,,,,,,,
R,U,"[5, 6]",-2.0,0.0,2.294785976409912,4.933703184127808,0.40002985812436126,30.0,301.0,-4.0
Y,R,"[5, 7]",-999.0,0.0,0.5182309150695801,2.1707651615142822,0.5542751570535702,30.0,302.0,-4.0
Y,R,"[5, 8]",-999.0,0.0,0.35590100288391113,1.9557549953460693,0.49339421984600873,30.0,303.0,-4.0
G,D,"[6, 8]",-999.0,0.0,0.3329949378967285,1.7569499015808105,0.33352920620075827,30.0,304.0,-4.0
Y,R,"[6, 9]",-999.0,0.0,0.2230081558227539,1.6950352191925049,0.3787347238670285,30.0,305.0,-4.0
Y,R,"[6, 10]",-999.0,0.0,0.26552510261535645,1.8320810794830322,0.4608128117283607,30.0,306.0,-4.0
R,U,"[5, 10]",-999.0,0.0,0.2670741081237793,1.8363630771636963,0.48050388574282343,30.0,307.0,-4.0
R,U,"[4, 10]",-999.0,0.0,0.21998381614685059,1.7457771301269531,0.42634071823230013,30.0,308.0,-4.0
R,U,"[3, 10]",-999.0,0.0,0.4296140670776367,2.0005688667297363,0.47685902221043797,30.0,309.0,-4.0
B,L,"[3, 9]",-2.0,0.0,1.408691167831421,2.996666193008423,0.5568345497103155,30.0,310.0,1.0
,,"(6, 6)",,,,,,,,
R,U,"[5, 6]",-999.0,0.0,0.6693768501281738,4.943968057632446,0.6507675917171838,31.0,311.0,-4.0
Y,R,"[5, 7]",-999.0,0.0,0.19076299667358398,1.671025037765503,0.388544115243825,31.0,312.0,-4.0
Y,R,"[5, 8]",-999.0,0.0,0.24945998191833496,1.7344751358032227,0.38973675952309267,31.0,313.0,-4.0
R,U,"[4, 8]",-999.0,0.0,0.4833340644836426,2.0621161460876465,0.4851069742252773,31.0,314.0,-4.0
G,D,"[5, 8]",-999.0,0.0,0.46606016159057617,2.076040029525757,0.5112776983327729,31.0,315.0,1.0
,,"(6, 6)",,,,,,,,
B,L,"[5, 8]",-999.0,0.0,0.8957760334014893,4.145603179931641,0.5069277843899158,32.0,316.0,-5.0
B,L,"[5, 8]",-999.0,0.0,0.31998491287231445,2.0635640621185303,0.6536170527638726,32.0,317.0,-5.0
R,U,"[5, 8]",-999.0,0.0,0.40157508850097656,2.0773351192474365,0.5810280641417205,32.0,318.0,-5.0
R,U,"[5, 8]",-999.0,0.0,0.3011739253997803,1.7811381816864014,0.37901357706809113,32.0,319.0,-5.0
G,D,"[6, 8]",-999.0,0.0,0.43585991859436035,1.951728105545044,0.414125551926407,32.0,320.0,1.0
,,"(6, 6)",,,,,,,,
R,U,"[5, 6]",-2.0,0.0,1.3074491024017334,4.835905075073242,0.616530946012446,33.0,321.0,0.0
Y,R,"[5, 7]",1.0,1.0,0.2395939826965332,1.7466449737548828,0.4133397972976063,33.0,322.0,0.0
Y,R,"[5, 8]",1.0,2.0,0.19394493103027344,1.7328112125396729,0.42930902391419834,33.0,323.0,0.0
G,D,"[6, 8]",1.0,3.0,0.20750093460083008,2.037900924682617,0.7171771161323162,33.0,324.0,0.0
Y,R,"[6, 9]",1.0,4.0,0.16906213760375977,1.5848820209503174,0.3189991521761299,33.0,325.0,0.0
Y,R,"[6, 10]",1.0,5.0,0.20995092391967773,1.9226489067077637,0.6080141575571079,33.0,326.0,0.0
R,U,"[5, 10]",1.0,6.0,0.18034911155700684,1.7884550094604492,0.5134229336082023,33.0,327.0,0.0
R,U,"[4, 10]",1.0,7.0,0.19340300559997559,1.8608310222625732,0.5573834056885031,33.0,328.0,0.0
B,L,"[4, 9]",1.0,8.0,0.22069907188415527,1.8388829231262207,0.5295901740409359,33.0,329.0,0.0
R,U,"[3, 9]",1.0,9.0,0.18965387344360352,1.903961181640625,0.6002316434241017,33.0,330.0,0.0
,,"(6, 6)",,,,,,,,
R,U,"[5, 6]",1.0,1.0,0.535369873046875,3.4542770385742188,0.35476354983299013,34.0,331.0,0.0
Y,R,"[5, 7]",1.0,2.0,0.2160038948059082,1.9061520099639893,0.5939776373886966,34.0,332.0,0.0
Y,R,"[5, 8]",1.0,3.0,0.20295500755310059,1.6037509441375732,0.3147887755952906,34.0,333.0,0.0
G,D,"[6, 8]",1.0,4.0,0.22391295433044434,2.049694061279297,0.7141050589988909,34.0,334.0,0.0
Y,R,"[6, 9]",1.0,5.0,0.16108989715576172,1.9771158695220947,0.7078202371753233,34.0,335.0,0.0
Y,R,"[6, 10]",1.0,6.0,0.19849801063537598,1.8535540103912354,0.5615492368715413,34.0,336.0,0.0
R,U,"[5, 10]",1.0,7.0,0.18582487106323242,2.0138330459594727,0.7418636078847862,34.0,337.0,0.0
R,U,"[4, 10]",1.0,8.0,0.1782989501953125,1.8524730205535889,0.5779210619271182,34.0,338.0,0.0
B,L,"[4, 9]",1.0,9.0,0.19212913513183594,1.9099609851837158,0.6212010157244123,34.0,339.0,0.0
R,U,"[3, 9]",1.0,10.0,0.2461850643157959,1.7541730403900146,0.40881016174778423,34.0,340.0,0.0
,,"(6, 6)",,,,,,,,
R,U,"[5, 6]",-999.0,0.0,0.8063011169433594,8.136866092681885,0.3957886493562341,35.0,341.0,-4.0
Y,R,"[5, 7]",-999.0,0.0,0.24996399879455566,1.7951571941375732,0.4409015674942118,35.0,342.0,-4.0
Y,R,"[5, 8]",-999.0,0.0,0.23561906814575195,1.839656114578247,0.5137122544850502,35.0,343.0,-4.0
R,U,"[4, 8]",-999.0,0.0,0.36663317680358887,2.212722063064575,0.7429997394204044,35.0,344.0,-4.0
R,U,"[3, 8]",-999.0,0.0,0.6097731590270996,1.988929033279419,0.28242603993812154,35.0,345.0,1.0
,,"(6, 6)",,,,,,,,
R,U,"[5, 6]",1.0,1.0,0.5827991962432861,3.4093728065490723,0.25860543605984687,36.0,346.0,0.0
Y,R,"[5, 7]",1.0,2.0,0.2460951805114746,1.9927189350128174,0.6507483561569636,36.0,347.0,0.0
Y,R,"[5, 8]",1.0,3.0,0.21257615089416504,1.776831865310669,0.4611647967023947,36.0,348.0,0.0
G,D,"[6, 8]",1.0,4.0,0.2264711856842041,1.8114278316497803,0.48923263216193236,36.0,349.0,0.0
Y,R,"[6, 9]",1.0,5.0,0.2017819881439209,1.6522469520568848,0.35831679268295674,36.0,350.0,0.0
,,"(6, 6)",,,,,,,,
G,D,"[6, 9]",-999.0,0.0,0.6603701114654541,5.103823184967041,0.6285132976265582,37.0,351.0,-5.0
G,D,"[6, 9]",-999.0,0.0,0.27835607528686523,1.9522809982299805,0.5643217297128187,37.0,352.0,-5.0
G,D,"[6, 9]",-999.0,0.0,0.27226686477661133,1.7711567878723145,0.4022105591764396,37.0,353.0,-5.0
B,L,"[6, 9]",-999.0,0.0,0.3560791015625,2.1674790382385254,0.7193377350500909,37.0,354.0,-5.0
B,L,"[6, 9]",-999.0,0.0,0.2181711196899414,1.6249501705169678,0.31144431446610316,37.0,355.0,-5.0
R,U,"[6, 9]",-999.0,0.0,0.5507261753082275,2.309157133102417,0.6697628309001682,37.0,356.0,-5.0
R,U,"[6, 9]",-999.0,0.0,0.2395319938659668,1.8682310581207275,0.5383764823698907,37.0,357.0,-5.0
B,L,"[6, 9]",-999.0,0.0,0.44638514518737793,2.143096923828125,0.598466243342745,37.0,358.0,-5.0
B,L,"[6, 9]",-999.0,0.0,0.2323300838470459,1.940119981765747,0.6050157921735616,37.0,359.0,-5.0
B,L,"[6, 8]",-999.0,0.0,0.4603109359741211,2.0199480056762695,0.4586227341648783,37.0,360.0,1.0
,,"(6, 6)",,,,,,,,
R,U,"[5, 6]",1.0,1.0,0.6041769981384277,7.1345460414886475,0.609575317894401,38.0,361.0,0.0
Y,R,"[5, 7]",1.0,2.0,0.20345091819763184,2.037806987762451,0.7474022942290699,38.0,362.0,0.0
Y,R,"[5, 8]",1.0,3.0,0.23833799362182617,2.0552330017089844,0.7025487394057666,38.0,363.0,0.0
G,D,"[6, 8]",1.0,4.0,0.2228240966796875,2.0633859634399414,0.7326088443535294,38.0,364.0,0.0
Y,R,"[6, 9]",1.0,5.0,0.20037198066711426,1.9972870349884033,0.6966244484784967,38.0,365.0,0.0
Y,R,"[6, 10]",1.0,6.0,0.22492504119873047,1.7120838165283203,0.3756822066395384,38.0,366.0,0.0
R,U,"[5, 10]",1.0,7.0,0.26311206817626953,1.8550610542297363,0.4973743346088881,38.0,367.0,0.0
R,U,"[4, 10]",1.0,8.0,0.1895310878753662,1.7926781177520752,0.49004310598050016,38.0,368.0,0.0
B,L,"[4, 9]",1.0,9.0,0.23225903511047363,1.8556828498840332,0.5290796057434763,38.0,369.0,0.0
R,U,"[3, 9]",1.0,10.0,0.23830103874206543,1.76108980178833,0.4236556939206034,38.0,370.0,0.0
,,"(6, 6)",,,,,,,,
R,U,"[5, 6]",1.0,1.0,0.5833871364593506,3.60392689704895,0.4105861882878603,39.0,371.0,0.0
B,L,"[5, 5]",0.0,1.0,0.21582293510437012,1.6850831508636475,0.37940206839462587,39.0,372.0,0.0
B,L,"[5, 4]",0.0,1.0,0.3807659149169922,2.054809093475342,0.55066259346301,39.0,373.0,0.0
G,D,"[6, 4]",0.0,1.0,0.25970888137817383,1.8010120391845703,0.43508710169249254,39.0,374.0,0.0
Y,R,"[6, 5]",0.0,1.0,0.28962206840515137,1.9271578788757324,0.5288079734874189,39.0,375.0,0.0
Y,R,"[6, 6]",0.0,1.0,0.23340487480163574,1.6182010173797607,0.2973101984422472,39.0,376.0,0.0
R,U,"[5, 6]",0.0,1.0,0.33537793159484863,1.8690550327301025,0.43284739176842085,39.0,377.0,0.0
R,U,"[4, 6]",0.0,1.0,0.270050048828125,1.6515991687774658,0.2680550314863987,39.0,378.0,0.0
B,L,"[4, 5]",0.0,1.0,0.19565796852111816,1.7145178318023682,0.41568762332635034,39.0,379.0,0.0
R,U,"[3, 5]",0.0,1.0,0.18713116645812988,1.671550989151001,0.3872951987587124,39.0,380.0,0.0
,,"(6, 6)",,,,,,,,
R,U,"[5, 6]",1.0,1.0,0.5190529823303223,4.732944011688232,0.6032200440195701,40.0,381.0,0.0
Y,R,"[5, 7]",1.0,2.0,0.22198820114135742,1.9571130275726318,0.6270932296820027,40.0,382.0,0.0
Y,R,"[5, 8]",1.0,3.0,0.221527099609375,1.7764530181884766,0.45373189280133835,40.0,383.0,0.0
G,D,"[6, 8]",1.0,4.0,0.2464148998260498,1.9884247779846191,0.6420508919885515,40.0,384.0,0.0
Y,R,"[6, 9]",1.0,5.0,0.21088409423828125,1.9806249141693115,0.672582980924457,40.0,385.0,0.0
Y,R,"[6, 10]",1.0,6.0,0.20153403282165527,1.5988099575042725,0.3051604179587236,40.0,386.0,0.0
R,U,"[5, 10]",1.0,7.0,0.44748401641845703,2.2863879203796387,0.7410995445926136,40.0,387.0,0.0
R,U,"[4, 10]",1.0,8.0,0.2292640209197998,1.9915330410003662,0.6660511695134743,40.0,388.0,0.0
B,L,"[4, 9]",1.0,9.0,0.21800708770751953,1.886686086654663,0.5695129077282862,40.0,389.0,0.0
R,U,"[3, 9]",1.0,10.0,0.22330617904663086,1.990941047668457,0.6603659887730293,40.0,390.0,0.0
,,"(6, 6)",,,,,,,,
R,U,"[5, 6]",1.0,1.0,0.45626401901245117,6.147314071655273,0.7077989530138293,41.0,391.0,0.0
Y,R,"[5, 7]",1.0,2.0,0.2137908935546875,1.6274311542510986,0.31898416842583505,41.0,392.0,0.0
Y,R,"[5, 8]",1.0,3.0,0.30840492248535156,1.8785948753356934,0.4639211181627775,41.0,393.0,0.0
G,D,"[6, 8]",1.0,4.0,0.2455461025238037,2.069277048110962,0.7162929841863815,41.0,394.0,0.0
Y,R,"[6, 9]",1.0,5.0,0.2242870330810547,2.004626989364624,0.6709281355136227,41.0,395.0,0.0
Y,R,"[6, 10]",1.0,6.0,0.20459699630737305,1.8263909816741943,0.5142219561883186,41.0,396.0,0.0
R,U,"[5, 10]",1.0,7.0,0.21732401847839355,1.8716559410095215,0.5526396433286204,41.0,397.0,0.0
R,U,"[4, 10]",1.0,8.0,0.1883230209350586,1.7674360275268555,0.47003505704194976,41.0,398.0,0.0
B,L,"[4, 9]",1.0,9.0,0.210798978805542,1.5721089839935303,0.25900551003697364,41.0,399.0,0.0
R,U,"[3, 9]",1.0,10.0,0.24776697158813477,1.6268610954284668,0.28581667266786365,41.0,400.0,0.0
,,"(6, 6)",,,,,,,,
R,U,"[5, 6]",1.0,1.0,0.6787979602813721,3.5061278343200684,0.5919831916438008,42.0,401.0,0.0
Y,R,"[5, 7]",1.0,2.0,0.19264698028564453,1.7245099544525146,0.4333708757611642,42.0,402.0,0.0
Y,R,"[5, 8]",1.0,3.0,0.24633097648620605,2.0484440326690674,0.697889488460126,42.0,403.0,0.0
G,D,"[6, 8]",1.0,4.0,0.222304105758667,2.0429301261901855,0.7074816621032873,42.0,404.0,0.0
Y,R,"[6, 9]",1.0,5.0,0.21515512466430664,1.9480011463165283,0.6387976392263376,42.0,405.0,0.0
Y,R,"[6, 10]",1.0,6.0,0.19625401496887207,1.835409164428711,0.5411899074596012,42.0,406.0,0.0
R,U,"[5, 10]",1.0,7.0,0.16596388816833496,1.7608180046081543,0.5019508047849437,42.0,407.0,0.0
R,U,"[4, 10]",1.0,8.0,0.20079994201660156,1.6210432052612305,0.3232446096756283,42.0,408.0,0.0
B,L,"[4, 9]",1.0,9.0,0.41267895698547363,2.096966028213501,0.5864770268231095,42.0,409.0,0.0
R,U,"[3, 9]",1.0,10.0,0.18624091148376465,1.9116220474243164,0.6145304604446185,42.0,410.0,0.0
,,"(6, 6)",,,,,,,,
R,U,"[5, 6]",-999.0,0.0,0.5419929027557373,3.9388909339904785,0.7202829667664092,43.0,411.0,-4.0
Y,R,"[5, 7]",-999.0,0.0,0.25904202461242676,2.0304460525512695,0.6675192173103006,43.0,412.0,-4.0
Y,R,"[5, 8]",-999.0,0.0,0.2641749382019043,1.952746868133545,0.5870175450797166,43.0,413.0,-4.0
R,U,"[4, 8]",-999.0,0.0,0.4439859390258789,2.0525360107421875,0.5062849438837874,43.0,414.0,-4.0
R,U,"[3, 8]",-999.0,0.0,0.5008449554443359,2.2773349285125732,0.6834210548206103,43.0,415.0,1.0
,,"(6, 6)",,,,,,,,
R,U,"[5, 6]",1.0,1.0,0.6071288585662842,4.402688026428223,0.4361960741001062,44.0,416.0,0.0
Y,R,"[5, 7]",1.0,2.0,0.25374579429626465,1.8619740009307861,0.4984008158099841,44.0,417.0,0.0
Y,R,"[5, 8]",1.0,3.0,0.21378016471862793,1.810256004333496,0.49196028773892425,44.0,418.0,0.0
G,D,"[6, 8]",1.0,4.0,0.26930689811706543,1.981593132019043,0.6233916140382663,44.0,419.0,0.0
Y,R,"[6, 9]",1.0,5.0,0.3408992290496826,1.9849262237548828,0.5417144748051843,44.0,420.0,0.0
,,"(6, 6)",,,,,,,,
G,D,"[6, 9]",-999.0,0.0,0.6037750244140625,4.959994077682495,0.5184146589014117,45.0,421.0,-5.0
G,D,"[6, 9]",-999.0,0.0,0.35817599296569824,1.8026401996612549,0.33796974444173583,45.0,422.0,-5.0
G,D,"[6, 9]",-999.0,0.0,0.3389708995819092,1.6958019733428955,0.2505096967080549,45.0,423.0,-5.0
B,L,"[6, 9]",-999.0,0.0,0.33492398262023926,1.906393051147461,0.47332187881279236,45.0,424.0,-5.0
B,L,"[6, 9]",-999.0,0.0,0.25731492042541504,2.014055013656616,0.6707467382781163,45.0,425.0,-5.0
R,U,"[6, 9]",-999.0,0.0,0.21285009384155273,2.022420883178711,0.7097229438481998,45.0,426.0,-5.0
R,U,"[6, 9]",-999.0,0.0,0.2294158935546875,1.9551670551300049,0.63157611200286,45.0,427.0,-5.0
B,L,"[6, 9]",-999.0,0.0,0.22516989707946777,1.9589440822601318,0.6238601827528113,45.0,428.0,-5.0
B,L,"[6, 9]",-999.0,0.0,0.22856903076171875,1.5775070190429688,0.2516416857961435,45.0,429.0,-5.0
Y,R,"[6, 10]",-999.0,0.0,0.4171769618988037,2.0717217922210693,0.5565183301652468,45.0,430.0,1.0
,,"(6, 6)",,,,,,,,
R,U,"[5, 6]",-999.0,0.0,0.5956559181213379,5.420256853103638,0.6601096358808412,46.0,431.0,-4.0
Y,R,"[5, 7]",-999.0,0.0,0.38553595542907715,2.022515058517456,0.5492863951656799,46.0,432.0,-4.0
Y,R,"[5, 8]",-999.0,0.0,0.21398591995239258,1.6332859992980957,0.3161631936532584,46.0,433.0,-4.0
R,U,"[4, 8]",-999.0,0.0,0.45735621452331543,2.2419371604919434,0.6911765782449866,46.0,434.0,-4.0
R,U,"[3, 8]",-999.0,0.0,0.8563821315765381,2.5859780311584473,0.6272090137590303,46.0,435.0,1.0
,,"(6, 6)",,,,,,,,
G,D,"[3, 8]",-999.0,0.0,0.5819330215454102,4.552059173583984,0.5795359190469108,47.0,436.0,-5.0
G,D,"[3, 8]",-999.0,0.0,0.2237699031829834,1.7704150676727295,0.4497809507124322,47.0,437.0,-5.0
G,D,"[3, 8]",-999.0,0.0,0.2526240348815918,1.6555280685424805,0.30540572741420174,47.0,438.0,-5.0
B,L,"[3, 8]",-999.0,0.0,0.2918989658355713,2.086961030960083,0.7087517560767251,47.0,439.0,-5.0
B,L,"[3, 8]",-999.0,0.0,0.23378396034240723,1.7405920028686523,0.4162488109125126,47.0,440.0,-5.0
,,"(6, 6)",,,,,,,,
R,U,"[5, 6]",-999.0,0.0,0.6243288516998291,5.479924917221069,0.5462755468935615,48.0,441.0,-4.0
Y,R,"[5, 7]",-999.0,0.0,0.25470709800720215,2.0362558364868164,0.682415982336458,48.0,442.0,-4.0
Y,R,"[5, 8]",-999.0,0.0,0.2354750633239746,1.657052993774414,0.32313949536880276,48.0,443.0,-4.0
G,D,"[6, 8]",-999.0,0.0,0.5166721343994141,1.980456829071045,0.37024852808224573,48.0,444.0,-4.0
Y,R,"[6, 9]",-999.0,0.0,0.2997910976409912,2.1394128799438477,0.7428011061957269,48.0,445.0,-4.0
Y,R,"[6, 10]",-999.0,0.0,0.25800418853759766,1.597132921218872,0.25703754241439025,48.0,446.0,-4.0
R,U,"[5, 10]",-999.0,0.0,0.4830808639526367,2.1449618339538574,0.5684183241359619,48.0,447.0,-4.0
R,U,"[4, 10]",-999.0,0.0,0.2885589599609375,1.8369269371032715,0.4556124763980979,48.0,448.0,-4.0
R,U,"[3, 10]",-999.0,0.0,0.30597996711730957,1.7443299293518066,0.3501264775106026,48.0,449.0,-4.0
G,D,"[4, 10]",-999.0,0.0,0.4072229862213135,1.8756070137023926,0.35902222820046564,48.0,450.0,1.0
,,"(6, 6)",,,,,,,,
B,L,"[4, 10]",-999.0,0.0,0.8251430988311768,3.715902805328369,0.2583920639176518,49.0,451.0,-5.0
B,L,"[4, 10]",-999.0,0.0,0.2847158908843994,2.0554778575897217,0.6801864537533173,49.0,452.0,-5.0
R,U,"[4, 10]",-999.0,0.0,0.48612117767333984,2.037386894226074,0.45113015219965036,49.0,453.0,-5.0
R,U,"[4, 10]",-999.0,0.0,0.21356606483459473,1.6277830600738525,0.31265708930449576,49.0,454.0,-5.0
R,U,"[3, 10]",-999.0,0.0,0.6188008785247803,2.366533041000366,0.6454444066221661,49.0,455.0,1.0
,,"(6, 6)",,,,,,,,
R,U,"[5, 6]",1.0,1.0,0.6405789852142334,4.886900186538696,0.7325165739430183,50.0,456.0,0.0
Y,R,"[5, 7]",1.0,2.0,0.24984192848205566,1.6542689800262451,0.3037473907911499,50.0,457.0,0.0
Y,R,"[5, 8]",1.0,3.0,0.5260741710662842,1.9603588581085205,0.3309831543586676,50.0,458.0,0.0
G,D,"[6, 8]",1.0,4.0,0.3251791000366211,2.155942916870117,0.7196654917070483,50.0,459.0,0.0
Y,R,"[6, 9]",1.0,5.0,0.19194698333740234,1.640300989151001,0.3438955618660108,50.0,460.0,0.0
,,"(6, 6)",,,,,,,,
R,U,"[5, 6]",-999.0,0.0,0.560460090637207,8.630625009536743,0.25816838538294484,51.0,461.0,-4.0
Y,R,"[5, 7]",-999.0,0.0,0.4641900062561035,2.1928889751434326,0.6340770734628132,51.0,462.0,-4.0
Y,R,"[5, 8]",-999.0,0.0,0.2047879695892334,1.7687208652496338,0.4697100332839456,51.0,463.0,-4.0
G,D,"[6, 8]",-999.0,0.0,0.43172287940979004,2.0522828102111816,0.5221129975382832,51.0,464.0,-4.0
Y,R,"[6, 9]",-999.0,0.0,0.24554204940795898,2.0763790607452393,0.7316353365201397,51.0,465.0,-4.0
Y,R,"[6, 10]",-999.0,0.0,0.21004581451416016,1.7262470722198486,0.4082068408528392,51.0,466.0,-4.0
R,U,"[5, 10]",-999.0,0.0,0.3066592216491699,1.728787899017334,0.3372247911588198,51.0,467.0,-4.0
R,U,"[4, 10]",-999.0,0.0,0.34763407707214355,2.1505799293518066,0.704049906599675,51.0,468.0,-4.0
R,U,"[3, 10]",-999.0,0.0,0.40345096588134766,2.0525388717651367,0.5568310683706483,51.0,469.0,-4.0
R,U,"[2, 10]",-999.0,0.0,0.9285120964050293,2.4481899738311768,0.4218375935610529,51.0,470.0,1.0
,,"(6, 6)",,,,,,,,
R,U,"[5, 6]",1.0,1.0,0.5359420776367188,4.119399785995483,0.30799091337329276,52.0,471.0,0.0
Y,R,"[5, 7]",1.0,2.0,0.32109999656677246,1.7510128021240234,0.3424802573262913,52.0,472.0,0.0
Y,R,"[5, 8]",1.0,3.0,0.18824481964111328,1.7946689128875732,0.503661952896109,52.0,473.0,0.0
G,D,"[6, 8]",1.0,4.0,0.22185587882995605,1.7023818492889404,0.3729314767697801,52.0,474.0,0.0
Y,R,"[6, 9]",1.0,5.0,0.23141217231750488,1.918658971786499,0.5914258021613183,52.0,475.0,0.0
Y,R,"[6, 10]",1.0,6.0,0.24687409400939941,1.9424169063568115,0.6006465871548444,52.0,476.0,0.0
R,U,"[5, 10]",1.0,7.0,0.2886028289794922,1.9050979614257812,0.5056753475743223,52.0,477.0,0.0
R,U,"[4, 10]",1.0,8.0,0.22088003158569336,1.964143991470337,0.6531513624768417,52.0,478.0,0.0
B,L,"[4, 9]",1.0,9.0,0.23510503768920898,1.778764009475708,0.448884820595864,52.0,479.0,0.0
R,U,"[3, 9]",1.0,10.0,0.2481999397277832,1.8057150840759277,0.4545528492742634,52.0,480.0,0.0
,,"(6, 6)",,,,,,,,
R,U,"[5, 6]",-999.0,0.0,0.6421599388122559,3.4716711044311523,0.4430333610771225,53.0,481.0,-4.0
Y,R,"[5, 7]",-999.0,0.0,0.2355499267578125,1.8781189918518066,0.5545398093965688,53.0,482.0,-4.0
Y,R,"[5, 8]",-999.0,0.0,0.23206496238708496,1.5918858051300049,0.2633964519596645,53.0,483.0,-4.0
R,U,"[4, 8]",-999.0,0.0,0.9480280876159668,2.47831392288208,0.4250400498852136,53.0,484.0,-4.0
B,L,"[4, 7]",-999.0,0.0,0.7916359901428223,2.609283924102783,0.7173828300634317,53.0,485.0,1.0
,,"(6, 6)",,,,,,,,
R,U,"[5, 6]",1.0,1.0,0.5850789546966553,3.3782131671905518,0.2960749538871579,54.0,486.0,0.0
Y,R,"[5, 7]",1.0,2.0,0.2062361240386963,1.7924671173095703,0.4883635103891787,54.0,487.0,0.0
Y,R,"[5, 8]",1.0,3.0,0.2043321132659912,1.596303939819336,0.3015202851719822,54.0,488.0,0.0
G,D,"[6, 8]",1.0,4.0,0.27726101875305176,1.8022408485412598,0.4203317620587482,54.0,489.0,0.0
Y,R,"[6, 9]",1.0,5.0,0.22502398490905762,1.8392319679260254,0.5093695847631986,54.0,490.0,0.0
,,"(6, 6)",,,,,,,,
B,L,"[6, 9]",-999.0,0.0,0.5403580665588379,4.1469361782073975,0.5062600523554928,55.0,491.0,-5.0
B,L,"[6, 9]",-999.0,0.0,0.3435249328613281,1.752958059310913,0.3097851781493312,55.0,492.0,-5.0
R,U,"[6, 9]",-999.0,0.0,0.381666898727417,2.1365158557891846,0.6624885271662784,55.0,493.0,-5.0
R,U,"[6, 9]",-999.0,0.0,0.20475196838378906,1.6490600109100342,0.34554035715846204,55.0,494.0,-5.0
R,U,"[5, 9]",-999.0,0.0,0.4606478214263916,2.246628999710083,0.675122843310866,55.0,495.0,1.0
,,"(6, 6)",,,,,,,,
R,U,"[5, 6]",1.0,1.0,0.5610971450805664,9.758944988250732,0.3845872141385108,56.0,496.0,0.0
Y,R,"[5, 7]",1.0,2.0,0.1777510643005371,1.7052109241485596,0.4231032065705178,56.0,497.0,0.0
Y,R,"[5, 8]",1.0,3.0,0.21715879440307617,1.8517611026763916,0.5415586014549084,56.0,498.0,0.0
G,D,"[6, 8]",1.0,4.0,0.22027111053466797,1.8826549053192139,0.5741227107664632,56.0,499.0,0.0
Y,R,"[6, 9]",1.0,5.0,0.20391511917114258,1.7382800579071045,0.4459576250047632,56.0,500.0,0.0
,,"(6, 6)",,,,,,,,
R,U,"[5, 6]",1.0,1.0,0.6663568019866943,5.126666069030762,0.7225152010306348,57.0,501.0,0.0
Y,R,"[5, 7]",1.0,2.0,0.18568205833435059,2.0159192085266113,0.738416384237992,57.0,502.0,0.0
Y,R,"[5, 8]",1.0,3.0,0.2102961540222168,1.857537031173706,0.5462036949047631,57.0,503.0,0.0
G,D,"[6, 8]",1.0,4.0,0.21537518501281738,2.0629711151123047,0.7422674217579215,57.0,504.0,0.0
Y,R,"[6, 9]",1.0,5.0,0.1974639892578125,1.9745261669158936,0.6836752147571084,57.0,505.0,0.0
Y,R,"[6, 10]",1.0,6.0,0.20080804824829102,2.0423789024353027,0.7426984915773136,57.0,506.0,0.0
R,U,"[5, 10]",1.0,7.0,0.2120048999786377,1.6975409984588623,0.3906431928881111,57.0,507.0,0.0
R,U,"[4, 10]",1.0,8.0,0.33798789978027344,1.7047560214996338,0.2788231518546131,57.0,508.0,0.0
B,L,"[4, 9]",1.0,9.0,0.22186803817749023,1.7451460361480713,0.44066631319324406,57.0,509.0,0.0
R,U,"[3, 9]",1.0,10.0,0.22897601127624512,1.861063003540039,0.5348745397987955,57.0,510.0,0.0
,,"(6, 6)",,,,,,,,
R,U,"[5, 6]",1.0,1.0,0.6166930198669434,4.359147071838379,0.44426894319282656,58.0,511.0,0.0
Y,R,"[5, 7]",1.0,2.0,0.22450804710388184,1.6902048587799072,0.3680000262556552,58.0,512.0,0.0
Y,R,"[5, 8]",1.0,3.0,0.22934603691101074,1.8137450218200684,0.4816723162839437,58.0,513.0,0.0
G,D,"[6, 8]",1.0,4.0,0.21585798263549805,1.9218261241912842,0.6033426787496978,58.0,514.0,0.0
Y,R,"[6, 9]",1.0,5.0,0.19489002227783203,1.824186086654663,0.5277285046527684,58.0,515.0,0.0
Y,R,"[6, 10]",1.0,6.0,0.20673894882202148,1.9420340061187744,0.6363038281010218,58.0,516.0,0.0
R,U,"[5, 10]",1.0,7.0,0.1713559627532959,2.01505708694458,0.7346954613778542,58.0,517.0,0.0
R,U,"[4, 10]",1.0,8.0,0.2332611083984375,1.9561898708343506,0.6242953862603657,58.0,518.0,0.0
B,L,"[4, 9]",1.0,9.0,0.22353792190551758,1.7270967960357666,0.40170900997485154,58.0,519.0,0.0
R,U,"[3, 9]",1.0,10.0,0.172652006149292,1.7651169300079346,0.48342231773253824,58.0,520.0,0.0
,,"(6, 6)",,,,,,,,
R,U,"[5, 6]",-999.0,0.0,0.5712800025939941,3.1408350467681885,0.34110660231465056,59.0,521.0,-4.0
Y,R,"[5, 7]",-999.0,0.0,0.22811007499694824,2.0671780109405518,0.7412873035216684,59.0,522.0,-4.0
Y,R,"[5, 8]",-999.0,0.0,0.22755002975463867,1.6685888767242432,0.3436688469252316,59.0,523.0,-4.0
R,U,"[4, 8]",-999.0,0.0,0.5550122261047363,2.3464598655700684,0.7065148534920477,59.0,524.0,-4.0
Y,R,"[4, 9]",-999.0,0.0,0.5419931411743164,1.9901080131530762,0.34699492278243854,59.0,525.0,1.0
,,"(6, 6)",,,,,,,,
B,L,"[4, 9]",-999.0,0.0,0.5801258087158203,4.148267984390259,0.2788398549204858,60.0,526.0,-5.0
B,L,"[4, 9]",-999.0,0.0,0.26446104049682617,2.071748971939087,0.7167790976674632,60.0,527.0,-5.0
R,U,"[4, 9]",-999.0,0.0,0.23763608932495117,1.6712119579315186,0.3383713986860137,60.0,528.0,-5.0
R,U,"[4, 9]",-999.0,0.0,0.2642250061035156,2.0225460529327393,0.6606182194913464,60.0,529.0,-5.0
Y,R,"[4, 10]",-999.0,0.0,0.371441125869751,1.7863121032714844,0.33068233101291383,60.0,530.0,1.0
,,"(6, 6)",,,,,,,,
R,U,"[5, 6]",1.0,1.0,0.6170570850372314,3.6874310970306396,0.28504756636700257,61.0,531.0,0.0
Y,R,"[5, 7]",1.0,2.0,0.5169761180877686,1.9786701202392578,0.36348375432463015,61.0,532.0,0.0
Y,R,"[5, 8]",1.0,3.0,0.2861621379852295,1.7893800735473633,0.4029293743738123,61.0,533.0,0.0
G,D,"[6, 8]",1.0,4.0,0.25713586807250977,1.951606035232544,0.5876865772822397,61.0,534.0,0.0
Y,R,"[6, 9]",1.0,5.0,0.17974090576171875,1.5892090797424316,0.31061906847253606,61.0,535.0,0.0
Y,R,"[6, 10]",1.0,6.0,0.26458311080932617,2.0185699462890625,0.6621081477127011,61.0,536.0,0.0
R,U,"[5, 10]",1.0,7.0,0.5038881301879883,1.8952341079711914,0.3079126336267952,61.0,537.0,0.0
R,U,"[4, 10]",1.0,8.0,0.2609398365020752,1.8849029541015625,0.525835813195673,61.0,538.0,0.0
B,L,"[4, 9]",1.0,9.0,0.2138218879699707,1.6237201690673828,0.3164747101277825,61.0,539.0,0.0
R,U,"[3, 9]",1.0,10.0,0.24169588088989258,1.837857961654663,0.48756984104415935,61.0,540.0,0.0
,,"(6, 6)",,,,,,,,
R,U,"[5, 6]",1.0,1.0,0.5080618858337402,3.0457661151885986,0.3002891444082451,62.0,541.0,0.0
Y,R,"[5, 7]",1.0,2.0,0.32595109939575195,2.0086758136749268,0.5753447350583428,62.0,542.0,0.0
Y,R,"[5, 8]",1.0,3.0,0.1994931697845459,2.0358848571777344,0.7445132519894992,62.0,543.0,0.0
R,U,"[4, 8]",0.0,3.0,0.23704099655151367,2.032949924468994,0.7108704565834074,62.0,544.0,0.0
Y,R,"[4, 9]",1.0,4.0,0.2219560146331787,1.907470941543579,0.5684145013842572,62.0,545.0,0.0
Y,R,"[4, 10]",1.0,5.0,0.2556469440460205,1.8385801315307617,0.4738649185110707,62.0,546.0,0.0
R,U,"[3, 10]",0.0,5.0,0.24092507362365723,1.9478840827941895,0.6050062528790587,62.0,547.0,0.0
Y,R,"[3, 11]",0.0,5.0,0.16384291648864746,1.6304941177368164,0.3691536058492445,62.0,548.0,0.0
B,L,"[3, 10]",0.0,5.0,0.36937999725341797,2.071092128753662,0.590068261262817,62.0,549.0,0.0
B,L,"[3, 9]",1.0,6.0,0.22819304466247559,1.6974420547485352,0.3710709742116666,62.0,550.0,0.0
,,"(6, 6)",,,,,,,,
R,U,"[5, 6]",1.0,1.0,0.5208730697631836,7.525518894195557,0.31352493962938416,63.0,551.0,0.0
Y,R,"[5, 7]",1.0,2.0,0.25911879539489746,1.7240991592407227,0.35417869725071033,63.0,552.0,0.0
Y,R,"[5, 8]",1.0,3.0,0.28365182876586914,2.1057560443878174,0.7262421538304639,63.0,553.0,0.0
G,D,"[6, 8]",1.0,4.0,0.2614400386810303,2.059558868408203,0.7025174097212437,63.0,554.0,0.0
Y,R,"[6, 9]",1.0,5.0,0.10481691360473633,1.93585205078125,0.7218179939578184,63.0,555.0,0.0
Y,R,"[6, 10]",1.0,6.0,0.21711492538452148,1.9745008945465088,0.6629863654642567,63.0,556.0,0.0
R,U,"[5, 10]",1.0,7.0,0.31557703018188477,2.0453829765319824,0.6252480047952954,63.0,557.0,0.0
R,U,"[4, 10]",1.0,8.0,0.24019694328308105,1.918125867843628,0.5767254583171999,63.0,558.0,0.0
B,L,"[4, 9]",1.0,9.0,0.24255800247192383,2.074871778488159,0.7347710073657635,63.0,559.0,0.0
R,U,"[3, 9]",1.0,10.0,0.22691607475280762,1.6970179080963135,0.3654582413620615,63.0,560.0,0.0
,,"(6, 6)",,,,,,,,
R,U,"[5, 6]",-999.0,0.0,0.600970983505249,4.56351900100708,0.5293637449533266,64.0,561.0,-4.0
Y,R,"[5, 7]",-999.0,0.0,0.24875807762145996,1.94468092918396,0.5903969932722384,64.0,562.0,-4.0
Y,R,"[5, 8]",-999.0,0.0,0.31354212760925293,1.6837451457977295,0.27445401273655684,64.0,563.0,-4.0
G,D,"[6, 8]",-999.0,0.0,0.4082179069519043,2.143435001373291,0.6508555217721692,64.0,564.0,-4.0
Y,R,"[6, 9]",-999.0,0.0,0.2108469009399414,1.8112730979919434,0.49568062996874307,64.0,565.0,-4.0
Y,R,"[6, 10]",-999.0,0.0,0.2617518901824951,1.8507499694824219,0.47991865761885183,64.0,566.0,-4.0
R,U,"[5, 10]",-999.0,0.0,0.2588160037994385,1.950483798980713,0.5802258383224117,64.0,567.0,-4.0
R,U,"[4, 10]",-999.0,0.0,0.15985107421875,1.8192150592803955,0.5495301489631016,64.0,568.0,-4.0
R,U,"[3, 10]",-999.0,0.0,0.21534514427185059,1.9407379627227783,0.6236638471668552,64.0,569.0,-4.0
R,U,"[2, 10]",-999.0,0.0,0.2812681198120117,1.6492209434509277,0.2731539736494839,64.0,570.0,1.0
,,"(6, 6)",,,,,,,,
R,U,"[5, 6]",1.0,1.0,0.5719549655914307,3.5677061080932617,0.45741649845572585,65.0,571.0,0.0
Y,R,"[5, 7]",1.0,2.0,0.233734130859375,1.839428186416626,0.5134924267791288,65.0,572.0,0.0
Y,R,"[5, 8]",1.0,3.0,0.24466800689697266,1.9281790256500244,0.575058243067923,65.0,573.0,0.0
G,D,"[6, 8]",1.0,4.0,0.23087596893310547,1.7238101959228516,0.39899948407559294,65.0,574.0,0.0
Y,R,"[6, 9]",1.0,5.0,0.22507596015930176,1.6795079708099365,0.34527941644495846,65.0,575.0,0.0
Y,R,"[6, 10]",1.0,6.0,0.23422598838806152,2.0168018341064453,0.6950869130566057,65.0,576.0,0.0
R,U,"[5, 10]",1.0,7.0,0.2073960304260254,1.6625819206237793,0.35793860006941786,65.0,577.0,0.0
R,U,"[4, 10]",1.0,8.0,0.27779197692871094,1.8044450283050537,0.42917161173441903,65.0,578.0,0.0
B,L,"[4, 9]",1.0,9.0,0.267833948135376,1.7793030738830566,0.4251751169535657,65.0,579.0,0.0
R,U,"[3, 9]",1.0,10.0,0.22576904296875,1.7028191089630127,0.37802274959819887,65.0,580.0,0.0
,,"(6, 6)",,,,,,,,
R,U,"[5, 6]",1.0,1.0,0.49344396591186523,4.152478933334351,0.26410499286192957,66.0,581.0,0.0
Y,R,"[5, 7]",1.0,2.0,0.25512218475341797,2.0059399604797363,0.6529466207686828,66.0,582.0,0.0
Y,R,"[5, 8]",1.0,3.0,0.21104001998901367,1.5958759784698486,0.2825762515559688,66.0,583.0,0.0
G,D,"[6, 8]",1.0,4.0,0.35323596000671387,1.738011121749878,0.2872779112291941,66.0,584.0,0.0
Y,R,"[6, 9]",1.0,5.0,0.24515318870544434,1.9818620681762695,0.6355764299237526,66.0,585.0,0.0
Y,R,"[6, 10]",1.0,6.0,0.22419309616088867,2.04899001121521,0.7178070974565642,66.0,586.0,0.0
R,U,"[5, 10]",1.0,7.0,0.20202088356018066,1.8347749710083008,0.5361781898160028,66.0,587.0,0.0
R,U,"[4, 10]",1.0,8.0,0.23486995697021484,1.860328197479248,0.5298277939838424,66.0,588.0,0.0
B,L,"[4, 9]",1.0,9.0,0.23797106742858887,1.9935410022735596,0.6566820135615288,66.0,589.0,0.0
R,U,"[3, 9]",1.0,10.0,0.228834867477417,1.820024013519287,0.4934888459312908,66.0,590.0,0.0
,,"(6, 6)",,,,,,,,
B,L,"[3, 9]",-999.0,0.0,0.5547261238098145,3.4405059814453125,0.6838201190956724,67.0,591.0,-5.0
B,L,"[3, 9]",-999.0,0.0,0.22397303581237793,1.8186941146850586,0.5027568913104,67.0,592.0,-5.0
R,U,"[3, 9]",-999.0,0.0,0.23175621032714844,1.9085841178894043,0.5781012262403392,67.0,593.0,-5.0
R,U,"[3, 9]",-999.0,0.0,0.2207779884338379,1.6911931037902832,0.38605695598926915,67.0,594.0,-5.0
B,L,"[3, 8]",-999.0,0.0,0.4050920009613037,1.9148321151733398,0.41765981290590504,67.0,595.0,1.0
,,"(6, 6)",,,,,,,,
B,L,"[3, 8]",-999.0,0.0,0.6370241641998291,3.456916093826294,0.4078973366899433,68.0,596.0,-5.0
B,L,"[3, 8]",-999.0,0.0,0.2281360626220703,1.8189961910247803,0.4935640892347346,68.0,597.0,-5.0
R,U,"[3, 8]",-999.0,0.0,0.22942209243774414,1.6310880184173584,0.3081144988719742,68.0,598.0,-5.0
R,U,"[3, 8]",-999.0,0.0,0.23625493049621582,1.6585497856140137,0.3334436839822481,68.0,599.0,-5.0
B,L,"[3, 7]",-999.0,0.0,0.2514338493347168,2.016937017440796,0.6666899817209238,68.0,600.0,1.0
,,"(6, 6)",,,,,,,,
R,U,"[5, 6]",1.0,1.0,0.5445549488067627,5.091068983078003,0.27506906239185247,69.0,601.0,0.0
Y,R,"[5, 7]",1.0,2.0,0.22105002403259277,1.9586279392242432,0.6333178273686727,69.0,602.0,0.0
Y,R,"[5, 8]",1.0,3.0,0.2323901653289795,2.0740420818328857,0.7406399081805939,69.0,603.0,0.0
G,D,"[6, 8]",1.0,4.0,0.2071530818939209,1.804292917251587,0.4950577768841433,69.0,604.0,0.0
Y,R,"[6, 9]",1.0,5.0,0.18796801567077637,1.6571040153503418,0.38561903868113856,69.0,605.0,0.0
Y,R,"[6, 10]",1.0,6.0,0.18920397758483887,1.783616065979004,0.4859098630789751,69.0,606.0,0.0
R,U,"[5, 10]",1.0,7.0,0.2353661060333252,1.8967230319976807,0.565783972356686,69.0,607.0,0.0
R,U,"[4, 10]",1.0,8.0,0.22890496253967285,1.979971170425415,0.6457263711216021,69.0,608.0,0.0
B,L,"[4, 9]",1.0,9.0,0.23951315879821777,1.8793761730194092,0.5253515093013947,69.0,609.0,0.0
R,U,"[3, 9]",1.0,10.0,0.24904608726501465,2.0219900608062744,0.6806745259390331,69.0,610.0,0.0
,,"(6, 6)",,,,,,,,
R,U,"[5, 6]",-999.0,0.0,0.5264790058135986,4.39230489730835,0.5896354295505624,70.0,611.0,-4.0
Y,R,"[5, 7]",-999.0,0.0,0.2597529888153076,1.884079933166504,0.5239125980808392,70.0,612.0,-4.0
Y,R,"[5, 8]",-999.0,0.0,0.23343896865844727,2.0309648513793945,0.7047031532776855,70.0,613.0,-4.0
G,D,"[6, 8]",-999.0,0.0,0.2772829532623291,1.9104020595550537,0.532038275108946,70.0,614.0,-4.0
Y,R,"[6, 9]",-999.0,0.0,0.20913386344909668,1.5988740921020508,0.29777147190213,70.0,615.0,-4.0
Y,R,"[6, 10]",-999.0,0.0,0.2796440124511719,2.127249002456665,0.7412319770484751,70.0,616.0,-4.0
R,U,"[5, 10]",-999.0,0.0,0.28388094902038574,1.850222110748291,0.47518509181336394,70.0,617.0,-4.0
R,U,"[4, 10]",-999.0,0.0,0.21410298347473145,1.6128780841827393,0.3048680255551183,70.0,618.0,-4.0
R,U,"[3, 10]",-999.0,0.0,0.28214216232299805,1.9908998012542725,0.612180040457039,70.0,619.0,-4.0
B,L,"[3, 9]",-999.0,0.0,0.29846906661987305,1.9047110080718994,0.500243792430626,70.0,620.0,1.0
,,"(6, 6)",,,,,,,,
R,U,"[5, 6]",1.0,1.0,0.4098927974700928,3.039884090423584,0.3404468387532566,71.0,621.0,0.0
Y,R,"[5, 7]",1.0,2.0,0.20644497871398926,2.0112619400024414,0.7013717008948799,71.0,622.0,0.0
Y,R,"[5, 8]",1.0,3.0,0.20854902267456055,1.901535987854004,0.5863258322648184,71.0,623.0,0.0
G,D,"[6, 8]",1.0,4.0,0.24140000343322754,1.7486491203308105,0.40202522913529865,71.0,624.0,0.0
Y,R,"[6, 9]",1.0,5.0,0.6222190856933594,2.204710006713867,0.4733533855812954,71.0,625.0,0.0
Y,R,"[6, 10]",1.0,6.0,0.25696492195129395,1.9734718799591064,0.6132982384997182,71.0,626.0,0.0
R,U,"[5, 10]",1.0,7.0,0.2107830047607422,1.881126880645752,0.5611737674146281,71.0,627.0,0.0
R,U,"[4, 10]",1.0,8.0,0.30606794357299805,1.8493049144744873,0.44396286577929134,71.0,628.0,0.0
B,L,"[4, 9]",1.0,9.0,0.25115108489990234,2.0273020267486572,0.6877162962074268,71.0,629.0,0.0
R,U,"[3, 9]",1.0,10.0,0.20194697380065918,1.8887550830841064,0.5933605865835295,71.0,630.0,0.0
,,"(6, 6)",,,,,,,,
R,U,"[5, 6]",1.0,1.0,0.43888401985168457,8.245944023132324,0.7059339216701418,72.0,631.0,0.0
Y,R,"[5, 7]",1.0,2.0,0.21292591094970703,1.9717490673065186,0.6612322289927008,72.0,632.0,0.0
Y,R,"[5, 8]",1.0,3.0,0.1882929801940918,1.9338619709014893,0.6449515109216734,72.0,633.0,0.0
G,D,"[6, 8]",1.0,4.0,0.26106691360473633,2.0543570518493652,0.6993254780925157,72.0,634.0,0.0
Y,R,"[6, 9]",1.0,5.0,0.23197603225708008,1.7636539936065674,0.4299467384368203,72.0,635.0,0.0
Y,R,"[6, 10]",1.0,6.0,0.24107789993286133,1.8745338916778564,0.5209122810353524,72.0,636.0,0.0
R,U,"[5, 10]",1.0,7.0,0.25434398651123047,2.016889810562134,0.6546800027426383,72.0,637.0,0.0
R,U,"[4, 10]",1.0,8.0,0.26556921005249023,1.9046449661254883,0.542633189224295,72.0,638.0,0.0
B,L,"[4, 9]",1.0,9.0,0.263775110244751,1.9996180534362793,0.6421982344691334,72.0,639.0,0.0
R,U,"[3, 9]",1.0,10.0,0.2907688617706299,1.9664978981018066,0.5754801149501674,72.0,640.0,0.0
,,"(6, 6)",,,,,,,,
R,U,"[5, 6]",1.0,1.0,0.533667802810669,7.854737997055054,0.41393124330981745,73.0,641.0,0.0
Y,R,"[5, 7]",1.0,2.0,0.2335960865020752,1.6472389698028564,0.3111955068358942,73.0,642.0,0.0
Y,R,"[5, 8]",1.0,3.0,0.40018796920776367,1.7662160396575928,0.277477525435479,73.0,643.0,0.0
G,D,"[6, 8]",1.0,4.0,0.5696918964385986,2.031822919845581,0.3759709811993789,73.0,644.0,0.0
Y,R,"[6, 9]",1.0,5.0,0.20154213905334473,1.7166831493377686,0.42597693695626304,73.0,645.0,0.0
Y,R,"[6, 10]",1.0,6.0,0.24381685256958008,1.9057769775390625,0.5649714169061546,73.0,646.0,0.0
R,U,"[5, 10]",1.0,7.0,0.19108200073242188,2.0279040336608887,0.7260233947048482,73.0,647.0,0.0
R,U,"[4, 10]",1.0,8.0,0.24367785453796387,2.0484941005706787,0.7080032158937561,73.0,648.0,0.0
B,L,"[4, 9]",1.0,9.0,0.250730037689209,1.866650104522705,0.5246592934290247,73.0,649.0,0.0
R,U,"[3, 9]",1.0,10.0,0.2202138900756836,1.6495230197906494,0.34130116326237464,73.0,650.0,0.0
,,"(6, 6)",,,,,,,,
R,U,"[5, 6]",1.0,1.0,0.5509960651397705,3.9437148571014404,0.33512456569310994,74.0,651.0,0.0
Y,R,"[5, 7]",1.0,2.0,0.28520894050598145,2.0632758140563965,0.681254614757161,74.0,652.0,0.0
Y,R,"[5, 8]",1.0,3.0,0.2284529209136963,1.6344258785247803,0.2994441338218916,74.0,653.0,0.0
G,D,"[6, 8]",1.0,4.0,0.30411386489868164,1.8690099716186523,0.4513839412675418,74.0,654.0,0.0
Y,R,"[6, 9]",1.0,5.0,0.17436695098876953,1.8636679649353027,0.5816615159382192,74.0,655.0,0.0
Y,R,"[6, 10]",1.0,6.0,0.2321929931640625,1.6819357872009277,0.3475090836435418,74.0,656.0,0.0
R,U,"[5, 10]",1.0,7.0,0.2818911075592041,1.9964849948883057,0.6102932470837303,74.0,657.0,0.0
R,U,"[4, 10]",1.0,8.0,0.23661494255065918,1.9015629291534424,0.5786376117311284,74.0,658.0,0.0
B,L,"[4, 9]",1.0,9.0,0.10461997985839844,1.7848529815673828,0.5805078667004836,74.0,659.0,0.0
R,U,"[3, 9]",1.0,10.0,0.22963309288024902,1.6371099948883057,0.30100263708995606,74.0,660.0,0.0
,,"(6, 6)",,,,,,,,
R,U,"[5, 6]",1.0,1.0,0.6039159297943115,6.515655994415283,0.7329750784458955,75.0,661.0,0.0
Y,R,"[5, 7]",1.0,2.0,0.20999979972839355,2.040147066116333,0.7230471760749209,75.0,662.0,0.0
Y,R,"[5, 8]",1.0,3.0,0.21176791191101074,1.618514060974121,0.3086737189945033,75.0,663.0,0.0
G,D,"[6, 8]",1.0,4.0,0.2772219181060791,2.1202099323272705,0.745193145590384,75.0,664.0,0.0
Y,R,"[6, 9]",1.0,5.0,0.21985101699829102,2.0399019718170166,0.7351034126719957,75.0,665.0,0.0
Y,R,"[6, 10]",1.0,6.0,0.21051692962646484,1.9257090091705322,0.6109601595082471,75.0,666.0,0.0
R,U,"[5, 10]",1.0,7.0,0.30039000511169434,1.9012761116027832,0.5123915636138936,75.0,667.0,0.0
R,U,"[4, 10]",1.0,8.0,0.28257012367248535,1.8800830841064453,0.4925701871200894,75.0,668.0,0.0
B,L,"[4, 9]",1.0,9.0,0.5238780975341797,2.000682830810547,0.37675210612889726,75.0,669.0,0.0
R,U,"[3, 9]",1.0,10.0,0.364224910736084,1.9967069625854492,0.5398831947044215,75.0,670.0,0.0
,,"(6, 6)",,,,,,,,
R,U,"[5, 6]",1.0,1.0,0.7590000629425049,3.791314125061035,0.39810322407632287,76.0,671.0,0.0
Y,R,"[5, 7]",1.0,2.0,0.24984407424926758,1.6624181270599365,0.3106261266856485,76.0,672.0,0.0
Y,R,"[5, 8]",1.0,3.0,0.37001705169677734,2.0841991901397705,0.6279174943497587,76.0,673.0,0.0
G,D,"[6, 8]",1.0,4.0,0.24701619148254395,1.8176870346069336,0.47912586922518086,76.0,674.0,0.0
Y,R,"[6, 9]",1.0,5.0,0.23145699501037598,1.7657339572906494,0.4115269507526639,76.0,675.0,0.0
Y,R,"[6, 10]",1.0,6.0,0.2606689929962158,2.0182719230651855,0.6629971723102763,76.0,676.0,0.0
R,U,"[5, 10]",1.0,7.0,0.21853208541870117,1.827672004699707,0.5074865193565683,76.0,677.0,0.0
R,U,"[4, 10]",1.0,8.0,0.28580713272094727,2.028841972351074,0.6528937098121839,76.0,678.0,0.0
B,L,"[4, 9]",1.0,9.0,0.2445530891418457,1.8918330669403076,0.5448592488182491,76.0,679.0,0.0
R,U,"[3, 9]",1.0,10.0,0.19421815872192383,1.5937080383300781,0.30545790046865384,76.0,680.0,0.0
,,"(6, 6)",,,,,,,,
R,U,"[5, 6]",1.0,1.0,0.5489380359649658,4.750368118286133,0.722231598594727,77.0,681.0,0.0
Y,R,"[5, 7]",1.0,2.0,0.20738816261291504,1.610166072845459,0.29948369828616,77.0,682.0,0.0
Y,R,"[5, 8]",1.0,3.0,0.26068782806396484,1.7787158489227295,0.4114233993607,77.0,683.0,0.0
G,D,"[6, 8]",1.0,4.0,0.2513389587402344,1.9995079040527344,0.6606995510429439,77.0,684.0,0.0
Y,R,"[6, 9]",1.0,5.0,0.1954030990600586,1.9235830307006836,0.6342568167372035,77.0,685.0,0.0
Y,R,"[6, 10]",1.0,6.0,0.2067568302154541,1.8658218383789062,0.5502991727325941,77.0,686.0,0.0
R,U,"[5, 10]",1.0,7.0,0.20054292678833008,1.6328270435333252,0.33339802583407513,77.0,687.0,0.0
R,U,"[4, 10]",1.0,8.0,0.23499703407287598,2.022732973098755,0.6888267759760054,77.0,688.0,0.0
B,L,"[4, 9]",1.0,9.0,0.2474379539489746,1.900230884552002,0.5560741764359076,77.0,689.0,0.0
R,U,"[3, 9]",1.0,10.0,0.13364386558532715,1.641706943511963,0.41474261567375215,77.0,690.0,0.0
,,"(6, 6)",,,,,,,,
B,L,"[3, 9]",-999.0,0.0,0.6140058040618896,6.0958030223846436,0.2607959036587863,78.0,691.0,-5.0
B,L,"[3, 9]",-999.0,0.0,0.25842785835266113,1.674787998199463,0.3188650819413909,78.0,692.0,-5.0
R,U,"[3, 9]",-999.0,0.0,0.1939709186553955,1.8141119480133057,0.5161143264523562,78.0,693.0,-5.0
R,U,"[3, 9]",-999.0,0.0,0.21094703674316406,1.8494901657104492,0.5323664046668068,78.0,694.0,-5.0
G,D,"[4, 9]",-999.0,0.0,0.31544017791748047,2.1527140140533447,0.7348373975661648,78.0,695.0,1.0
,,"(6, 6)",,,,,,,,
B,L,"[4, 9]",-999.0,0.0,0.8422479629516602,3.696920871734619,0.34900860194614125,79.0,696.0,-5.0
B,L,"[4, 9]",-999.0,0.0,0.22104310989379883,1.6659529209136963,0.34820737442194444,79.0,697.0,-5.0
R,U,"[4, 9]",-2.0,0.0,1.3995580673217773,2.773414134979248,0.3384314083178171,79.0,698.0,-5.0
R,U,"[4, 9]",-999.0,0.0,0.3073267936706543,1.920699119567871,0.525476737811079,79.0,699.0,-5.0
G,D,"[5, 9]",-999.0,0.0,0.2952389717102051,2.1281120777130127,0.736582596323818,79.0,700.0,1.0
,,"(6, 6)",,,,,,,,
R,U,"[5, 6]",1.0,1.0,0.49864697456359863,11.458369970321655,0.6454902595579319,80.0,701.0,0.0
Y,R,"[5, 7]",1.0,2.0,0.22331690788269043,1.8679649829864502,0.5468068321856434,80.0,702.0,0.0
Y,R,"[5, 8]",1.0,3.0,0.22637391090393066,1.6899950504302979,0.35366766772047326,80.0,703.0,0.0
G,D,"[6, 8]",1.0,4.0,0.3282959461212158,2.171555995941162,0.7415508666442088,80.0,704.0,0.0
Y,R,"[6, 9]",1.0,5.0,0.18900108337402344,1.769982099533081,0.4784936538925432,80.0,705.0,0.0
Y,R,"[6, 10]",1.0,6.0,0.35460710525512695,2.1147139072418213,0.6769182632215973,80.0,706.0,0.0
R,U,"[5, 10]",1.0,7.0,0.17986702919006348,1.8162190914154053,0.542675835390483,80.0,707.0,0.0
R,U,"[4, 10]",1.0,8.0,0.1845560073852539,1.6173632144927979,0.34355713696999735,80.0,708.0,0.0
B,L,"[4, 9]",1.0,9.0,0.23580503463745117,1.8130669593811035,0.4899615715455823,80.0,709.0,0.0
R,U,"[3, 9]",1.0,10.0,0.33802008628845215,2.1608970165252686,0.7339259454722703,80.0,710.0,0.0
,,"(6, 6)",,,,,,,,
R,U,"[5, 6]",1.0,1.0,0.6613490581512451,6.706812143325806,0.4745021068477896,81.0,711.0,0.0
Y,R,"[5, 7]",1.0,2.0,0.25063395500183105,1.9692201614379883,0.6268884321675685,81.0,712.0,0.0
Y,R,"[5, 8]",-1.0,2.0,0.0002589225769042969,5.711179971694946,0.5881977086022614,81.0,713.0,0.0
Y,R,"[5, 9]",0.0,2.0,0.1977238655090332,1.6464838981628418,0.35155074506144424,81.0,714.0,0.0
Y,R,"[5, 10]",1.0,3.0,0.208388090133667,1.5883429050445557,0.27336544909081995,81.0,715.0,0.0
Y,R,"[5, 11]",0.0,3.0,0.35445499420166016,2.132300853729248,0.6719968168106817,81.0,716.0,0.0
R,U,"[4, 11]",0.0,3.0,0.27234601974487305,1.8652029037475586,0.48743941359684434,81.0,717.0,0.0
B,L,"[4, 10]",1.0,4.0,0.1755049228668213,1.8648650646209717,0.5854259111570059,81.0,718.0,0.0
R,U,"[3, 10]",0.0,4.0,0.1742229461669922,1.5985770225524902,0.31748849702530485,81.0,719.0,0.0
B,L,"[3, 9]",1.0,5.0,0.27057385444641113,1.7979950904846191,0.4155682752178839,81.0,720.0,0.0
,,"(6, 6)",,,,,,,,
G,D,"[3, 9]",-999.0,0.0,0.7226769924163818,5.193145036697388,0.6419961170712858,82.0,721.0,-5.0
G,D,"[3, 9]",-999.0,0.0,0.2639780044555664,2.0505359172821045,0.6924646653804452,82.0,722.0,-5.0
G,D,"[3, 9]",-999.0,0.0,0.44258689880371094,2.1406540870666504,0.6000258355559096,82.0,723.0,-5.0
B,L,"[3, 9]",-999.0,0.0,0.25953102111816406,2.0024120807647705,0.6356625849375652,82.0,724.0,-5.0
B,L,"[3, 9]",-999.0,0.0,0.1938002109527588,2.0104660987854004,0.7125184731677997,82.0,725.0,-5.0
R,U,"[3, 9]",-999.0,0.0,0.21561908721923828,1.7577800750732422,0.4375577487430991,82.0,726.0,-5.0
R,U,"[3, 9]",-999.0,0.0,0.19560003280639648,1.8826889991760254,0.5866178241132735,82.0,727.0,-5.0
B,L,"[3, 9]",-999.0,0.0,0.47397279739379883,1.933109998703003,0.3535427964674184,82.0,728.0,-5.0
B,L,"[3, 9]",-999.0,0.0,0.20013093948364258,1.8583569526672363,0.5616170699727123,82.0,729.0,-5.0
Y,R,"[3, 10]",-999.0,0.0,0.6223750114440918,2.3332090377807617,0.5947890183755431,82.0,730.0,1.0
,,"(6, 6)",,,,,,,,
R,U,"[5, 6]",1.0,1.0,0.6396510601043701,15.087003946304321,0.3158396214783647,83.0,731.0,0.0
Y,R,"[5, 7]",1.0,2.0,0.3559110164642334,2.1214709281921387,0.653448326672108,83.0,732.0,0.0
Y,R,"[5, 8]",1.0,3.0,0.21725893020629883,1.7497339248657227,0.43669657430480685,83.0,733.0,0.0
G,D,"[6, 8]",1.0,4.0,0.2195601463317871,1.7770299911499023,0.4303992790183482,83.0,734.0,0.0
Y,R,"[6, 9]",1.0,5.0,0.2543978691101074,1.7036819458007812,0.350910506042478,83.0,735.0,0.0
Y,R,"[6, 10]",1.0,6.0,0.23426103591918945,2.020604133605957,0.6878060161911885,83.0,736.0,0.0
R,U,"[5, 10]",1.0,7.0,0.21584796905517578,2.0515220165252686,0.7392879645942235,83.0,737.0,0.0
R,U,"[4, 10]",1.0,8.0,0.21304106712341309,1.875398874282837,0.5649620984347083,83.0,738.0,0.0
B,L,"[4, 9]",1.0,9.0,0.17767810821533203,1.8303170204162598,0.5453379349583982,83.0,739.0,0.0
R,U,"[3, 9]",1.0,10.0,0.2261810302734375,1.6554641723632812,0.3343967095981272,83.0,740.0,0.0
,,"(6, 6)",,,,,,,,
R,U,"[5, 6]",1.0,1.0,0.6640529632568359,10.261960983276367,0.7126385978670817,84.0,741.0,0.0
Y,R,"[5, 7]",1.0,2.0,0.39606499671936035,1.8253538608551025,0.3217615205308539,84.0,742.0,0.0
Y,R,"[5, 8]",1.0,3.0,0.3380880355834961,1.6923058032989502,0.2642055944517531,84.0,743.0,0.0
G,D,"[6, 8]",1.0,4.0,0.3125760555267334,1.9334290027618408,0.5140075213968269,84.0,744.0,0.0
Y,R,"[6, 9]",1.0,5.0,0.2534501552581787,1.6911709308624268,0.3387508020391357,84.0,745.0,0.0
Y,R,"[6, 10]",1.0,6.0,0.35985398292541504,2.2042860984802246,0.7428429859954755,84.0,746.0,0.0
R,U,"[5, 10]",1.0,7.0,0.1962590217590332,1.588818073272705,0.29871970056816205,84.0,747.0,0.0
R,U,"[4, 10]",1.0,8.0,0.25792598724365234,1.9949021339416504,0.626605319666947,84.0,748.0,0.0
B,L,"[4, 9]",1.0,9.0,0.21986913681030273,1.654891014099121,0.3484781162134763,84.0,749.0,0.0
R,U,"[3, 9]",1.0,10.0,0.3509559631347656,1.7605500221252441,0.30897617750350337,84.0,750.0,0.0
,,"(6, 6)",,,,,,,,
R,U,"[5, 6]",-999.0,0.0,0.911884069442749,3.788296937942505,0.564017917516475,85.0,751.0,-4.0
Y,R,"[5, 7]",-999.0,0.0,0.18847084045410156,1.6940288543701172,0.40808671392542334,85.0,752.0,-4.0
Y,R,"[5, 8]",-999.0,0.0,0.23717403411865234,1.8973948955535889,0.571919225637417,85.0,753.0,-4.0
R,U,"[4, 8]",-999.0,0.0,0.5263569355010986,1.8912229537963867,0.2635149388541524,85.0,754.0,-4.0
R,U,"[3, 8]",-999.0,0.0,0.6604559421539307,2.09092116355896,0.3209908380818221,85.0,755.0,1.0
,,"(6, 6)",,,,,,,,
R,U,"[5, 6]",-2.0,0.0,1.109679937362671,5.482033014297485,0.30321218239928216,86.0,756.0,0.0
Y,R,"[5, 7]",1.0,1.0,0.31031203269958496,2.0356969833374023,0.6219731203418447,86.0,757.0,0.0
Y,R,"[5, 8]",1.0,2.0,0.18895888328552246,1.61279296875,0.318248890974507,86.0,758.0,0.0
G,D,"[6, 8]",1.0,3.0,0.2576580047607422,1.8373868465423584,0.4722691710750441,86.0,759.0,0.0
Y,R,"[6, 9]",1.0,4.0,0.19992399215698242,1.8219389915466309,0.527549000730402,86.0,760.0,0.0
,,"(6, 6)",,,,,,,,
R,U,"[5, 6]",-999.0,0.0,0.5785348415374756,6.067624807357788,0.5785994852655647,87.0,761.0,-4.0
Y,R,"[5, 7]",-999.0,0.0,0.22173309326171875,1.8789269924163818,0.5741011165629539,87.0,762.0,-4.0
Y,R,"[5, 8]",-999.0,0.0,0.21639299392700195,1.7016258239746094,0.39254023079524863,87.0,763.0,-4.0
R,U,"[4, 8]",-999.0,0.0,0.27064085006713867,1.9875190258026123,0.6298982854421105,87.0,764.0,-4.0
R,U,"[3, 8]",-999.0,0.0,0.4900050163269043,2.227652072906494,0.6242435195082829,87.0,765.0,1.0
,,"(6, 6)",,,,,,,,
R,U,"[5, 6]",-999.0,0.0,0.6172270774841309,3.6101419925689697,0.5845961964146547,88.0,766.0,-4.0
Y,R,"[5, 7]",-999.0,0.0,0.20219087600708008,1.9203219413757324,0.6214573691764822,88.0,767.0,-4.0
Y,R,"[5, 8]",-999.0,0.0,0.19284391403198242,1.6390540599822998,0.34428599927329234,88.0,768.0,-4.0
G,D,"[6, 8]",-999.0,0.0,0.6054701805114746,2.4281628131866455,0.7386044218984998,88.0,769.0,-4.0
Y,R,"[6, 9]",-999.0,0.0,0.22520208358764648,1.9499950408935547,0.6388047015575302,88.0,770.0,-4.0
,,"(6, 6)",,,,,,,,
G,D,"[6, 9]",-999.0,0.0,0.6930601596832275,4.509336948394775,0.58140505922442,89.0,771.0,-5.0
G,D,"[6, 9]",-999.0,0.0,0.47443509101867676,2.2506368160247803,0.6654687354738493,89.0,772.0,-5.0
G,D,"[6, 9]",-999.0,0.0,0.266909122467041,1.6949520111083984,0.3273934181043696,89.0,773.0,-5.0
B,L,"[6, 9]",-999.0,0.0,0.37369394302368164,2.16282320022583,0.7065996691131369,89.0,774.0,-5.0
B,L,"[6, 9]",-999.0,0.0,0.1999340057373047,1.622265100479126,0.329219387094683,89.0,775.0,-5.0
R,U,"[6, 9]",-999.0,0.0,0.2941160202026367,1.8011538982391357,0.3968488406985366,89.0,776.0,-5.0
R,U,"[6, 9]",-999.0,0.0,0.30874109268188477,2.1435208320617676,0.7236318814711228,89.0,777.0,-5.0
B,L,"[6, 9]",-999.0,0.0,0.5594019889831543,1.9967410564422607,0.33730497752075506,89.0,778.0,-5.0
B,L,"[6, 9]",-999.0,0.0,0.31951904296875,1.816437005996704,0.40373154339622247,89.0,779.0,-5.0
G,D,"[7, 9]",-999.0,0.0,0.7385189533233643,2.4512059688568115,0.6048580397421164,89.0,780.0,1.0
,,"(6, 6)",,,,,,,,
R,U,"[5, 6]",1.0,1.0,0.7196109294891357,3.6929080486297607,0.5977096301508571,90.0,781.0,0.0
Y,R,"[5, 7]",1.0,2.0,0.21802115440368652,1.60211181640625,0.28353064217843144,90.0,782.0,0.0
Y,R,"[5, 8]",1.0,3.0,0.3273348808288574,1.8887698650360107,0.4554689320739952,90.0,783.0,0.0
G,D,"[6, 8]",1.0,4.0,0.21307086944580078,1.619776964187622,0.30875190654353185,90.0,784.0,0.0
Y,R,"[6, 9]",1.0,5.0,0.2782909870147705,2.0102901458740234,0.6353621099345272,90.0,785.0,0.0
Y,R,"[6, 10]",1.0,6.0,0.2601029872894287,1.6145539283752441,0.25030030574411755,90.0,786.0,0.0
R,U,"[5, 10]",1.0,7.0,0.3020448684692383,1.8531858921051025,0.45345931696660524,90.0,787.0,0.0
R,U,"[4, 10]",1.0,8.0,0.20589089393615723,1.671138048171997,0.3579872042030363,90.0,788.0,0.0
B,L,"[4, 9]",1.0,9.0,0.4285259246826172,2.1309549808502197,0.6053744045561205,90.0,789.0,0.0
R,U,"[3, 9]",1.0,10.0,0.13327288627624512,1.748121976852417,0.5201626880971532,90.0,790.0,0.0
,,"(6, 6)",,,,,,,,
R,U,"[5, 6]",-999.0,0.0,0.6284239292144775,3.262928009033203,0.733048978827789,91.0,791.0,-4.0
Y,R,"[5, 7]",-999.0,0.0,0.24877214431762695,1.696692943572998,0.34687503672532016,91.0,792.0,-4.0
Y,R,"[5, 8]",-999.0,0.0,0.22980809211730957,1.7536659240722656,0.41704239575530605,91.0,793.0,-4.0
G,D,"[6, 8]",-999.0,0.0,0.4547128677368164,1.8702378273010254,0.3207068778630111,91.0,794.0,-4.0
Y,R,"[6, 9]",-999.0,0.0,0.4396369457244873,1.873918056488037,0.3279695232121061,91.0,795.0,-4.0
Y,R,"[6, 10]",-999.0,0.0,0.3167240619659424,1.7585771083831787,0.3532098988184036,91.0,796.0,-4.0
R,U,"[5, 10]",-999.0,0.0,0.42118310928344727,1.8739869594573975,0.3606319593425723,91.0,797.0,-4.0
R,U,"[4, 10]",-999.0,0.0,0.2546248435974121,1.9929440021514893,0.6531804735229224,91.0,798.0,-4.0
R,U,"[3, 10]",-999.0,0.0,0.3892099857330322,1.744570016860962,0.26499735281020076,91.0,799.0,-4.0
B,L,"[3, 9]",-999.0,0.0,0.6403641700744629,2.1858561038970947,0.4338596267307418,91.0,800.0,1.0
,,"(6, 6)",,,,,,,,
R,U,"[5, 6]",1.0,1.0,0.5153999328613281,3.9496419429779053,0.4500089510492467,92.0,801.0,0.0
Y,R,"[5, 7]",1.0,2.0,0.2232649326324463,1.9481148719787598,0.6148974806748997,92.0,802.0,0.0
Y,R,"[5, 8]",1.0,3.0,0.21422290802001953,1.7774109840393066,0.4591623244274832,92.0,803.0,0.0
G,D,"[6, 8]",1.0,4.0,0.2521088123321533,1.8882708549499512,0.5473618533487177,92.0,804.0,0.0
Y,R,"[6, 9]",1.0,5.0,0.26012301445007324,1.8628218173980713,0.4934101455950906,92.0,805.0,0.0
Y,R,"[6, 10]",1.0,6.0,0.23503684997558594,1.9575560092926025,0.6344534657270324,92.0,806.0,0.0
R,U,"[5, 10]",1.0,7.0,0.20923614501953125,1.741746187210083,0.4264128224992949,92.0,807.0,0.0
R,U,"[4, 10]",1.0,8.0,0.2761721611022949,2.1188459396362305,0.7449083171621516,92.0,808.0,0.0
B,L,"[4, 9]",1.0,9.0,0.2765219211578369,1.791322946548462,0.4199782924059055,92.0,809.0,0.0
R,U,"[3, 9]",1.0,10.0,0.29209089279174805,2.1292672157287598,0.7321486999747288,92.0,810.0,0.0
,,"(6, 6)",,,,,,,,
R,U,"[5, 6]",1.0,1.0,0.7768940925598145,5.47425103187561,0.7231423126244068,93.0,811.0,0.0
Y,R,"[5, 7]",1.0,2.0,0.22089910507202148,1.5746910572052002,0.26490803805564744,93.0,812.0,0.0
Y,R,"[5, 8]",1.0,3.0,0.6175768375396729,2.0086591243743896,0.2903292305994393,93.0,813.0,0.0
G,D,"[6, 8]",1.0,4.0,0.44188809394836426,2.0086750984191895,0.4656184833680745,93.0,814.0,0.0
Y,R,"[6, 9]",1.0,5.0,0.2518470287322998,1.6248290538787842,0.27392591286536455,93.0,815.0,0.0
Y,R,"[6, 10]",1.0,6.0,0.2696821689605713,1.6783249378204346,0.3188227075141716,93.0,816.0,0.0
R,U,"[5, 10]",1.0,7.0,0.2566659450531006,1.790869951248169,0.4262904344091535,93.0,817.0,0.0
R,U,"[4, 10]",1.0,8.0,0.21199703216552734,1.6106600761413574,0.3037574012905693,93.0,818.0,0.0
B,L,"[4, 9]",1.0,9.0,0.37254786491394043,1.8464210033416748,0.3668570949833026,93.0,819.0,0.0
R,U,"[3, 9]",1.0,10.0,0.297313928604126,1.6537089347839355,0.25396114274068654,93.0,820.0,0.0
,,"(6, 6)",,,,,,,,
R,U,"[5, 6]",1.0,1.0,0.6966512203216553,4.9892590045928955,0.4764679182419825,94.0,821.0,0.0
Y,R,"[5, 7]",1.0,2.0,0.4473378658294678,2.2406890392303467,0.7002271909131861,94.0,822.0,0.0
Y,R,"[5, 8]",1.0,3.0,0.2301630973815918,1.7662770748138428,0.43347152031629554,94.0,823.0,0.0
G,D,"[6, 8]",1.0,4.0,0.3305971622467041,2.0486037731170654,0.6152728062349744,94.0,824.0,0.0
Y,R,"[6, 9]",1.0,5.0,0.32938098907470703,1.8488600254058838,0.4143354386612983,94.0,825.0,0.0
Y,R,"[6, 10]",1.0,6.0,0.35067296028137207,1.7689809799194336,0.31686044784999434,94.0,826.0,0.0
R,U,"[5, 10]",1.0,7.0,0.4172029495239258,2.0074799060821533,0.4908001857487769,94.0,827.0,0.0
R,U,"[4, 10]",1.0,8.0,0.4094719886779785,1.7800989151000977,0.27103899751549404,94.0,828.0,0.0
B,L,"[4, 9]",1.0,9.0,0.6161589622497559,2.4593029022216797,0.7466827048522853,94.0,829.0,0.0
R,U,"[3, 9]",1.0,10.0,0.24643588066101074,2.0165648460388184,0.6633207027376199,94.0,830.0,0.0
,,"(6, 6)",,,,,,,,
R,U,"[5, 6]",1.0,1.0,0.5898890495300293,3.7706668376922607,0.5841359969786428,95.0,831.0,0.0
Y,R,"[5, 7]",1.0,2.0,0.2611851692199707,1.8780169486999512,0.512181624923723,95.0,832.0,0.0
Y,R,"[5, 8]",1.0,3.0,0.34865498542785645,2.1355950832366943,0.6976281020612507,95.0,833.0,0.0
G,D,"[6, 8]",1.0,4.0,0.29172396659851074,1.7356770038604736,0.33367277506883997,95.0,834.0,0.0
B,L,"[6, 7]",0.0,4.0,0.4923670291900635,1.9917941093444824,0.3920877318373383,95.0,835.0,0.0
Y,R,"[6, 8]",0.0,4.0,0.39832496643066406,2.0250449180603027,0.5337985652552376,95.0,836.0,0.0
Y,R,"[6, 9]",1.0,5.0,0.2496030330657959,1.6521708965301514,0.30279071066421975,95.0,837.0,0.0
Y,R,"[6, 10]",1.0,6.0,0.4445960521697998,2.285545825958252,0.7378840890654719,95.0,838.0,0.0
R,U,"[5, 10]",1.0,7.0,0.20771312713623047,1.799320936203003,0.48761257770102295,95.0,839.0,0.0
R,U,"[4, 10]",1.0,8.0,0.4227311611175537,2.216324806213379,0.6869664918390955,95.0,840.0,0.0
,,"(6, 6)",,,,,,,,
R,U,"[5, 6]",-999.0,0.0,0.7874209880828857,3.610167980194092,0.3475330501538799,96.0,841.0,-4.0
Y,R,"[5, 7]",-999.0,0.0,0.4756190776824951,1.9724059104919434,0.3866169043848235,96.0,842.0,-4.0
Y,R,"[5, 8]",-999.0,0.0,0.25318312644958496,1.7047069072723389,0.3577483840767035,96.0,843.0,-4.0
G,D,"[6, 8]",-999.0,0.0,0.604097843170166,2.160310983657837,0.468374664973307,96.0,844.0,-4.0
Y,R,"[6, 9]",-999.0,0.0,0.47752809524536133,2.148442029953003,0.5666843470642877,96.0,845.0,-4.0
Y,R,"[6, 10]",-999.0,0.0,0.1994779109954834,1.5877280235290527,0.2879744191109537,96.0,846.0,-4.0
R,U,"[5, 10]",-999.0,0.0,0.26021504402160645,1.6738708019256592,0.3118327494048837,96.0,847.0,-4.0
R,U,"[4, 10]",-999.0,0.0,0.20859408378601074,1.8308968544006348,0.5258170046420207,96.0,848.0,-4.0
R,U,"[3, 10]",-999.0,0.0,0.22134613990783691,1.8030850887298584,0.49558305619488646,96.0,849.0,-4.0
B,L,"[3, 9]",-999.0,0.0,0.3458130359649658,2.022017002105713,0.567668297398991,96.0,850.0,1.0
,,"(6, 6)",,,,,,,,
G,D,"[3, 9]",-999.0,0.0,0.685276985168457,4.424422025680542,0.6587912313550175,97.0,851.0,-5.0
G,D,"[3, 9]",-999.0,0.0,0.27294087409973145,1.84739089012146,0.4895160189737821,97.0,852.0,-5.0
G,D,"[3, 9]",-999.0,0.0,0.22188687324523926,1.7733869552612305,0.46294929826091596,97.0,853.0,-5.0
B,L,"[3, 9]",-999.0,0.0,0.41735219955444336,2.1931209564208984,0.6724291808666671,97.0,854.0,-5.0
B,L,"[3, 9]",-999.0,0.0,0.2512679100036621,1.9630770683288574,0.6192371981514224,97.0,855.0,-5.0
R,U,"[3, 9]",-999.0,0.0,0.22807693481445312,1.7897248268127441,0.45898818964332827,97.0,856.0,-5.0
R,U,"[3, 9]",-999.0,0.0,0.2484879493713379,2.0430219173431396,0.7018337912210274,97.0,857.0,-5.0
B,L,"[3, 9]",-999.0,0.0,0.6100301742553711,2.325770854949951,0.6110967266762994,97.0,858.0,-5.0
B,L,"[3, 9]",-999.0,0.0,0.218994140625,2.0427498817443848,0.7369013836547543,97.0,859.0,-5.0
G,D,"[4, 9]",-999.0,0.0,0.35811805725097656,1.8464808464050293,0.38381804980312556,97.0,860.0,1.0
,,"(6, 6)",,,,,,,,
G,D,"[4, 9]",-999.0,0.0,0.8198130130767822,3.94064998626709,0.5077537023028049,98.0,861.0,-5.0
G,D,"[4, 9]",-999.0,0.0,0.2377171516418457,1.5993311405181885,0.2740967698212023,98.0,862.0,-5.0
G,D,"[4, 9]",-999.0,0.0,0.2599358558654785,1.9147770404815674,0.5551432604332516,98.0,863.0,-5.0
B,L,"[4, 9]",-999.0,0.0,0.21020793914794922,1.6888270378112793,0.37736950904043276,98.0,864.0,-5.0
B,L,"[4, 9]",-999.0,0.0,0.2067887783050537,1.597489833831787,0.3084714987627493,98.0,865.0,-5.0
R,U,"[4, 9]",-999.0,0.0,0.6440939903259277,2.4582340717315674,0.7162729540675947,98.0,866.0,-5.0
R,U,"[4, 9]",-999.0,0.0,0.2124929428100586,1.9403879642486572,0.6235475860224231,98.0,867.0,-5.0
B,L,"[4, 9]",-999.0,0.0,0.22940301895141602,1.603585958480835,0.27743028747897003,98.0,868.0,-5.0
B,L,"[4, 9]",-999.0,0.0,0.39420008659362793,2.035959005355835,0.5464822530602746,98.0,869.0,-5.0
G,D,"[5, 9]",-999.0,0.0,0.48208189010620117,2.30517315864563,0.7181467839491753,98.0,870.0,1.0
,,"(6, 6)",,,,,,,,
G,D,"[5, 9]",-999.0,0.0,0.6882030963897705,4.1536500453948975,0.7051692101189653,99.0,871.0,-5.0
G,D,"[5, 9]",-999.0,0.0,0.2003769874572754,2.0292410850524902,0.7345431859679861,99.0,872.0,-5.0
G,D,"[5, 9]",-999.0,0.0,0.2577369213104248,1.8485851287841797,0.4998257782655939,99.0,873.0,-5.0
B,L,"[5, 9]",-999.0,0.0,0.20627403259277344,1.9292080402374268,0.6290128433577153,99.0,874.0,-5.0
B,L,"[5, 9]",-999.0,0.0,0.2768077850341797,1.955845832824707,0.5680674075559775,99.0,875.0,-5.0
R,U,"[5, 9]",-999.0,0.0,0.27368903160095215,1.8427729606628418,0.4779150807090128,99.0,876.0,-5.0
R,U,"[5, 9]",-999.0,0.0,0.25858592987060547,1.5928058624267578,0.2542868608518329,99.0,877.0,-5.0
B,L,"[5, 9]",-999.0,0.0,0.27082300186157227,2.034411907196045,0.6715205443660799,99.0,878.0,-5.0
B,L,"[5, 9]",-999.0,0.0,0.2193901538848877,1.8181397914886475,0.5066107569171499,99.0,879.0,-5.0
G,D,"[6, 9]",-999.0,0.0,0.3130989074707031,1.7209420204162598,0.31099548529961685,99.0,880.0,1.0
,,"(6, 6)",,,,,,,,
R,U,"[5, 6]",1.0,1.0,0.7451732158660889,3.983566999435425,0.34456120012892194,100.0,881.0,0.0
Y,R,"[5, 7]",1.0,2.0,0.3651120662689209,1.8466479778289795,0.39124280732571975,100.0,882.0,0.0
Y,R,"[5, 8]",1.0,3.0,0.2663910388946533,1.8187029361724854,0.45983546927880375,100.0,883.0,0.0
G,D,"[6, 8]",1.0,4.0,0.28855013847351074,1.8452918529510498,0.45473004880544454,100.0,884.0,0.0
Y,R,"[6, 9]",1.0,5.0,0.25462818145751953,1.8479909896850586,0.4863654754590072,100.0,885.0,0.0
Y,R,"[6, 10]",1.0,6.0,0.26298999786376953,1.9417338371276855,0.5781717620883455,100.0,886.0,0.0
R,U,"[5, 10]",1.0,7.0,0.1885359287261963,1.8760929107666016,0.6042427361310658,100.0,887.0,0.0
R,U,"[4, 10]",1.0,8.0,0.26522302627563477,1.7120869159698486,0.35006867766741184,100.0,888.0,0.0
B,L,"[4, 9]",1.0,9.0,0.27472805976867676,1.8861629962921143,0.5026568358172461,100.0,889.0,0.0
R,U,"[3, 9]",1.0,10.0,0.22209882736206055,2.003074884414673,0.6722485782334938,100.0,890.0,0.0
,,"(6, 6)",,,,,,,,
R,U,"[5, 6]",1.0,1.0,0.7577362060546875,5.12192702293396,0.7441057939739264,101.0,891.0,0.0
Y,R,"[5, 7]",1.0,2.0,0.20278000831604004,1.9755079746246338,0.6863770922349413,101.0,892.0,0.0
Y,R,"[5, 8]",1.0,3.0,0.21022796630859375,1.8150441646575928,0.5016088845343953,101.0,893.0,0.0
G,D,"[6, 8]",1.0,4.0,0.2613108158111572,1.8402519226074219,0.47520649194492515,101.0,894.0,0.0
Y,R,"[6, 9]",1.0,5.0,0.2508120536804199,2.062505006790161,0.7208804036677353,101.0,895.0,0.0
Y,R,"[6, 10]",1.0,6.0,0.2800102233886719,1.994189977645874,0.6151162659012095,101.0,896.0,0.0
R,U,"[5, 10]",1.0,7.0,0.2505919933319092,2.082943916320801,0.7313522628196336,101.0,897.0,0.0
R,U,"[4, 10]",1.0,8.0,0.1885979175567627,1.6408939361572266,0.3393255729421407,101.0,898.0,0.0
B,L,"[4, 9]",1.0,9.0,0.35372090339660645,1.7316150665283203,0.27116261690325816,101.0,899.0,0.0
R,U,"[3, 9]",1.0,10.0,0.3104248046875,2.1443679332733154,0.7317311864922436,101.0,900.0,0.0
,,"(6, 6)",,,,,,,,
R,U,"[5, 6]",1.0,1.0,0.652122974395752,7.790925979614258,0.48951237151088206,102.0,901.0,0.0
Y,R,"[5, 7]",1.0,2.0,0.21032190322875977,1.6424808502197266,0.332228889281652,102.0,902.0,0.0
Y,R,"[5, 8]",1.0,3.0,0.2501230239868164,2.0552310943603516,0.7036569973397591,102.0,903.0,0.0
G,D,"[6, 8]",1.0,4.0,0.20390796661376953,1.6755650043487549,0.37945604944900363,102.0,904.0,0.0
Y,R,"[6, 9]",1.0,5.0,0.37218594551086426,2.0339460372924805,0.5468030307776497,102.0,905.0,0.0
Y,R,"[6, 10]",1.0,6.0,0.20573806762695312,1.597012996673584,0.2774294912772101,102.0,906.0,0.0
R,U,"[5, 10]",1.0,7.0,0.2564830780029297,1.6257710456848145,0.2698980659903356,102.0,907.0,0.0
R,U,"[4, 10]",1.0,8.0,0.24734997749328613,1.81870698928833,0.47174482121101197,102.0,908.0,0.0
B,L,"[4, 9]",1.0,9.0,0.15870094299316406,1.744560956954956,0.483279312287705,102.0,909.0,0.0
R,U,"[3, 9]",1.0,10.0,0.2351701259613037,1.603018045425415,0.2695575202345762,102.0,910.0,0.0
,,"(6, 6)",,,,,,,,
R,U,"[5, 6]",1.0,1.0,0.757526159286499,4.013282060623169,0.599213087020839,103.0,911.0,0.0
Y,R,"[5, 7]",-1.0,1.0,0.04101419448852539,5.770711898803711,0.6033708317188459,103.0,912.0,0.0
Y,R,"[5, 8]",1.0,2.0,0.34131383895874023,1.7852530479431152,0.3388497337063588,103.0,913.0,0.0
Y,R,"[5, 9]",0.0,2.0,0.2565329074859619,1.6903331279754639,0.32921200464293904,103.0,914.0,0.0
G,D,"[6, 9]",1.0,3.0,0.21025896072387695,1.769576072692871,0.46534481042253006,103.0,915.0,0.0
Y,R,"[6, 10]",1.0,4.0,0.20691919326782227,1.9885411262512207,0.6702984799884071,103.0,916.0,0.0
Y,R,"[6, 11]",0.0,4.0,0.2150709629058838,1.659642219543457,0.3469558249490834,103.0,917.0,0.0
Y,R,"[6, 10]",-3.0,4.0,0.2483839988708496,1.934635877609253,0.5813240537539652,103.0,918.0,0.0
R,U,"[5, 10]",1.0,5.0,0.34059596061706543,2.1235568523406982,0.671536367277436,103.0,919.0,0.0
R,U,"[4, 10]",1.0,6.0,0.2192380428314209,1.872910976409912,0.5612723431563237,103.0,920.0,0.0
,,"(6, 6)",,,,,,,,
R,U,"[5, 6]",1.0,1.0,0.724384069442749,4.223438024520874,0.5848546886429196,104.0,921.0,0.0
Y,R,"[5, 7]",1.0,2.0,0.23717594146728516,1.9290800094604492,0.5804328116827165,104.0,922.0,0.0
Y,R,"[5, 8]",1.0,3.0,0.2526249885559082,1.9781429767608643,0.6252331471834529,104.0,923.0,0.0
G,D,"[6, 8]",1.0,4.0,0.22873902320861816,1.9325449466705322,0.6079727577481568,104.0,924.0,0.0
Y,R,"[6, 9]",1.0,5.0,0.23740601539611816,1.8682019710540771,0.542897898734145,104.0,925.0,0.0
Y,R,"[6, 10]",1.0,6.0,0.2087240219116211,1.8555378913879395,0.5484752761229201,104.0,926.0,0.0
R,U,"[5, 10]",1.0,7.0,0.4000530242919922,1.7762508392333984,0.2747928748907862,104.0,927.0,0.0
R,U,"[4, 10]",1.0,8.0,0.34447288513183594,1.7450299263000488,0.3033865006391457,104.0,928.0,0.0
B,L,"[4, 9]",1.0,9.0,0.26389598846435547,2.025509834289551,0.6618917615457244,104.0,929.0,0.0
R,U,"[3, 9]",1.0,10.0,0.2312300205230713,1.616650104522705,0.2954238202862676,104.0,930.0,0.0
,,"(6, 6)",,,,,,,,
R,U,"[5, 6]",1.0,1.0,0.7322561740875244,3.9030020236968994,0.7480643969966421,105.0,931.0,0.0
Y,R,"[5, 7]",-1.0,1.0,0.014634847640991211,5.485722064971924,0.33420722843285866,105.0,932.0,0.0
Y,R,"[5, 8]",1.0,2.0,0.3123490810394287,1.7264699935913086,0.3106993830988263,105.0,933.0,0.0
Y,R,"[5, 9]",0.0,2.0,0.32601380348205566,1.6856400966644287,0.26313891576146803,105.0,934.0,0.0
Y,R,"[5, 10]",1.0,3.0,0.2790980339050293,2.109044075012207,0.7216591027264301,105.0,935.0,0.0
G,D,"[6, 10]",1.0,4.0,0.20242094993591309,1.5751979351043701,0.2806786039769926,105.0,936.0,0.0
Y,R,"[6, 11]",0.0,4.0,0.29784202575683594,2.089063882827759,0.6860355540470626,105.0,937.0,0.0
Y,R,"[6, 10]",-1.0,4.0,0.04009199142456055,5.8264689445495605,0.6625184317150463,105.0,938.0,0.0
Y,R,"[6, 11]",0.0,4.0,0.38462281227111816,1.739189863204956,0.2521811877346963,105.0,939.0,0.0
G,D,"[7, 11]",0.0,4.0,0.4609949588775635,1.89835786819458,0.33382857274024635,105.0,940.0,0.0
,,"(6, 6)",,,,,,,,
R,U,"[5, 6]",1.0,1.0,0.5022518634796143,4.544486999511719,0.39499863773671207,106.0,941.0,0.0
Y,R,"[5, 7]",1.0,2.0,0.28908586502075195,1.9638190269470215,0.5753032673893219,106.0,942.0,0.0
Y,R,"[5, 8]",1.0,3.0,0.2384779453277588,1.6402490139007568,0.31583226529430725,106.0,943.0,0.0
G,D,"[6, 8]",1.0,4.0,0.2998039722442627,2.076267957687378,0.6751680983435762,106.0,944.0,0.0
Y,R,"[6, 9]",1.0,5.0,0.21190309524536133,1.9279990196228027,0.6198610456833357,106.0,945.0,0.0
Y,R,"[6, 10]",1.0,6.0,0.21334290504455566,1.7488272190093994,0.4355396289354351,106.0,946.0,0.0
R,U,"[5, 10]",1.0,7.0,0.2686009407043457,1.6409690380096436,0.2766525922206243,106.0,947.0,0.0
R,U,"[4, 10]",1.0,8.0,0.3363320827484131,2.0563299655914307,0.6324967132478956,106.0,948.0,0.0
B,L,"[4, 9]",1.0,9.0,0.25243592262268066,1.7420039176940918,0.3916911356972454,106.0,949.0,0.0
R,U,"[3, 9]",1.0,10.0,0.3157310485839844,1.7057619094848633,0.2974482185905092,106.0,950.0,0.0
,,"(6, 6)",,,,,,,,
R,U,"[5, 6]",1.0,1.0,0.4370429515838623,3.7679569721221924,0.681902123487186,107.0,951.0,0.0
B,L,"[5, 5]",0.0,1.0,0.25050783157348633,1.7119779586791992,0.36065362876152585,107.0,952.0,0.0
Y,R,"[5, 6]",0.0,1.0,0.2746310234069824,1.690126895904541,0.3175614465347901,107.0,953.0,0.0
Y,R,"[5, 7]",1.0,2.0,0.30620598793029785,1.7376830577850342,0.321975168300264,107.0,954.0,0.0
Y,R,"[5, 8]",1.0,3.0,0.314424991607666,1.7631778717041016,0.35175510668188714,107.0,955.0,0.0
G,D,"[6, 8]",1.0,4.0,0.22643709182739258,1.7464849948883057,0.4148091636909087,107.0,956.0,0.0
Y,R,"[6, 9]",1.0,5.0,0.2244870662689209,1.7316970825195312,0.3965321049860797,107.0,957.0,0.0
Y,R,"[6, 10]",1.0,6.0,0.25440311431884766,1.8058490753173828,0.43568946442967715,107.0,958.0,0.0
R,U,"[5, 10]",1.0,7.0,0.24934911727905273,1.7092161178588867,0.36169585040720154,107.0,959.0,0.0
R,U,"[4, 10]",1.0,8.0,0.28202390670776367,1.6730999946594238,0.3016342971142874,107.0,960.0,0.0
,,"(6, 6)",,,,,,,,
R,U,"[5, 6]",1.0,1.0,0.5839710235595703,3.6862058639526367,0.48758773221482893,108.0,961.0,0.0
Y,R,"[5, 7]",1.0,2.0,0.3488731384277344,2.1564929485321045,0.7104700250356757,108.0,962.0,0.0
Y,R,"[5, 8]",1.0,3.0,0.2301948070526123,2.010668992996216,0.6877719392268886,108.0,963.0,0.0
G,D,"[6, 8]",1.0,4.0,0.23145103454589844,1.6056609153747559,0.27741377593896144,108.0,964.0,0.0
Y,R,"[6, 9]",1.0,5.0,0.5535590648651123,1.9477410316467285,0.3082172186416296,108.0,965.0,0.0
Y,R,"[6, 10]",1.0,6.0,0.2637639045715332,1.872223138809204,0.5139087590831122,108.0,966.0,0.0
R,U,"[5, 10]",1.0,7.0,0.23730111122131348,1.6854190826416016,0.34954890765866303,108.0,967.0,0.0
R,U,"[4, 10]",1.0,8.0,0.3058140277862549,2.074916124343872,0.6572924927632356,108.0,968.0,0.0
B,L,"[4, 9]",1.0,9.0,0.23662996292114258,1.7098679542541504,0.3842433947966016,108.0,969.0,0.0
R,U,"[3, 9]",1.0,10.0,0.28180503845214844,2.0183658599853516,0.6355909078178714,108.0,970.0,0.0
,,"(6, 6)",,,,,,,,
R,U,"[5, 6]",1.0,1.0,0.48395395278930664,3.2474329471588135,0.5164536741818224,109.0,971.0,0.0
Y,R,"[5, 7]",1.0,2.0,0.22922015190124512,1.9154770374298096,0.582120032731841,109.0,972.0,0.0
Y,R,"[5, 8]",1.0,3.0,0.22378206253051758,2.0348739624023438,0.7000820134780474,109.0,973.0,0.0
G,D,"[6, 8]",1.0,4.0,0.3211638927459717,1.716261863708496,0.3001843086730297,109.0,974.0,0.0
Y,R,"[6, 9]",1.0,5.0,0.33461999893188477,1.8508708477020264,0.4175449930163407,109.0,975.0,0.0
Y,R,"[6, 10]",1.0,6.0,0.31150197982788086,1.7081568241119385,0.292543834866285,109.0,976.0,0.0
R,U,"[5, 10]",1.0,7.0,0.3660290241241455,2.078969955444336,0.6211480086298626,109.0,977.0,0.0
R,U,"[4, 10]",1.0,8.0,0.30059385299682617,2.103339195251465,0.7076683136880921,109.0,978.0,0.0
B,L,"[4, 9]",1.0,9.0,0.263671875,1.630763053894043,0.27231013645371455,109.0,979.0,0.0
R,U,"[3, 9]",1.0,10.0,0.33257412910461426,1.7154321670532227,0.28781077696326046,109.0,980.0,0.0
,,"(6, 6)",,,,,,,,
R,U,"[5, 6]",1.0,1.0,0.537369966506958,4.083874940872192,0.5547105250214719,110.0,981.0,0.0
Y,R,"[5, 7]",1.0,2.0,0.22868013381958008,1.756098985671997,0.4276409987052743,110.0,982.0,0.0
Y,R,"[5, 8]",1.0,3.0,0.24564409255981445,1.6263530254364014,0.2875805911355117,110.0,983.0,0.0
G,D,"[6, 8]",1.0,4.0,0.2927391529083252,2.1242740154266357,0.727989407763409,110.0,984.0,0.0
Y,R,"[6, 9]",1.0,5.0,0.3948941230773926,1.8974740505218506,0.4092497791691213,110.0,985.0,0.0
Y,R,"[6, 10]",1.0,6.0,0.29088497161865234,1.7764651775360107,0.38565859265711067,110.0,986.0,0.0
R,U,"[5, 10]",1.0,7.0,0.25335216522216797,2.090085029602051,0.7420299287428935,110.0,987.0,0.0
R,U,"[4, 10]",1.0,8.0,0.3405921459197998,1.8840301036834717,0.44308847295896714,110.0,988.0,0.0
B,L,"[4, 9]",1.0,9.0,0.2681150436401367,1.7533237934112549,0.39651612298334044,110.0,989.0,0.0
R,U,"[3, 9]",1.0,10.0,0.24748897552490234,1.6749820709228516,0.32151164060920806,110.0,990.0,0.0
,,"(6, 6)",,,,,,,,
R,U,"[5, 6]",1.0,1.0,0.5114109516143799,3.0735890865325928,0.2619459554091843,111.0,991.0,0.0
Y,R,"[5, 7]",1.0,2.0,0.4723701477050781,2.1571340560913086,0.5853975577422916,111.0,992.0,0.0
Y,R,"[5, 8]",1.0,3.0,0.38049983978271484,2.0348222255706787,0.5536111862990354,111.0,993.0,0.0
G,D,"[6, 8]",1.0,4.0,0.23583412170410156,2.0231730937957764,0.6766354721885609,111.0,994.0,0.0
Y,R,"[6, 9]",1.0,5.0,0.3267819881439209,1.928312063217163,0.5051506493256552,111.0,995.0,0.0
Y,R,"[6, 10]",1.0,6.0,0.28461790084838867,1.9057910442352295,0.5276396914812814,111.0,996.0,0.0
R,U,"[5, 10]",1.0,7.0,0.2775840759277344,2.0149929523468018,0.6424465725048156,111.0,997.0,0.0
R,U,"[4, 10]",1.0,8.0,0.28409886360168457,1.9259328842163086,0.5518521960240044,111.0,998.0,0.0
B,L,"[4, 9]",1.0,9.0,0.25406503677368164,1.8175280094146729,0.4527828948296967,111.0,999.0,0.0
R,U,"[3, 9]",1.0,10.0,0.23952388763427734,1.67771315574646,0.33049792663136635,111.0,1000.0,0.0
