button_choice,action_choice,coordinate_choice,reward,cumulative_reward,rt,total_trial_time,iti,block_n,trial_n,trial_type
Y,R,"[6, 7]",-2.0,0.0,2.9795470237731934,4.619339942932129,0.6032025781615219,0.0,1.0,0.0
Y,R,"[6, 8]",1.0,1.0,0.5437610149383545,1.9423060417175293,0.29568042397928535,0.0,2.0,0.0
Y,R,"[6, 9]",1.0,2.0,0.8964359760284424,2.3685009479522705,0.3808380534179374,0.0,3.0,0.0
R,U,"[5, 9]",0.0,2.0,0.3246331214904785,1.9134290218353271,0.4773342584024029,0.0,4.0,0.0
B,L,"[5, 8]",1.0,3.0,0.5035231113433838,1.8731050491333008,0.28395946847604875,0.0,5.0,0.0
B,L,"[5, 7]",1.0,4.0,0.4399600028991699,1.8714399337768555,0.32199641250502803,0.0,6.0,0.0
Y,R,"[5, 8]",0.0,4.0,0.4254179000854492,1.9309771060943604,0.4028689707462041,0.0,7.0,0.0
R,U,"[4, 8]",0.0,4.0,0.700192928314209,2.2129499912261963,0.41566902679533413,0.0,8.0,0.0
R,U,"[3, 8]",-2.0,4.0,2.38720703125,4.02863883972168,0.6105655852717872,0.0,9.0,0.0
R,U,"[2, 8]",0.0,4.0,0.2774829864501953,1.855055809020996,0.4823870612877914,0.0,10.0,0.0
,,"(6, 6)",,,,,,,,
Y,R,"[6, 7]",0.0,0.0,0.6329419612884521,8.104566097259521,0.40349766455246316,1.0,11.0,0.0
R,U,"[5, 7]",1.0,1.0,0.35736608505249023,1.9577860832214355,0.49459345834995794,1.0,12.0,0.0
R,U,"[4, 7]",0.0,1.0,0.30964016914367676,1.8977620601654053,0.4923303035861454,1.0,13.0,0.0
G,D,"[5, 7]",0.0,1.0,0.28862500190734863,1.7417690753936768,0.36734544560549637,1.0,14.0,0.0
B,L,"[5, 6]",1.0,2.0,0.27776479721069336,2.0282578468322754,0.6454011267478119,1.0,15.0,0.0
G,D,"[6, 6]",0.0,2.0,0.15193486213684082,1.7793068885803223,0.5412968318689563,1.0,16.0,0.0
B,L,"[6, 5]",0.0,2.0,0.25566983222961426,1.8007760047912598,0.4421372513644504,1.0,17.0,0.0
Y,R,"[6, 6]",0.0,2.0,0.25148510932922363,2.0575239658355713,0.7163380780729889,1.0,18.0,0.0
Y,R,"[6, 7]",0.0,2.0,0.14995193481445312,1.6338858604431152,0.383556209179636,1.0,19.0,0.0
R,U,"[5, 7]",0.0,2.0,0.32840394973754883,2.154726028442383,0.7211852599245528,1.0,20.0,0.0
,,"(6, 6)",,,,,,,,
Y,R,"[6, 7]",0.0,0.0,0.3309040069580078,6.642024040222168,0.5799277851434677,2.0,21.0,0.0
Y,R,"[6, 8]",1.0,1.0,0.4132840633392334,1.818084955215454,0.2981727090464539,2.0,22.0,0.0
Y,R,"[6, 9]",1.0,2.0,0.41965198516845703,1.7821638584136963,0.26342302373916293,2.0,23.0,0.0
R,U,"[5, 9]",0.0,2.0,0.6742968559265137,2.4488539695739746,0.6618370082115294,2.0,24.0,0.0
Y,R,"[5, 10]",1.0,3.0,0.2728400230407715,1.9058668613433838,0.5512772284128571,2.0,25.0,0.0
G,D,"[6, 10]",1.0,4.0,0.3347330093383789,2.168458938598633,0.7360901047459586,2.0,26.0,0.0
B,L,"[6, 9]",0.0,4.0,0.4184138774871826,1.803529977798462,0.2900763511557123,2.0,27.0,0.0
B,L,"[6, 8]",0.0,4.0,0.7585718631744385,2.1517980098724365,0.2917069203096193,2.0,28.0,0.0
R,U,"[5, 8]",1.0,5.0,0.541499137878418,2.313572883605957,0.6716139072267941,2.0,29.0,0.0
Y,R,"[5, 9]",-2.0,5.0,1.9889109134674072,3.5729269981384277,0.544454819174549,2.0,30.0,0.0
,,"(6, 6)",,,,,,,,
Y,R,"[6, 7]",0.0,0.0,0.7082169055938721,7.097177028656006,0.6912666948150581,3.0,31.0,0.0
R,U,"[5, 7]",1.0,1.0,0.21591997146606445,1.9121429920196533,0.6034718466870614,3.0,32.0,0.0
R,U,"[4, 7]",0.0,1.0,0.2351691722869873,1.748279094696045,0.41851954660398555,3.0,33.0,0.0
B,L,"[4, 6]",0.0,1.0,0.3541901111602783,2.0708940029144287,0.6226479508854605,3.0,34.0,0.0
G,D,"[5, 6]",1.0,2.0,0.3174769878387451,1.845041036605835,0.4344766897485545,3.0,35.0,0.0
G,D,"[6, 6]",0.0,2.0,0.3883810043334961,1.938398838043213,0.4560980092080391,3.0,36.0,0.0
R,U,"[5, 6]",0.0,2.0,0.3001070022583008,1.755741834640503,0.36177084858188946,3.0,37.0,0.0
Y,R,"[5, 7]",0.0,2.0,0.24806499481201172,1.8949520587921143,0.5565063255953803,3.0,38.0,0.0
G,D,"[6, 7]",0.0,2.0,0.3310108184814453,1.860579013824463,0.4336974735242343,3.0,39.0,0.0
G,D,"[7, 7]",0.0,2.0,0.6324748992919922,2.095695972442627,0.36286525684360144,3.0,40.0,0.0
,,"(6, 6)",,,,,,,,
Y,R,"[6, 7]",0.0,0.0,0.2195601463317871,6.226001977920532,0.6717896269769166,4.0,41.0,0.0
R,U,"[5, 7]",1.0,1.0,0.25803399085998535,1.914233922958374,0.5527377122076296,4.0,42.0,0.0
Y,R,"[5, 8]",1.0,2.0,0.15868592262268066,1.6208200454711914,0.35700619629919034,4.0,43.0,0.0
Y,R,"[5, 9]",0.0,2.0,0.26933789253234863,2.067811965942383,0.7077614073783379,4.0,44.0,0.0
Y,R,"[5, 10]",1.0,3.0,0.26250600814819336,2.011958122253418,0.6529832862171079,4.0,45.0,0.0
Y,R,"[5, 11]",0.0,3.0,0.26755404472351074,1.9998531341552734,0.636187751464589,4.0,46.0,0.0
Y,R,"[5, 10]",-3.0,3.0,0.27472996711730957,1.6475601196289062,0.26737060580175065,4.0,47.0,0.0
Y,R,"[5, 11]",0.0,3.0,0.5129170417785645,2.117111921310425,0.5008802586685215,4.0,48.0,0.0
Y,R,"[5, 10]",-3.0,3.0,0.3190131187438965,1.8759400844573975,0.46007550311503587,4.0,49.0,0.0
R,U,"[4, 10]",1.0,4.0,0.30843400955200195,2.0036089420318604,0.5968774039194995,4.0,50.0,0.0
,,"(6, 6)",,,,,,,,
R,U,"[5, 6]",1.0,1.0,0.36350297927856445,6.774812936782837,0.4882872236450415,5.0,51.0,0.0
Y,R,"[5, 7]",1.0,2.0,0.15787506103515625,1.655778169631958,0.3939842504056083,5.0,52.0,0.0
R,U,"[4, 7]",0.0,2.0,0.1567990779876709,1.5203959941864014,0.2811217148309743,5.0,53.0,0.0
R,U,"[3, 7]",0.0,2.0,0.21254706382751465,1.58725905418396,0.2684572722943361,5.0,54.0,0.0
R,U,"[2, 7]",0.0,2.0,0.22028183937072754,1.9379620552062988,0.6229683108323091,5.0,55.0,0.0
Y,R,"[2, 8]",0.0,2.0,0.2938680648803711,1.7679171562194824,0.374056066290333,5.0,56.0,0.0
G,D,"[3, 8]",0.0,2.0,0.2060530185699463,1.6514930725097656,0.3588209023981531,5.0,57.0,0.0
B,L,"[3, 7]",0.0,2.0,0.1982250213623047,1.6960201263427734,0.40476407193008673,5.0,58.0,0.0
B,L,"[3, 6]",0.0,2.0,0.15592098236083984,1.8297979831695557,0.5677546442148027,5.0,59.0,0.0
G,D,"[4, 6]",0.0,2.0,0.1895439624786377,1.796550989151001,0.49756013791052883,5.0,60.0,0.0
,,"(6, 6)",,,,,,,,
Y,R,"[6, 7]",0.0,0.0,0.18916702270507812,6.732731819152832,0.39691660489025976,6.0,61.0,0.0
Y,R,"[6, 8]",1.0,1.0,0.6641850471496582,2.359139919281006,0.5888759666559864,6.0,62.0,0.0
R,U,"[5, 8]",1.0,2.0,0.33229804039001465,2.1480910778045654,0.7203053604607581,6.0,63.0,0.0
G,D,"[6, 8]",0.0,2.0,0.12891817092895508,1.8449139595031738,0.6153232600109265,6.0,64.0,0.0
R,U,"[5, 8]",0.0,2.0,0.17301416397094727,1.6961910724639893,0.411492649714023,6.0,65.0,0.0
R,U,"[4, 8]",0.0,2.0,0.19185113906860352,1.8838720321655273,0.5951668895978399,6.0,66.0,0.0
R,U,"[3, 8]",0.0,2.0,0.21337509155273438,1.656869888305664,0.3522701893107631,6.0,67.0,0.0
G,D,"[4, 8]",0.0,2.0,0.36072611808776855,1.8336191177368164,0.36912892036084477,6.0,68.0,0.0
G,D,"[5, 8]",0.0,2.0,0.24368000030517578,1.9954781532287598,0.6477416106403262,6.0,69.0,0.0
G,D,"[6, 8]",0.0,2.0,0.21141815185546875,1.8614730834960938,0.542360495057195,6.0,70.0,0.0
,,"(6, 6)",,,,,,,,
R,U,"[5, 6]",1.0,1.0,0.24296903610229492,5.408979177474976,0.5847096911972753,7.0,71.0,0.0
Y,R,"[5, 7]",1.0,2.0,0.15691304206848145,1.658560037612915,0.39329826134311213,7.0,72.0,0.0
R,U,"[4, 7]",0.0,2.0,0.17149806022644043,1.9869089126586914,0.7303535993925212,7.0,73.0,0.0
G,D,"[5, 7]",0.0,2.0,0.16767501831054688,1.884770154953003,0.6146848362239157,7.0,74.0,0.0
G,D,"[6, 7]",-1.0,2.0,0.04941105842590332,5.513273000717163,0.31132256330387786,7.0,75.0,0.0
G,D,"[7, 7]",-2.0,2.0,1.0430631637573242,2.7509870529174805,0.6787099543621303,7.0,76.0,0.0
G,D,"[8, 7]",0.0,2.0,0.3209559917449951,2.0467751026153564,0.6422007149092888,7.0,77.0,0.0
G,D,"[9, 7]",0.0,2.0,0.29789304733276367,1.8397769927978516,0.44857065404566954,7.0,78.0,0.0
B,L,"[9, 6]",0.0,2.0,0.26889896392822266,2.0550618171691895,0.6867854512629602,7.0,79.0,0.0
B,L,"[9, 5]",0.0,2.0,0.17172598838806152,1.8308029174804688,0.5508821750977092,7.0,80.0,0.0
,,"(6, 6)",,,,,,,,
R,U,"[5, 6]",1.0,1.0,0.27429699897766113,5.45074987411499,0.5014706326910208,8.0,81.0,0.0
Y,R,"[5, 7]",1.0,2.0,0.199448823928833,1.7041230201721191,0.4056832463066587,8.0,82.0,0.0
G,D,"[6, 7]",0.0,2.0,0.21564102172851562,1.9263191223144531,0.6150749366271777,8.0,83.0,0.0
G,D,"[7, 7]",-1.0,2.0,0.08515095710754395,5.838945150375366,0.6204609265864285,8.0,84.0,0.0
G,D,"[8, 7]",0.0,2.0,0.6473519802093506,2.1530261039733887,0.40710719964900743,8.0,85.0,0.0
Y,R,"[8, 8]",0.0,2.0,0.2965860366821289,1.6546969413757324,0.26176338669626453,8.0,86.0,0.0
R,U,"[7, 8]",0.0,2.0,0.3197309970855713,1.8929650783538818,0.4879200828010698,8.0,87.0,0.0
R,U,"[6, 8]",1.0,3.0,0.28322696685791016,1.8726840019226074,0.4937395762349111,8.0,88.0,0.0
R,U,"[5, 8]",1.0,4.0,0.20493721961975098,1.63100004196167,0.34155608024951256,8.0,89.0,0.0
R,U,"[4, 8]",0.0,4.0,0.22468185424804688,1.8213379383087158,0.49584113555509907,8.0,90.0,0.0
,,"(6, 6)",,,,,,,,
R,U,"[5, 6]",1.0,1.0,0.6263151168823242,3.891019105911255,0.27061724107967905,9.0,91.0,0.0
Y,R,"[5, 7]",1.0,2.0,0.21543097496032715,1.5898890495300293,0.276927347719697,9.0,92.0,0.0
G,D,"[6, 7]",0.0,2.0,0.28035497665405273,1.8048059940338135,0.4315654492597964,9.0,93.0,0.0
B,L,"[6, 6]",0.0,2.0,0.19863390922546387,1.726613998413086,0.42478419106654547,9.0,94.0,0.0
R,U,"[5, 6]",0.0,2.0,0.2550239562988281,1.7360570430755615,0.36089037887823106,9.0,95.0,0.0
R,U,"[4, 6]",0.0,2.0,0.1197671890258789,1.7035801410675049,0.49768949395076967,9.0,96.0,0.0
R,U,"[3, 6]",-1.0,2.0,0.0909719467163086,5.592824220657349,0.35710567531844967,9.0,97.0,0.0
G,D,"[4, 6]",0.0,2.0,0.41454291343688965,1.8321850299835205,0.32265126239956743,9.0,98.0,0.0
R,U,"[3, 6]",0.0,2.0,0.2851870059967041,1.6383519172668457,0.2609137705558644,9.0,99.0,0.0
R,U,"[2, 6]",0.0,2.0,0.22183513641357422,1.8066661357879639,0.4840894625770837,9.0,100.0,0.0
,,"(6, 6)",,,,,,,,
R,U,"[5, 6]",1.0,1.0,0.5249478816986084,5.646482944488525,0.36375836428335817,10.0,101.0,0.0
Y,R,"[5, 7]",-1.0,1.0,0.06059098243713379,5.6301000118255615,0.42687694934532294,10.0,102.0,0.0
Y,R,"[5, 8]",1.0,2.0,0.3803708553314209,1.7267210483551025,0.25369026077814383,10.0,103.0,0.0
B,L,"[5, 7]",0.0,2.0,0.2945680618286133,1.6494951248168945,0.2531796631061563,10.0,104.0,0.0
B,L,"[5, 6]",0.0,2.0,0.2719290256500244,1.6715459823608398,0.30798947447978436,10.0,105.0,0.0
G,D,"[6, 6]",0.0,2.0,0.2922239303588867,2.024263858795166,0.6319557603297165,10.0,106.0,0.0
G,D,"[7, 6]",0.0,2.0,0.1867668628692627,1.7655110359191895,0.48114505945002606,10.0,107.0,0.0
G,D,"[8, 6]",0.0,2.0,0.27142810821533203,1.6207201480865479,0.25167336732756374,10.0,108.0,0.0
R,U,"[7, 6]",0.0,2.0,0.29242396354675293,2.0820460319519043,0.6833359389579066,10.0,109.0,0.0
R,U,"[6, 6]",0.0,2.0,0.18705010414123535,1.6793851852416992,0.39630578348044315,10.0,110.0,0.0
,,"(6, 6)",,,,,,,,
R,U,"[5, 6]",1.0,1.0,0.5300369262695312,3.7686750888824463,0.33162040379940755,11.0,111.0,0.0
Y,R,"[5, 7]",1.0,2.0,0.2140190601348877,1.7283129692077637,0.4097824583269845,11.0,112.0,0.0
R,U,"[4, 7]",0.0,2.0,0.19156694412231445,1.8692989349365234,0.5788901851670467,11.0,113.0,0.0
R,U,"[3, 7]",0.0,2.0,0.17369914054870605,1.6291100978851318,0.35808211728104294,11.0,114.0,0.0
R,U,"[2, 7]",0.0,2.0,0.20019102096557617,1.9464468955993652,0.654219653286122,11.0,115.0,0.0
R,U,"[1, 7]",-1.0,2.0,0.010272026062011719,5.699002027511597,0.5698008656800517,11.0,116.0,0.0
R,U,"[2, 7]",-3.0,2.0,0.31904101371765137,2.0798490047454834,0.6661820784486621,11.0,117.0,0.0
R,U,"[1, 7]",0.0,2.0,0.26277899742126465,2.0547268390655518,0.6874738374725123,11.0,118.0,0.0
R,U,"[2, 7]",-3.0,2.0,0.19278883934020996,1.7040719985961914,0.4082911322740573,11.0,119.0,0.0
R,U,"[1, 7]",0.0,2.0,0.23386216163635254,1.7268462181091309,0.40180358949029044,11.0,120.0,0.0
,,"(6, 6)",,,,,,,,
R,U,"[5, 6]",1.0,1.0,0.546036958694458,5.728610038757324,0.6466703883264076,12.0,121.0,0.0
Y,R,"[5, 7]",1.0,2.0,0.1442418098449707,1.5054152011871338,0.25239845194703026,12.0,122.0,0.0
R,U,"[4, 7]",0.0,2.0,0.24918293952941895,2.055230140686035,0.7071421853598143,12.0,123.0,0.0
R,U,"[3, 7]",0.0,2.0,0.2669529914855957,1.631256103515625,0.2721017143101464,12.0,124.0,0.0
R,U,"[2, 7]",0.0,2.0,0.31650686264038086,2.009850025177002,0.5984747938980329,12.0,125.0,0.0
R,U,"[1, 7]",0.0,2.0,0.18986797332763672,1.6357758045196533,0.33423295568327366,12.0,126.0,0.0
R,U,"[2, 7]",-3.0,2.0,0.19557499885559082,1.6488399505615234,0.34966114937850423,12.0,127.0,0.0
R,U,"[1, 7]",0.0,2.0,0.2015380859375,1.6093440055847168,0.3091696556777413,12.0,128.0,0.0
R,U,"[2, 7]",-3.0,2.0,0.4244349002838135,2.2552988529205322,0.7307606396436229,12.0,129.0,0.0
R,U,"[1, 7]",0.0,2.0,0.33765196800231934,2.104037046432495,0.651589762822113,12.0,130.0,0.0
,,"(6, 6)",,,,,,,,
R,U,"[5, 6]",1.0,1.0,0.362637996673584,3.713871955871582,0.665453302830927,13.0,131.0,0.0
Y,R,"[5, 7]",1.0,2.0,0.4021470546722412,1.7562308311462402,0.25485275556848114,13.0,132.0,0.0
G,D,"[6, 7]",0.0,2.0,0.2724330425262451,1.8749949932098389,0.4962830759779653,13.0,133.0,0.0
G,D,"[7, 7]",0.0,2.0,0.20854592323303223,1.844792127609253,0.5242545712464874,13.0,134.0,0.0
G,D,"[8, 7]",0.0,2.0,0.20229196548461914,1.5442230701446533,0.2521622682552152,13.0,135.0,0.0
G,D,"[9, 7]",0.0,2.0,0.311290979385376,2.065598964691162,0.6506131936715052,13.0,136.0,0.0
G,D,"[10, 7]",0.0,2.0,0.22447800636291504,1.8447601795196533,0.5120726107308188,13.0,137.0,0.0
G,D,"[11, 7]",0.0,2.0,0.20323491096496582,1.9018819332122803,0.6139555879292765,13.0,138.0,0.0
G,D,"[10, 7]",-3.0,2.0,0.15556883811950684,1.9858160018920898,0.7328711836198251,13.0,139.0,0.0
G,D,"[11, 7]",0.0,2.0,0.19117403030395508,1.8596599102020264,0.559311464285537,13.0,140.0,0.0
,,"(6, 6)",,,,,,,,
R,U,"[5, 6]",1.0,1.0,0.4149010181427002,3.2241930961608887,0.3002093255311084,14.0,141.0,0.0
Y,R,"[5, 7]",1.0,2.0,0.22983789443969727,1.8600099086761475,0.5266656662659013,14.0,142.0,0.0
B,L,"[5, 6]",0.0,2.0,0.18499112129211426,1.8494620323181152,0.575926210203768,14.0,143.0,0.0
B,L,"[5, 5]",0.0,2.0,0.18190407752990723,1.9651620388031006,0.6909343782030786,14.0,144.0,0.0
B,L,"[5, 4]",0.0,2.0,0.16001415252685547,1.7499618530273438,0.4909876408193991,14.0,145.0,0.0
B,L,"[5, 3]",0.0,2.0,0.25827908515930176,1.7058827877044678,0.3636529500564639,14.0,146.0,0.0
B,L,"[5, 2]",0.0,2.0,0.22168898582458496,1.9405970573425293,0.6044273875579248,14.0,147.0,0.0
B,L,"[5, 1]",0.0,2.0,0.1925349235534668,1.8741140365600586,0.5779487322054617,14.0,148.0,0.0
B,L,"[5, 2]",-3.0,2.0,0.18721795082092285,1.6876389980316162,0.3991396376137749,14.0,149.0,0.0
B,L,"[5, 1]",0.0,2.0,0.2572190761566162,1.6838369369506836,0.3164210381295315,14.0,150.0,0.0
,,"(6, 6)",,,,,,,,
R,U,"[5, 6]",1.0,1.0,0.533466100692749,3.4318408966064453,0.348037911041587,15.0,151.0,0.0
Y,R,"[5, 7]",1.0,2.0,0.23147821426391602,1.9750158786773682,0.6394088633788761,15.0,152.0,0.0
Y,R,"[5, 8]",1.0,3.0,0.1637578010559082,1.8280298709869385,0.5675313665125925,15.0,153.0,0.0
Y,R,"[5, 9]",0.0,3.0,0.21238088607788086,1.7836079597473145,0.4677293816074755,15.0,154.0,0.0
Y,R,"[5, 10]",1.0,4.0,0.23801779747009277,1.6308238506317139,0.28217148987150226,15.0,155.0,0.0
Y,R,"[5, 11]",0.0,4.0,0.2345731258392334,1.6354830265045166,0.30074436762250895,15.0,156.0,0.0
Y,R,"[5, 10]",-3.0,4.0,0.19564104080200195,1.5608999729156494,0.26163523082572987,15.0,157.0,0.0
Y,R,"[5, 11]",0.0,4.0,0.2622089385986328,2.104706048965454,0.7491640816305989,15.0,158.0,0.0
Y,R,"[5, 10]",-3.0,4.0,0.42347097396850586,2.221022844314575,0.6868777419363468,15.0,159.0,0.0
Y,R,"[5, 11]",0.0,4.0,0.16750407218933105,1.7927091121673584,0.5296714277346972,15.0,160.0,0.0
,,"(6, 6)",,,,,,,,
R,U,"[5, 6]",1.0,1.0,0.29273295402526855,3.8132729530334473,0.7262275852532971,16.0,161.0,0.0
Y,R,"[5, 7]",1.0,2.0,0.3418309688568115,1.916707992553711,0.47634491945603663,16.0,162.0,0.0
Y,R,"[5, 8]",1.0,3.0,0.2810540199279785,1.688081979751587,0.3143780003863751,16.0,163.0,0.0
G,D,"[6, 8]",1.0,4.0,0.2641451358795166,1.6917109489440918,0.3227555419300306,16.0,164.0,0.0
Y,R,"[6, 9]",1.0,5.0,0.3537111282348633,2.1307919025421143,0.6863588350631066,16.0,165.0,0.0
G,D,"[7, 9]",0.0,5.0,0.2889738082885742,1.7229177951812744,0.3262615703164388,16.0,166.0,0.0
Y,R,"[7, 10]",0.0,5.0,0.30057191848754883,1.6499519348144531,0.25954602974364194,16.0,167.0,0.0
Y,R,"[7, 11]",0.0,5.0,0.22457098960876465,1.6718389987945557,0.3480391952018634,16.0,168.0,0.0
Y,R,"[7, 10]",-3.0,5.0,0.19818401336669922,1.736449956893921,0.43423229436607635,16.0,169.0,0.0
Y,R,"[7, 11]",0.0,5.0,0.1748030185699463,2.0004570484161377,0.7177870561883473,16.0,170.0,0.0
,,"(6, 6)",,,,,,,,
Y,R,"[6, 7]",0.0,0.0,0.41931700706481934,3.128875970840454,0.3135407232298593,17.0,171.0,0.0
Y,R,"[6, 8]",1.0,1.0,0.6204209327697754,2.313861846923828,0.5937314846217763,17.0,172.0,0.0
Y,R,"[6, 9]",1.0,2.0,0.2826240062713623,1.7756989002227783,0.40317352929963973,17.0,173.0,0.0
G,D,"[7, 9]",0.0,2.0,0.19008302688598633,1.6233019828796387,0.3262906384766123,17.0,174.0,0.0
Y,R,"[7, 10]",0.0,2.0,0.26738405227661133,1.6251740455627441,0.26806484918479223,17.0,175.0,0.0
B,L,"[7, 9]",0.0,2.0,0.31404590606689453,1.699066162109375,0.2838671820509375,17.0,176.0,0.0
R,U,"[6, 9]",0.0,2.0,0.21406006813049316,2.040980100631714,0.724234002886782,17.0,177.0,0.0
R,U,"[5, 9]",0.0,2.0,0.18155503273010254,1.6685869693756104,0.3930649934096527,17.0,178.0,0.0
R,U,"[4, 9]",1.0,3.0,0.19005084037780762,1.7439758777618408,0.45367001687940395,17.0,179.0,0.0
R,U,"[3, 9]",1.0,4.0,0.1526780128479004,1.792435884475708,0.5459391226663897,17.0,180.0,0.0
,,"(6, 6)",,,,,,,,
Y,R,"[6, 7]",0.0,0.0,0.4920182228088379,4.399796962738037,0.5954646588147152,18.0,181.0,0.0
R,U,"[5, 7]",1.0,1.0,0.22861695289611816,1.9372901916503906,0.6161466079071907,18.0,182.0,0.0
Y,R,"[5, 8]",1.0,2.0,0.2675449848175049,1.9769461154937744,0.6095139250640883,18.0,183.0,0.0
B,L,"[5, 7]",0.0,2.0,0.10802698135375977,1.6023061275482178,0.3954111889543591,18.0,184.0,0.0
R,U,"[4, 7]",0.0,2.0,0.29373598098754883,1.6862411499023438,0.2984117436998032,18.0,185.0,0.0
Y,R,"[4, 8]",0.0,2.0,0.2157289981842041,1.716447114944458,0.39807393839325483,18.0,186.0,0.0
Y,R,"[4, 9]",1.0,3.0,0.22596096992492676,2.031259059906006,0.6957014529593913,18.0,187.0,0.0
Y,R,"[4, 10]",1.0,4.0,0.1765730381011963,2.0250840187072754,0.7371322653481048,18.0,188.0,0.0
Y,R,"[4, 11]",0.0,4.0,0.2395610809326172,1.9767029285430908,0.6307711866014452,18.0,189.0,0.0
Y,R,"[4, 10]",-3.0,4.0,0.20151305198669434,1.8622281551361084,0.5595677409629993,18.0,190.0,0.0
,,"(6, 6)",,,,,,,,
R,U,"[5, 6]",1.0,1.0,0.329509973526001,2.9249889850616455,0.48454448078829476,19.0,191.0,0.0
Y,R,"[5, 7]",1.0,2.0,0.1602158546447754,1.7480049133300781,0.4825453083321294,19.0,192.0,0.0
R,U,"[4, 7]",0.0,2.0,0.15405893325805664,1.6074559688568115,0.35666880190008926,19.0,193.0,0.0
B,L,"[4, 6]",0.0,2.0,0.20811104774475098,1.6071867942810059,0.29729766418072756,19.0,194.0,0.0
G,D,"[5, 6]",0.0,2.0,0.2264258861541748,1.6009130477905273,0.2647647735930028,19.0,195.0,0.0
G,D,"[6, 6]",0.0,2.0,0.24135112762451172,1.7897469997406006,0.4375985383735539,19.0,196.0,0.0
G,D,"[7, 6]",0.0,2.0,0.20878219604492188,1.949275016784668,0.6367504007964906,19.0,197.0,0.0
G,D,"[8, 6]",0.0,2.0,0.1860370635986328,1.7915928363800049,0.5117603915240292,19.0,198.0,0.0
G,D,"[9, 6]",-1.0,2.0,0.0626230239868164,5.734994888305664,0.5464751172739781,19.0,199.0,0.0
G,D,"[10, 6]",0.0,2.0,0.33855295181274414,2.048048973083496,0.5943254291585855,19.0,200.0,0.0
,,"(6, 6)",,,,,,,,
R,U,"[5, 6]",1.0,1.0,0.26901912689208984,4.327487945556641,0.3552533678581048,20.0,201.0,0.0
Y,R,"[5, 7]",1.0,2.0,0.18215107917785645,1.8485350608825684,0.5704083232489857,20.0,202.0,0.0
R,U,"[4, 7]",0.0,2.0,0.11645913124084473,1.634537935256958,0.42160047892212943,20.0,203.0,0.0
G,D,"[5, 7]",0.0,2.0,0.22862911224365234,1.583923101425171,0.2555381501662537,20.0,204.0,0.0
B,L,"[5, 6]",0.0,2.0,0.24234604835510254,1.5986649990081787,0.25415338815333893,20.0,205.0,0.0
B,L,"[5, 5]",0.0,2.0,0.2386782169342041,1.7198660373687744,0.37395996774804197,20.0,206.0,0.0
R,U,"[4, 5]",0.0,2.0,0.21842002868652344,1.926365852355957,0.6166973925829033,20.0,207.0,0.0
R,U,"[3, 5]",0.0,2.0,0.12103915214538574,1.5913920402526855,0.3582096957932265,20.0,208.0,0.0
Y,R,"[3, 6]",0.0,2.0,0.22579407691955566,1.8320131301879883,0.5067890985667083,20.0,209.0,0.0
R,U,"[2, 6]",0.0,2.0,0.2652459144592285,1.8584771156311035,0.49854995277245245,20.0,210.0,0.0
,,"(6, 6)",,,,,,,,
R,U,"[5, 6]",1.0,1.0,0.3407559394836426,5.4699790477752686,0.3183996665408716,21.0,211.0,0.0
Y,R,"[5, 7]",1.0,2.0,0.20179295539855957,1.7836720943450928,0.48533120772701804,21.0,212.0,0.0
R,U,"[4, 7]",0.0,2.0,0.176422119140625,1.622204065322876,0.3408167134278553,21.0,213.0,0.0
G,D,"[5, 7]",0.0,2.0,0.23276281356811523,1.8970470428466797,0.571075525258288,21.0,214.0,0.0
B,L,"[5, 6]",0.0,2.0,0.16842198371887207,1.8019299507141113,0.5396397360041068,21.0,215.0,0.0
B,L,"[5, 5]",0.0,2.0,0.1556868553161621,1.8590819835662842,0.598607464017368,21.0,216.0,0.0
B,L,"[5, 4]",0.0,2.0,0.12104916572570801,1.5686020851135254,0.3507096814907405,21.0,217.0,0.0
B,L,"[5, 3]",0.0,2.0,0.1926112174987793,1.823908805847168,0.5243217018435662,21.0,218.0,0.0
R,U,"[4, 3]",0.0,2.0,0.17157506942749023,1.7003459930419922,0.44144062526614164,21.0,219.0,0.0
Y,R,"[4, 4]",0.0,2.0,0.19060516357421875,2.0318288803100586,0.7398758258729692,21.0,220.0,0.0
,,"(6, 6)",,,,,,,,
R,U,"[5, 6]",1.0,1.0,0.3384370803833008,3.5190041065216064,0.7249868357252416,22.0,221.0,0.0
Y,R,"[5, 7]",1.0,2.0,0.1488170623779297,1.749047040939331,0.5075971141482318,22.0,222.0,0.0
Y,R,"[5, 8]",1.0,3.0,0.164870023727417,1.7511391639709473,0.4921359931957739,22.0,223.0,0.0
G,D,"[6, 8]",1.0,4.0,0.18849682807922363,1.8198931217193604,0.51178662760662,22.0,224.0,0.0
G,D,"[7, 8]",0.0,4.0,0.2100849151611328,1.5890471935272217,0.28453650603864167,22.0,225.0,0.0
B,L,"[7, 7]",0.0,4.0,0.592710018157959,2.146044969558716,0.4470137271150113,22.0,226.0,0.0
G,D,"[8, 7]",0.0,4.0,0.16265511512756348,1.7561938762664795,0.4864732759699208,22.0,227.0,0.0
G,D,"[9, 7]",0.0,4.0,0.13074207305908203,1.8924758434295654,0.6619014963058216,22.0,228.0,0.0
G,D,"[10, 7]",0.0,4.0,0.17533111572265625,1.7544760704040527,0.4831677083978301,22.0,229.0,0.0
G,D,"[11, 7]",0.0,4.0,0.1690220832824707,1.5987908840179443,0.3321741723313336,22.0,230.0,0.0
,,"(6, 6)",,,,,,,,
R,U,"[5, 6]",1.0,1.0,0.3008239269256592,3.001344919204712,0.4166458448634707,23.0,231.0,0.0
Y,R,"[5, 7]",1.0,2.0,0.1967170238494873,1.895143985748291,0.594808896296678,23.0,232.0,0.0
Y,R,"[5, 8]",1.0,3.0,0.14918994903564453,1.5368740558624268,0.29863841968956867,23.0,233.0,0.0
G,D,"[6, 8]",1.0,4.0,0.23909687995910645,1.984956979751587,0.6335252445447227,23.0,234.0,0.0
B,L,"[6, 7]",0.0,4.0,0.1520528793334961,1.8098170757293701,0.559664602319204,23.0,235.0,0.0
B,L,"[6, 6]",0.0,4.0,0.14187979698181152,1.4981942176818848,0.25807247317468246,23.0,236.0,0.0
B,L,"[6, 5]",0.0,4.0,0.26598191261291504,1.639451026916504,0.28090816758392195,23.0,237.0,0.0
B,L,"[6, 4]",0.0,4.0,0.16272616386413574,1.9064009189605713,0.6368666785387792,23.0,238.0,0.0
B,L,"[6, 3]",0.0,4.0,0.1785571575164795,1.5490970611572266,0.2695942236733943,23.0,239.0,0.0
B,L,"[6, 2]",0.0,4.0,0.17769193649291992,1.6535298824310303,0.3730173905511397,23.0,240.0,0.0
,,"(6, 6)",,,,,,,,
R,U,"[5, 6]",1.0,1.0,0.28222107887268066,3.0119638442993164,0.5014487126410956,24.0,241.0,0.0
Y,R,"[5, 7]",1.0,2.0,0.13225603103637695,1.6033580303192139,0.37152714434799,24.0,242.0,0.0
Y,R,"[5, 8]",1.0,3.0,0.15381193161010742,1.5307061672210693,0.2855919557648234,24.0,243.0,0.0
G,D,"[6, 8]",1.0,4.0,0.23057794570922852,1.96402907371521,0.6325893287355164,24.0,244.0,0.0
G,D,"[7, 8]",-1.0,4.0,0.06638097763061523,5.737367153167725,0.5364996212516816,24.0,245.0,0.0
G,D,"[8, 8]",0.0,4.0,0.27829909324645996,1.9342260360717773,0.553892502597554,24.0,246.0,0.0
G,D,"[9, 8]",0.0,4.0,0.19887709617614746,1.5885159969329834,0.29259870553461875,24.0,247.0,0.0
G,D,"[10, 8]",0.0,4.0,0.1846761703491211,1.7668108940124512,0.49253441177819174,24.0,248.0,0.0
G,D,"[11, 8]",0.0,4.0,0.1549839973449707,1.9099349975585938,0.6690012196179482,24.0,249.0,0.0
G,D,"[10, 8]",-1.0,4.0,0.002688169479370117,5.38677191734314,0.25593680734821583,24.0,250.0,0.0
,,"(6, 6)",,,,,,,,
R,U,"[5, 6]",1.0,1.0,0.30468201637268066,3.413944959640503,0.6360628100221846,25.0,251.0,0.0
Y,R,"[5, 7]",1.0,2.0,0.21108198165893555,1.6353480815887451,0.32163208788572595,25.0,252.0,0.0
Y,R,"[5, 8]",1.0,3.0,0.27208805084228516,2.1049680709838867,0.7261918467558506,25.0,253.0,0.0
G,D,"[6, 8]",1.0,4.0,0.14594006538391113,1.9302928447723389,0.6898724474091885,25.0,254.0,0.0
R,U,"[5, 8]",0.0,4.0,0.1644730567932129,1.5582289695739746,0.29828155384470634,25.0,255.0,0.0
R,U,"[4, 8]",0.0,4.0,0.2557380199432373,1.877525806427002,0.5089423098800102,25.0,256.0,0.0
R,U,"[3, 8]",0.0,4.0,0.17109203338623047,1.9438049793243408,0.6858891766925082,25.0,257.0,0.0
R,U,"[2, 8]",0.0,4.0,0.18108105659484863,1.9545249938964844,0.6736988775504396,25.0,258.0,0.0
R,U,"[1, 8]",0.0,4.0,0.17917203903198242,1.7685530185699463,0.49232178569843893,25.0,259.0,0.0
R,U,"[2, 8]",-3.0,4.0,0.15241289138793945,1.6527109146118164,0.41177124146453165,25.0,260.0,0.0
,,"(6, 6)",,,,,,,,
R,U,"[5, 6]",1.0,1.0,0.40595579147338867,3.8702149391174316,0.6315760986947435,26.0,261.0,0.0
Y,R,"[5, 7]",-1.0,1.0,0.05142998695373535,5.7204270362854,0.5353894384193532,26.0,262.0,0.0
Y,R,"[5, 8]",1.0,2.0,0.29817700386047363,1.7268400192260742,0.32900770746408226,26.0,263.0,0.0
Y,R,"[5, 9]",0.0,2.0,0.2924830913543701,1.8552730083465576,0.4674625652886648,26.0,264.0,0.0
G,D,"[6, 9]",1.0,3.0,0.21269583702087402,1.8178420066833496,0.5018440419045265,26.0,265.0,0.0
R,U,"[5, 9]",0.0,3.0,0.18817591667175293,1.6263210773468018,0.3449408405602594,26.0,266.0,0.0
G,D,"[6, 9]",0.0,3.0,0.36151599884033203,2.050255060195923,0.594837495265333,26.0,267.0,0.0
G,D,"[7, 9]",0.0,3.0,0.1803441047668457,1.8649978637695312,0.5931685865946689,26.0,268.0,0.0
G,D,"[8, 9]",0.0,3.0,0.14107394218444824,1.8590819835662842,0.6188276101636477,26.0,269.0,0.0
G,D,"[9, 9]",0.0,3.0,0.14310693740844727,1.5672450065612793,0.3195452864219838,26.0,270.0,0.0
,,"(6, 6)",,,,,,,,
R,U,"[5, 6]",1.0,1.0,0.369581937789917,3.579102039337158,0.6649466936566357,27.0,271.0,0.0
Y,R,"[5, 7]",1.0,2.0,0.16295409202575684,1.8660738468170166,0.5977722316245575,27.0,272.0,0.0
Y,R,"[5, 8]",1.0,3.0,0.19928312301635742,1.792604923248291,0.49038307148952515,27.0,273.0,0.0
G,D,"[6, 8]",1.0,4.0,0.1607799530029297,1.8980188369750977,0.6382237465881262,27.0,274.0,0.0
Y,R,"[6, 9]",1.0,5.0,0.2404489517211914,1.8076939582824707,0.4626073870105685,27.0,275.0,0.0
Y,R,"[6, 10]",1.0,6.0,0.2560911178588867,1.6987528800964355,0.32805994848032155,27.0,276.0,0.0
Y,R,"[6, 11]",0.0,6.0,0.2588350772857666,2.049593925476074,0.6939345435533582,27.0,277.0,0.0
Y,R,"[6, 10]",-3.0,6.0,0.16581010818481445,1.7727160453796387,0.5168939971308855,27.0,278.0,0.0
Y,R,"[6, 11]",0.0,6.0,0.1793351173400879,1.699037790298462,0.41589968356629814,27.0,279.0,0.0
Y,R,"[6, 10]",-3.0,6.0,0.19855380058288574,1.6962699890136719,0.3954372476218994,27.0,280.0,0.0
,,"(6, 6)",,,,,,,,
R,U,"[5, 6]",1.0,1.0,0.41325998306274414,3.850083112716675,0.6284525080202377,28.0,281.0,0.0
Y,R,"[5, 7]",1.0,2.0,0.20988202095031738,1.8365840911865234,0.5317344785727112,28.0,282.0,0.0
Y,R,"[5, 8]",1.0,3.0,0.12105393409729004,1.8814477920532227,0.6630385581380793,28.0,283.0,0.0
G,D,"[6, 8]",1.0,4.0,0.1606290340423584,1.8583149909973145,0.5880486391054884,28.0,284.0,0.0
Y,R,"[6, 9]",1.0,5.0,0.19872498512268066,1.6177711486816406,0.3227601329076816,28.0,285.0,0.0
Y,R,"[6, 10]",1.0,6.0,0.22080278396606445,1.5839250087738037,0.25669731199893575,28.0,286.0,0.0
Y,R,"[6, 11]",0.0,6.0,0.2985420227050781,2.097259998321533,0.7033612425430182,28.0,287.0,0.0
Y,R,"[6, 10]",-3.0,6.0,0.5340921878814697,2.33724308013916,0.7072108078712073,28.0,288.0,0.0
Y,R,"[6, 11]",0.0,6.0,0.1541900634765625,1.5647270679473877,0.3223369016059962,28.0,289.0,0.0
Y,R,"[6, 10]",-3.0,6.0,0.23748111724853516,1.8965609073638916,0.5685458846605338,28.0,290.0,0.0
,,"(6, 6)",,,,,,,,
Y,R,"[6, 7]",0.0,0.0,0.410736083984375,4.920881986618042,0.6725442505706685,29.0,291.0,0.0
Y,R,"[6, 8]",1.0,1.0,0.17276382446289062,1.963413953781128,0.685940244345099,29.0,292.0,0.0
Y,R,"[6, 9]",1.0,2.0,0.7728979587554932,2.460659980773926,0.5799565673592533,29.0,293.0,0.0
G,D,"[7, 9]",0.0,2.0,0.22816801071166992,1.712399959564209,0.37574947653396046,29.0,294.0,0.0
Y,R,"[7, 10]",0.0,2.0,0.26210594177246094,1.6894209384918213,0.33190842768423817,29.0,295.0,0.0
Y,R,"[7, 11]",0.0,2.0,0.27808618545532227,1.8658649921417236,0.48082802707850153,29.0,296.0,0.0
Y,R,"[7, 10]",-3.0,2.0,0.3583989143371582,1.9067449569702148,0.43755135540951934,29.0,297.0,0.0
Y,R,"[7, 11]",0.0,2.0,0.18505406379699707,1.790442943572998,0.5111669625268161,29.0,298.0,0.0
Y,R,"[7, 10]",-1.0,2.0,0.008332967758178711,5.738584995269775,0.6162352474569601,29.0,299.0,0.0
Y,R,"[7, 11]",0.0,2.0,0.2821969985961914,1.732780933380127,0.3491396815579819,29.0,300.0,0.0
,,"(6, 6)",,,,,,,,
R,U,"[5, 6]",1.0,1.0,0.2683260440826416,3.282317876815796,0.664486739136865,30.0,301.0,0.0
Y,R,"[5, 7]",1.0,2.0,0.15158700942993164,1.983332872390747,0.7309089658587402,30.0,302.0,0.0
Y,R,"[5, 8]",1.0,3.0,0.15691804885864258,1.5862939357757568,0.31757775393420706,30.0,303.0,0.0
G,D,"[6, 8]",1.0,4.0,0.2295670509338379,1.9133679866790771,0.5805859113256414,30.0,304.0,0.0
Y,R,"[6, 9]",1.0,5.0,0.1658611297607422,1.9285681247711182,0.6592221109569631,30.0,305.0,0.0
Y,R,"[6, 10]",1.0,6.0,0.17008304595947266,1.7264080047607422,0.4689823026109889,30.0,306.0,0.0
R,U,"[5, 10]",-2.0,6.0,1.3551990985870361,2.7202749252319336,0.33914900334885284,30.0,307.0,0.0
R,U,"[4, 10]",1.0,7.0,0.3809840679168701,1.7876598834991455,0.31020036666968603,30.0,308.0,0.0
R,U,"[3, 10]",0.0,7.0,0.2567009925842285,1.7230329513549805,0.3665391147782062,30.0,309.0,0.0
R,U,"[2, 10]",0.0,7.0,0.20619606971740723,1.933434009552002,0.6162281319286611,30.0,310.0,0.0
,,"(6, 6)",,,,,,,,
R,U,"[5, 6]",1.0,1.0,0.29901981353759766,4.367174863815308,0.417042480261866,31.0,311.0,0.0
Y,R,"[5, 7]",-1.0,1.0,0.030606985092163086,5.901029825210571,0.7343563161441531,31.0,312.0,0.0
Y,R,"[5, 8]",1.0,2.0,0.45310211181640625,2.2364120483398438,0.6870767442257675,31.0,313.0,0.0
Y,R,"[5, 9]",0.0,2.0,0.19643592834472656,1.9855709075927734,0.68928712345663,31.0,314.0,0.0
G,D,"[6, 9]",1.0,3.0,0.2013688087463379,1.6571180820465088,0.3634343784409078,31.0,315.0,0.0
R,U,"[5, 9]",0.0,3.0,0.2711939811706543,2.0611259937286377,0.6907732929697913,31.0,316.0,0.0
R,U,"[4, 9]",1.0,4.0,0.2457590103149414,1.6165318489074707,0.27432382755761375,31.0,317.0,0.0
R,U,"[3, 9]",1.0,5.0,0.31003880500793457,1.8306128978729248,0.4213345889553428,31.0,318.0,0.0
R,U,"[2, 9]",0.0,5.0,0.19602394104003906,1.7484281063079834,0.45311424656589394,31.0,319.0,0.0
G,D,"[3, 9]",0.0,5.0,0.1865830421447754,1.5301527976989746,0.25001265376678533,31.0,320.0,0.0
,,"(6, 6)",,,,,,,,
R,U,"[5, 6]",1.0,1.0,0.31038689613342285,4.310114860534668,0.7095108179792653,32.0,321.0,0.0
Y,R,"[5, 7]",1.0,2.0,0.15232014656066895,1.888530969619751,0.6479884190869818,32.0,322.0,0.0
Y,R,"[5, 8]",1.0,3.0,0.18914318084716797,1.8534409999847412,0.5682844646969458,32.0,323.0,0.0
G,D,"[6, 8]",1.0,4.0,0.1462559700012207,1.7701499462127686,0.5216433565164573,32.0,324.0,0.0
R,U,"[5, 8]",0.0,4.0,0.1555039882659912,1.9318060874938965,0.686691169458536,32.0,325.0,0.0
R,U,"[4, 8]",-1.0,4.0,0.05422496795654297,5.5652899742126465,0.3852887842432059,32.0,326.0,0.0
R,U,"[3, 8]",0.0,4.0,0.28830599784851074,1.7503471374511719,0.36907553825178896,32.0,327.0,0.0
R,U,"[2, 8]",0.0,4.0,0.2072610855102539,1.9353320598602295,0.6206552647412042,32.0,328.0,0.0
R,U,"[1, 8]",0.0,4.0,0.1586151123046875,1.5931808948516846,0.3308230762168792,32.0,329.0,0.0
R,U,"[2, 8]",-3.0,4.0,0.23594880104064941,1.6055099964141846,0.2695437387825918,32.0,330.0,0.0
,,"(6, 6)",,,,,,,,
R,U,"[5, 6]",1.0,1.0,0.3250119686126709,3.50927996635437,0.5785778444270603,33.0,331.0,0.0
Y,R,"[5, 7]",1.0,2.0,0.12611103057861328,1.6752548217773438,0.4537003937802437,33.0,332.0,0.0
Y,R,"[5, 8]",1.0,3.0,0.16730999946594238,1.537423849105835,0.27467236968216935,33.0,333.0,0.0
G,D,"[6, 8]",1.0,4.0,0.2782418727874756,1.9476649761199951,0.5719321865627272,33.0,334.0,0.0
Y,R,"[6, 9]",1.0,5.0,0.19407391548156738,1.922868013381958,0.6282030686106601,33.0,335.0,0.0
Y,R,"[6, 10]",1.0,6.0,0.17384886741638184,1.6527631282806396,0.38103944139797596,33.0,336.0,0.0
R,U,"[5, 10]",1.0,7.0,0.2697751522064209,1.9035751819610596,0.5344366725563561,33.0,337.0,0.0
R,U,"[4, 10]",1.0,8.0,0.1837151050567627,1.559135913848877,0.27707610383900133,33.0,338.0,0.0
Y,R,"[4, 11]",0.0,8.0,0.43065905570983887,2.033505916595459,0.5102748976436153,33.0,339.0,0.0
Y,R,"[4, 10]",-3.0,8.0,0.2183990478515625,1.682204008102417,0.37602976716475695,33.0,340.0,0.0
,,"(6, 6)",,,,,,,,
R,U,"[5, 6]",1.0,1.0,0.34656310081481934,2.9902729988098145,0.2995275300136875,34.0,341.0,0.0
Y,R,"[5, 7]",1.0,2.0,0.2247610092163086,1.916996955871582,0.5828182801992381,34.0,342.0,0.0
Y,R,"[5, 8]",1.0,3.0,0.13266515731811523,1.918177843093872,0.6841620533847554,34.0,343.0,0.0
G,D,"[6, 8]",1.0,4.0,0.14573192596435547,1.6728057861328125,0.4239427954914614,34.0,344.0,0.0
Y,R,"[6, 9]",1.0,5.0,0.21005892753601074,1.9239559173583984,0.6143215551183676,34.0,345.0,0.0
Y,R,"[6, 10]",1.0,6.0,0.14945697784423828,1.5996370315551758,0.3472795046502196,34.0,346.0,0.0
R,U,"[5, 10]",1.0,7.0,0.18336796760559082,1.6582880020141602,0.37225076546156416,34.0,347.0,0.0
R,U,"[4, 10]",1.0,8.0,0.16468405723571777,1.6596219539642334,0.39850864134864805,34.0,348.0,0.0
G,D,"[5, 10]",0.0,8.0,0.22080302238464355,1.9707319736480713,0.635698146560864,34.0,349.0,0.0
G,D,"[6, 10]",0.0,8.0,0.17737293243408203,1.7052640914916992,0.42437738319515667,34.0,350.0,0.0
,,"(6, 6)",,,,,,,,
R,U,"[5, 6]",1.0,1.0,0.3512411117553711,3.209059953689575,0.7163378263988645,35.0,351.0,0.0
Y,R,"[5, 7]",1.0,2.0,0.17814207077026367,1.885051965713501,0.6015362095877261,35.0,352.0,0.0
Y,R,"[5, 8]",1.0,3.0,0.23705792427062988,1.6451029777526855,0.31347058148421303,35.0,353.0,0.0
G,D,"[6, 8]",1.0,4.0,0.29079604148864746,1.7422089576721191,0.3389407583652941,35.0,354.0,0.0
Y,R,"[6, 9]",1.0,5.0,0.28653597831726074,1.926513910293579,0.5487210538681248,35.0,355.0,0.0
Y,R,"[6, 10]",1.0,6.0,0.1670370101928711,1.5648047924041748,0.2969286204580592,35.0,356.0,0.0
R,U,"[5, 10]",1.0,7.0,0.25641584396362305,1.6440849304199219,0.274207757036885,35.0,357.0,0.0
R,U,"[4, 10]",1.0,8.0,0.17910408973693848,1.8317689895629883,0.5556597567826147,35.0,358.0,0.0
Y,R,"[4, 11]",0.0,8.0,0.15282988548278809,1.5079960823059082,0.26392052683227407,35.0,359.0,0.0
Y,R,"[4, 10]",-3.0,8.0,0.24408984184265137,1.9693059921264648,0.6161484438953313,35.0,360.0,0.0
,,"(6, 6)",,,,,,,,
R,U,"[5, 6]",1.0,1.0,0.42487192153930664,2.7645139694213867,0.3143006626133699,36.0,361.0,0.0
Y,R,"[5, 7]",1.0,2.0,0.24772906303405762,1.9625728130340576,0.6098114907518821,36.0,362.0,0.0
Y,R,"[5, 8]",1.0,3.0,0.16460084915161133,1.6800880432128906,0.42330262145330383,36.0,363.0,0.0
G,D,"[6, 8]",1.0,4.0,0.1982741355895996,1.6404070854187012,0.3470812003936156,36.0,364.0,0.0
Y,R,"[6, 9]",1.0,5.0,0.22417616844177246,1.940011978149414,0.6033873367315399,36.0,365.0,0.0
Y,R,"[6, 10]",1.0,6.0,0.1058509349822998,1.5154609680175781,0.30248642824997113,36.0,366.0,0.0
R,U,"[5, 10]",1.0,7.0,0.17507505416870117,1.5761628150939941,0.29533767866407834,36.0,367.0,0.0
R,U,"[4, 10]",1.0,8.0,0.19343304634094238,1.7868330478668213,0.4985863086146723,36.0,368.0,0.0
B,L,"[4, 9]",1.0,9.0,0.18144702911376953,1.605198860168457,0.32047542281121494,36.0,369.0,0.0
B,L,"[4, 8]",0.0,9.0,0.17835497856140137,1.9938549995422363,0.7138981453733388,36.0,370.0,0.0
,,"(6, 6)",,,,,,,,
R,U,"[5, 6]",1.0,1.0,0.28966307640075684,2.392587900161743,0.3068304538760432,37.0,371.0,0.0
Y,R,"[5, 7]",1.0,2.0,0.24404597282409668,1.877168893814087,0.5337824721943545,37.0,372.0,0.0
Y,R,"[5, 8]",1.0,3.0,0.17763209342956543,1.7548460960388184,0.47192928560806857,37.0,373.0,0.0
G,D,"[6, 8]",1.0,4.0,0.15884685516357422,1.7549939155578613,0.4936041164744616,37.0,374.0,0.0
Y,R,"[6, 9]",1.0,5.0,0.2356410026550293,1.9440858364105225,0.6207866180566033,37.0,375.0,0.0
Y,R,"[6, 10]",1.0,6.0,0.14255595207214355,1.6830339431762695,0.43733679087476934,37.0,376.0,0.0
R,U,"[5, 10]",1.0,7.0,0.16302013397216797,1.553001880645752,0.290294574858902,37.0,377.0,0.0
R,U,"[4, 10]",1.0,8.0,0.18839502334594727,1.599808931350708,0.3068260160097448,37.0,378.0,0.0
B,L,"[4, 9]",1.0,9.0,0.23531103134155273,2.0152602195739746,0.6882719105519874,37.0,379.0,0.0
G,D,"[5, 9]",0.0,9.0,0.13463592529296875,1.7863731384277344,0.5579526343206831,37.0,380.0,0.0
,,"(6, 6)",,,,,,,,
R,U,"[5, 6]",1.0,1.0,0.4792630672454834,2.6333510875701904,0.624568073559048,38.0,381.0,0.0
Y,R,"[5, 7]",1.0,2.0,0.1617431640625,1.9930920600891113,0.7341262665791468,38.0,382.0,0.0
Y,R,"[5, 8]",1.0,3.0,0.15921497344970703,1.7281200885772705,0.46253378410050183,38.0,383.0,0.0
G,D,"[6, 8]",1.0,4.0,0.24942803382873535,1.7104530334472656,0.3397490884113463,38.0,384.0,0.0
Y,R,"[6, 9]",1.0,5.0,0.28847813606262207,2.0065970420837402,0.6292452915103717,38.0,385.0,0.0
Y,R,"[6, 10]",1.0,6.0,0.14885497093200684,1.9032979011535645,0.6493641495219661,38.0,386.0,0.0
R,U,"[5, 10]",-1.0,6.0,0.041890859603881836,5.53829288482666,0.37100423368076796,38.0,387.0,0.0
R,U,"[4, 10]",1.0,7.0,0.31203198432922363,1.7594611644744873,0.3469144140049939,38.0,388.0,0.0
R,U,"[3, 10]",0.0,7.0,0.2375810146331787,1.6535720825195312,0.30058722650574743,38.0,389.0,0.0
R,U,"[2, 10]",0.0,7.0,0.6285111904144287,2.440570116043091,0.7073538997613386,38.0,390.0,0.0
,,"(6, 6)",,,,,,,,
R,U,"[5, 6]",1.0,1.0,0.9438071250915527,3.1990809440612793,0.6064288565407934,39.0,391.0,0.0
Y,R,"[5, 7]",1.0,2.0,0.18103790283203125,1.5562958717346191,0.27954866969580894,39.0,392.0,0.0
Y,R,"[5, 8]",1.0,3.0,0.3293771743774414,2.0248360633850098,0.5873470978040287,39.0,393.0,0.0
G,D,"[6, 8]",1.0,4.0,0.1913139820098877,1.7060751914978027,0.41031835530885846,39.0,394.0,0.0
G,D,"[7, 8]",0.0,4.0,0.3496708869934082,1.7370269298553467,0.2973527830658886,39.0,395.0,0.0
B,L,"[7, 7]",0.0,4.0,0.39560389518737793,1.9745619297027588,0.4716552826932308,39.0,396.0,0.0
B,L,"[7, 6]",0.0,4.0,0.2473130226135254,1.9911258220672607,0.6462444133462388,39.0,397.0,0.0
B,L,"[7, 5]",0.0,4.0,0.31887006759643555,1.86216402053833,0.4417736253975668,39.0,398.0,0.0
B,L,"[7, 4]",0.0,4.0,0.3368949890136719,1.95479416847229,0.5296124972049542,39.0,399.0,0.0
B,L,"[7, 3]",0.0,4.0,0.3542811870574951,2.0621721744537354,0.6086045840102476,39.0,400.0,0.0
,,"(6, 6)",,,,,,,,
R,U,"[5, 6]",1.0,1.0,0.3208601474761963,2.8859500885009766,0.42764670588684256,40.0,401.0,0.0
Y,R,"[5, 7]",1.0,2.0,0.21578598022460938,1.8377511501312256,0.5318793761887772,40.0,402.0,0.0
Y,R,"[5, 8]",1.0,3.0,0.22095608711242676,1.6484291553497314,0.3303853431723967,40.0,403.0,0.0
G,D,"[6, 8]",1.0,4.0,0.2966780662536621,2.065416097640991,0.6621025595025362,40.0,404.0,0.0
R,U,"[5, 8]",-1.0,4.0,0.08881020545959473,5.802284002304077,0.5810384314724992,40.0,405.0,0.0
R,U,"[4, 8]",0.0,4.0,0.3579080104827881,1.7431271076202393,0.2743874095689302,40.0,406.0,0.0
R,U,"[3, 8]",0.0,4.0,0.4026758670806885,1.9407432079315186,0.44809881171681637,40.0,407.0,0.0
Y,R,"[3, 9]",1.0,5.0,0.22363710403442383,1.8107969760894775,0.4921975253793239,40.0,408.0,0.0
Y,R,"[3, 10]",0.0,5.0,0.17449617385864258,1.7540028095245361,0.4795495021781831,40.0,409.0,0.0
Y,R,"[3, 11]",0.0,5.0,0.18186187744140625,1.701483964920044,0.4142838288207927,40.0,410.0,0.0
,,"(6, 6)",,,,,,,,
R,U,"[5, 6]",1.0,1.0,0.3176078796386719,3.802156925201416,0.3164512038521514,41.0,411.0,0.0
Y,R,"[5, 7]",1.0,2.0,0.2387700080871582,1.7599530220031738,0.4262166428506962,41.0,412.0,0.0
Y,R,"[5, 8]",1.0,3.0,0.20082497596740723,1.743682861328125,0.4532734397939809,41.0,413.0,0.0
G,D,"[6, 8]",1.0,4.0,0.20961403846740723,1.7660388946533203,0.452555185865638,41.0,414.0,0.0
Y,R,"[6, 9]",1.0,5.0,0.20611310005187988,1.9108209609985352,0.5964462893491311,41.0,415.0,0.0
Y,R,"[6, 10]",-1.0,5.0,0.09172821044921875,5.6598241329193115,0.422904077229818,41.0,416.0,0.0
R,U,"[5, 10]",1.0,6.0,0.2611980438232422,1.9878768920898438,0.6273006777323398,41.0,417.0,0.0
R,U,"[4, 10]",1.0,7.0,0.2109529972076416,1.9919109344482422,0.6857950197904847,41.0,418.0,0.0
B,L,"[4, 9]",1.0,8.0,0.20595002174377441,2.0415008068084717,0.727140548949148,41.0,419.0,0.0
R,U,"[3, 9]",1.0,9.0,0.17345499992370605,1.8892509937286377,0.6164850409197038,41.0,420.0,0.0
,,"(6, 6)",,,,,,,,
R,U,"[5, 6]",1.0,1.0,0.4099140167236328,3.9407730102539062,0.5738164434911538,42.0,421.0,0.0
Y,R,"[5, 7]",1.0,2.0,0.19101691246032715,1.7148430347442627,0.422007804613489,42.0,422.0,0.0
Y,R,"[5, 8]",1.0,3.0,0.30734896659851074,1.7539949417114258,0.3426391650766195,42.0,423.0,0.0
G,D,"[6, 8]",1.0,4.0,0.2802999019622803,1.8715169429779053,0.49731604055672235,42.0,424.0,0.0
Y,R,"[6, 9]",1.0,5.0,0.23203015327453613,2.0234899520874023,0.6873336629251114,42.0,425.0,0.0
Y,R,"[6, 10]",1.0,6.0,0.2140038013458252,1.874588966369629,0.5618859740546889,42.0,426.0,0.0
R,U,"[5, 10]",1.0,7.0,0.2187349796295166,1.8609931468963623,0.5562570143802464,42.0,427.0,0.0
R,U,"[4, 10]",1.0,8.0,0.2428121566772461,1.914659023284912,0.5707356136717985,42.0,428.0,0.0
B,L,"[4, 9]",1.0,9.0,0.25414490699768066,1.7539699077606201,0.4082319180386597,42.0,429.0,0.0
R,U,"[3, 9]",1.0,10.0,0.2971780300140381,1.7127950191497803,0.3209823228172255,42.0,430.0,0.0
,,"(6, 6)",,,,,,,,
R,U,"[5, 6]",1.0,1.0,0.8105900287628174,5.202632904052734,0.6065341204108403,43.0,431.0,0.0
Y,R,"[5, 7]",1.0,2.0,0.19253015518188477,1.8122270107269287,0.5187576534142394,43.0,432.0,0.0
Y,R,"[5, 8]",1.0,3.0,0.19072508811950684,1.9689338207244873,0.6711172556860909,43.0,433.0,0.0
G,D,"[6, 8]",1.0,4.0,0.15092206001281738,1.9671289920806885,0.721173112048606,43.0,434.0,0.0
R,U,"[5, 8]",0.0,4.0,0.18180108070373535,1.7251009941101074,0.446518554017343,43.0,435.0,0.0
Y,R,"[5, 9]",0.0,4.0,0.5308828353881836,2.2423770427703857,0.6053953102026084,43.0,436.0,0.0
R,U,"[4, 9]",1.0,5.0,0.18279290199279785,1.6568031311035156,0.3789378707511692,43.0,437.0,0.0
R,U,"[3, 9]",1.0,6.0,0.21457314491271973,1.585921049118042,0.28167538492578803,43.0,438.0,0.0
B,L,"[3, 8]",0.0,6.0,0.45661091804504395,2.246798038482666,0.6779229760081474,43.0,439.0,0.0
R,U,"[2, 8]",0.0,6.0,0.43016600608825684,2.144800901412964,0.6228259487616548,43.0,440.0,0.0
,,"(6, 6)",,,,,,,,
R,U,"[5, 6]",1.0,1.0,0.39928293228149414,3.0528299808502197,0.40899763058941757,44.0,441.0,0.0
Y,R,"[5, 7]",1.0,2.0,0.22812581062316895,1.901968002319336,0.5774124598735544,44.0,442.0,0.0
G,D,"[6, 7]",0.0,2.0,0.19612598419189453,1.6559948921203613,0.3668298492640494,44.0,443.0,0.0
G,D,"[7, 7]",0.0,2.0,0.27626991271972656,1.7827131748199463,0.3994709901651506,44.0,444.0,0.0
Y,R,"[7, 8]",0.0,2.0,0.28490495681762695,1.994225025177002,0.6102236187572135,44.0,445.0,0.0
Y,R,"[7, 9]",0.0,2.0,0.14870500564575195,1.95566987991333,0.7155731615756726,44.0,446.0,0.0
R,U,"[6, 9]",-1.0,2.0,0.040164947509765625,5.564439058303833,0.3968192444410373,44.0,447.0,0.0
R,U,"[5, 9]",0.0,2.0,0.589137077331543,2.078333854675293,0.37513733720193426,44.0,448.0,0.0
G,D,"[6, 9]",0.0,2.0,0.2526850700378418,1.7073569297790527,0.3659024114022474,44.0,449.0,0.0
G,D,"[7, 9]",0.0,2.0,0.2547950744628906,1.9744889736175537,0.6233963837868619,44.0,450.0,0.0
,,"(6, 6)",,,,,,,,
R,U,"[5, 6]",1.0,1.0,0.6669819355010986,3.8319060802459717,0.5551688907549095,45.0,451.0,0.0
Y,R,"[5, 7]",1.0,2.0,0.24774909019470215,1.8576829433441162,0.5129471564185779,45.0,452.0,0.0
Y,R,"[5, 8]",1.0,3.0,0.25191283226013184,1.8262581825256348,0.47246036883021103,45.0,453.0,0.0
G,D,"[6, 8]",1.0,4.0,0.2103121280670166,1.9490339756011963,0.637981419158062,45.0,454.0,0.0
R,U,"[5, 8]",0.0,4.0,0.18596720695495605,2.0205678939819336,0.7416205505709746,45.0,455.0,0.0
Y,R,"[5, 9]",0.0,4.0,0.5305521488189697,2.3064961433410645,0.6817882007036543,45.0,456.0,0.0
R,U,"[4, 9]",1.0,5.0,0.17980408668518066,1.773982048034668,0.4892785228376897,45.0,457.0,0.0
R,U,"[3, 9]",1.0,6.0,0.23513507843017578,1.7957031726837158,0.46802811833130964,45.0,458.0,0.0
B,L,"[3, 8]",0.0,6.0,0.28411197662353516,1.6480040550231934,0.26605715804766644,45.0,459.0,0.0
R,U,"[2, 8]",0.0,6.0,0.2580561637878418,2.094250202178955,0.7264080208813373,45.0,460.0,0.0
,,"(6, 6)",,,,,,,,
R,U,"[5, 6]",-2.0,0.0,1.6122970581054688,4.378468036651611,0.43855699306803236,46.0,461.0,0.0
Y,R,"[5, 7]",1.0,1.0,0.3144040107727051,1.9558370113372803,0.5440654540010883,46.0,462.0,0.0
Y,R,"[5, 8]",1.0,2.0,0.19027495384216309,2.0101699829101562,0.7206669020807083,46.0,463.0,0.0
G,D,"[6, 8]",1.0,3.0,0.15424704551696777,1.6602199077606201,0.41459662715115037,46.0,464.0,0.0
Y,R,"[6, 9]",1.0,4.0,0.22703194618225098,1.901327133178711,0.5656550092328754,46.0,465.0,0.0
Y,R,"[6, 10]",1.0,5.0,0.13612699508666992,1.7720770835876465,0.5375981380777115,46.0,466.0,0.0
R,U,"[5, 10]",1.0,6.0,0.2601001262664795,1.7950518131256104,0.43291890259188126,46.0,467.0,0.0
R,U,"[4, 10]",1.0,7.0,0.24056506156921387,2.0255160331726074,0.6746848433417891,46.0,468.0,0.0
B,L,"[4, 9]",1.0,8.0,0.1346149444580078,1.8479149341583252,0.6225001073245391,46.0,469.0,0.0
R,U,"[3, 9]",1.0,9.0,0.1964249610900879,1.8327598571777344,0.538635582710782,46.0,470.0,0.0
,,"(6, 6)",,,,,,,,
R,U,"[5, 6]",1.0,1.0,0.32213711738586426,2.6920878887176514,0.3309212110089074,47.0,471.0,0.0
Y,R,"[5, 7]",1.0,2.0,0.2340540885925293,1.9423279762268066,0.6061708741977023,47.0,472.0,0.0
Y,R,"[5, 8]",-1.0,2.0,0.05221414566040039,5.652982950210571,0.47573783171389317,47.0,473.0,0.0
G,D,"[6, 8]",1.0,3.0,0.38364505767822266,1.8249790668487549,0.350830576176493,47.0,474.0,0.0
Y,R,"[6, 9]",1.0,4.0,0.3622288703918457,2.0031979084014893,0.5371915631725249,47.0,475.0,0.0
Y,R,"[6, 10]",1.0,5.0,0.18291878700256348,1.9748508930206299,0.6952034921140782,47.0,476.0,0.0
R,U,"[5, 10]",1.0,6.0,0.24951791763305664,1.7888438701629639,0.45077925916975187,47.0,477.0,0.0
R,U,"[4, 10]",1.0,7.0,0.31249213218688965,1.9868230819702148,0.5706114833030032,47.0,478.0,0.0
B,L,"[4, 9]",1.0,8.0,0.22977614402770996,1.6184959411621094,0.2893116365539214,47.0,479.0,0.0
R,U,"[3, 9]",1.0,9.0,0.2734339237213135,1.8312978744506836,0.4538488282220431,47.0,480.0,0.0
,,"(6, 6)",,,,,,,,
R,U,"[5, 6]",1.0,1.0,0.4958209991455078,2.88698410987854,0.624007766858713,48.0,481.0,0.0
Y,R,"[5, 7]",1.0,2.0,0.19786620140075684,1.8571619987487793,0.5644239142372208,48.0,482.0,0.0
Y,R,"[5, 8]",1.0,3.0,0.23124003410339355,1.7587969303131104,0.4234310614026949,48.0,483.0,0.0
G,D,"[6, 8]",1.0,4.0,0.33707213401794434,1.8472039699554443,0.4204424197892041,48.0,484.0,0.0
Y,R,"[6, 9]",1.0,5.0,0.22364592552185059,2.0041770935058594,0.6743960654584458,48.0,485.0,0.0
Y,R,"[6, 10]",1.0,6.0,0.23392605781555176,1.9737038612365723,0.647981660152411,48.0,486.0,0.0
R,U,"[5, 10]",1.0,7.0,0.2565000057220459,1.768913984298706,0.4004103162053454,48.0,487.0,0.0
R,U,"[4, 10]",1.0,8.0,0.3609588146209717,2.1256508827209473,0.6591852389330618,48.0,488.0,0.0
B,L,"[4, 9]",1.0,9.0,0.19611406326293945,1.6747097969055176,0.38410683233663107,48.0,489.0,0.0
R,U,"[3, 9]",1.0,10.0,0.2578749656677246,1.8366689682006836,0.4704722440243779,48.0,490.0,0.0
,,"(6, 6)",,,,,,,,
R,U,"[5, 6]",1.0,1.0,0.5056321620941162,3.3646140098571777,0.5350973752415574,49.0,491.0,0.0
Y,R,"[5, 7]",1.0,2.0,0.1678791046142578,1.7168729305267334,0.45191881856796934,49.0,492.0,0.0
Y,R,"[5, 8]",1.0,3.0,0.2412099838256836,2.0622050762176514,0.713807720456286,49.0,493.0,0.0
G,D,"[6, 8]",1.0,4.0,0.21330595016479492,1.6416809558868408,0.32253002311637596,49.0,494.0,0.0
Y,R,"[6, 9]",1.0,5.0,0.25403618812561035,1.976248025894165,0.6316727110594516,49.0,495.0,0.0
Y,R,"[6, 10]",1.0,6.0,0.1666090488433838,1.6439130306243896,0.3758355650098493,49.0,496.0,0.0
R,U,"[5, 10]",1.0,7.0,0.2593519687652588,1.9061448574066162,0.5484150248853816,49.0,497.0,0.0
R,U,"[4, 10]",1.0,8.0,0.2197411060333252,1.6917400360107422,0.3735760455277364,49.0,498.0,0.0
B,L,"[4, 9]",1.0,9.0,0.3196229934692383,1.9645240306854248,0.5544309530061917,49.0,499.0,0.0
R,U,"[3, 9]",1.0,10.0,0.18603301048278809,1.761279821395874,0.4825836230454892,49.0,500.0,0.0
,,"(6, 6)",,,,,,,,
R,U,"[5, 6]",1.0,1.0,0.43053317070007324,2.505634069442749,0.42135374650416485,50.0,501.0,0.0
Y,R,"[5, 7]",1.0,2.0,0.19701218605041504,1.8156931400299072,0.5202859181751823,50.0,502.0,0.0
Y,R,"[5, 8]",1.0,3.0,0.20781803131103516,1.6859240531921387,0.3730144504214902,50.0,503.0,0.0
G,D,"[6, 8]",1.0,4.0,0.2938230037689209,2.131385087966919,0.7373163343333031,50.0,504.0,0.0
Y,R,"[6, 9]",1.0,5.0,0.1983051300048828,1.9003779888153076,0.6043610458491688,50.0,505.0,0.0
Y,R,"[6, 10]",1.0,6.0,0.1119849681854248,1.5149900913238525,0.3029197200365428,50.0,506.0,0.0
R,U,"[5, 10]",1.0,7.0,0.3219718933105469,1.711341142654419,0.29776097538952395,50.0,507.0,0.0
R,U,"[4, 10]",1.0,8.0,0.19711804389953613,1.659358024597168,0.35682951867158613,50.0,508.0,0.0
B,L,"[4, 9]",1.0,9.0,0.28711605072021484,1.9340019226074219,0.5571268879765736,50.0,509.0,0.0
R,U,"[3, 9]",1.0,10.0,0.17361998558044434,1.700869083404541,0.42480290530282655,50.0,510.0,0.0
,,"(6, 6)",,,,,,,,
R,U,"[5, 6]",1.0,1.0,0.6342089176177979,2.642458915710449,0.48387790382682083,51.0,511.0,0.0
Y,R,"[5, 7]",1.0,2.0,0.4174652099609375,2.1785550117492676,0.6621524743281253,51.0,512.0,0.0
Y,R,"[5, 8]",1.0,3.0,0.2017509937286377,2.0137879848480225,0.7259158199586522,51.0,513.0,0.0
G,D,"[6, 8]",1.0,4.0,0.17710494995117188,1.6686298847198486,0.3948364613940372,51.0,514.0,0.0
R,U,"[5, 8]",0.0,4.0,0.5493860244750977,2.2213940620422363,0.582672389671077,51.0,515.0,0.0
Y,R,"[5, 9]",0.0,4.0,0.18099498748779297,1.5885188579559326,0.3046813786151997,51.0,516.0,0.0
R,U,"[4, 9]",1.0,5.0,0.25534701347351074,2.1008729934692383,0.7384134107824538,51.0,517.0,0.0
R,U,"[3, 9]",-1.0,5.0,0.009100198745727539,5.845134019851685,0.7166773486424658,51.0,518.0,0.0
B,L,"[3, 8]",0.0,5.0,0.3235311508178711,1.9023020267486572,0.4682861154595525,51.0,519.0,0.0
R,U,"[2, 8]",0.0,5.0,0.20656800270080566,1.7373020648956299,0.42316903555576774,51.0,520.0,0.0
,,"(6, 6)",,,,,,,,
R,U,"[5, 6]",1.0,1.0,0.3381168842315674,2.9024901390075684,0.5587855856390398,52.0,521.0,0.0
Y,R,"[5, 7]",1.0,2.0,0.19122600555419922,1.888728141784668,0.5973016430441818,52.0,522.0,0.0
Y,R,"[5, 8]",1.0,3.0,0.2901468276977539,1.75996994972229,0.3574288475900953,52.0,523.0,0.0
G,D,"[6, 8]",1.0,4.0,0.3231029510498047,2.1412949562072754,0.7316501952624823,52.0,524.0,0.0
R,U,"[5, 8]",0.0,4.0,0.6580860614776611,2.2812399864196777,0.5130067265510334,52.0,525.0,0.0
R,U,"[4, 8]",0.0,4.0,0.1958298683166504,1.586967945098877,0.28356173616311886,52.0,526.0,0.0
Y,R,"[4, 9]",1.0,5.0,0.2055051326751709,1.9017889499664307,0.6016352486602943,52.0,527.0,0.0
Y,R,"[4, 10]",1.0,6.0,0.23729395866394043,1.8744652271270752,0.5427901110600404,52.0,528.0,0.0
G,D,"[5, 10]",1.0,7.0,0.16655516624450684,1.7632019519805908,0.5059788473254647,52.0,529.0,0.0
R,U,"[4, 10]",0.0,7.0,0.20597314834594727,1.8173789978027344,0.5066447526907858,52.0,530.0,0.0
,,"(6, 6)",,,,,,,,
R,U,"[5, 6]",-2.0,0.0,1.1047029495239258,3.2168490886688232,0.5399930375924351,53.0,531.0,0.0
Y,R,"[5, 7]",-2.0,0.0,1.0766420364379883,2.560772180557251,0.4508690775500129,53.0,532.0,0.0
G,D,"[6, 7]",0.0,0.0,0.6300370693206787,2.228969097137451,0.4962872408278746,53.0,533.0,0.0
G,D,"[7, 7]",0.0,0.0,0.21039509773254395,1.6248891353607178,0.3046694963618122,53.0,534.0,0.0
G,D,"[8, 7]",0.0,0.0,0.30852293968200684,1.8492910861968994,0.4371402470592459,53.0,535.0,0.0
G,D,"[9, 7]",0.0,0.0,0.1844029426574707,1.829503059387207,0.5498342881275996,53.0,536.0,0.0
G,D,"[10, 7]",0.0,0.0,0.14734315872192383,1.7932591438293457,0.5430427746034234,53.0,537.0,0.0
G,D,"[11, 7]",0.0,0.0,0.16104817390441895,1.5787270069122314,0.3219405668529818,53.0,538.0,0.0
G,D,"[10, 7]",-3.0,0.0,0.3698999881744385,1.899688959121704,0.4380070026195928,53.0,539.0,0.0
G,D,"[11, 7]",0.0,0.0,0.24924182891845703,2.0725791454315186,0.7268995525429927,53.0,540.0,0.0
,,"(6, 6)",,,,,,,,
R,U,"[5, 6]",1.0,1.0,0.2770500183105469,2.8498120307922363,0.3103779894312146,54.0,541.0,0.0
Y,R,"[5, 7]",1.0,2.0,0.22982120513916016,1.6214771270751953,0.29848302868657717,54.0,542.0,0.0
Y,R,"[5, 8]",1.0,3.0,0.26844120025634766,1.7055270671844482,0.3372988512387298,54.0,543.0,0.0
G,D,"[6, 8]",1.0,4.0,0.24714088439941406,1.9847040176391602,0.6383417741020159,54.0,544.0,0.0
R,U,"[5, 8]",0.0,4.0,0.1352372169494629,1.9784798622131348,0.7498619724030406,54.0,545.0,0.0
R,U,"[4, 8]",0.0,4.0,0.18768787384033203,1.8619050979614258,0.5785358606056393,54.0,546.0,0.0
R,U,"[3, 8]",0.0,4.0,0.2247319221496582,1.9528491497039795,0.6313687386599649,54.0,547.0,0.0
R,U,"[2, 8]",0.0,4.0,0.16805005073547363,1.7067451477050781,0.43830858632651876,54.0,548.0,0.0
R,U,"[1, 8]",0.0,4.0,0.2022860050201416,1.6739089488983154,0.3788556978569672,54.0,549.0,0.0
R,U,"[2, 8]",-3.0,4.0,0.2113199234008789,1.7372899055480957,0.4325426308637199,54.0,550.0,0.0
,,"(6, 6)",,,,,,,,
R,U,"[5, 6]",1.0,1.0,0.25087904930114746,3.68955397605896,0.5052488131446042,55.0,551.0,0.0
Y,R,"[5, 7]",1.0,2.0,0.16889119148254395,1.8448998928070068,0.5833894521653235,55.0,552.0,0.0
Y,R,"[5, 8]",1.0,3.0,0.18801617622375488,1.9288527965545654,0.6286570887988892,55.0,553.0,0.0
G,D,"[6, 8]",1.0,4.0,0.1742382049560547,1.953428030014038,0.6820390999728863,55.0,554.0,0.0
Y,R,"[6, 9]",1.0,5.0,0.1297130584716797,1.8048038482666016,0.5701652122329798,55.0,555.0,0.0
Y,R,"[6, 10]",1.0,6.0,0.13411903381347656,1.662200927734375,0.43235717836335436,55.0,556.0,0.0
R,U,"[5, 10]",1.0,7.0,0.21684813499450684,1.768923044204712,0.4512153567419959,55.0,557.0,0.0
R,U,"[4, 10]",1.0,8.0,0.19114184379577637,1.8975141048431396,0.5984609713682144,55.0,558.0,0.0
B,L,"[4, 9]",1.0,9.0,0.1879889965057373,1.6347198486328125,0.3498970274026602,55.0,559.0,0.0
R,U,"[3, 9]",1.0,10.0,0.2497539520263672,1.6364738941192627,0.28633420747715527,55.0,560.0,0.0
,,"(6, 6)",,,,,,,,
R,U,"[5, 6]",1.0,1.0,0.31615495681762695,3.2892630100250244,0.49189637626785265,56.0,561.0,0.0
Y,R,"[5, 7]",1.0,2.0,0.21806001663208008,1.7676680088043213,0.4596402698954765,56.0,562.0,0.0
Y,R,"[5, 8]",1.0,3.0,0.5042550563812256,2.170240879058838,0.5798309610340251,56.0,563.0,0.0
G,D,"[6, 8]",1.0,4.0,0.19880414009094238,1.789119005203247,0.48544500998965534,56.0,564.0,0.0
R,U,"[5, 8]",0.0,4.0,0.2085280418395996,1.8765790462493896,0.5617160389712998,56.0,565.0,0.0
Y,R,"[5, 9]",0.0,4.0,0.2938108444213867,1.7020869255065918,0.31395017015863386,56.0,566.0,0.0
Y,R,"[5, 10]",1.0,5.0,0.5040919780731201,2.2266831398010254,0.5905777343525619,56.0,567.0,0.0
Y,R,"[5, 11]",0.0,5.0,0.2044370174407959,1.7536120414733887,0.46067762646305793,56.0,568.0,0.0
B,L,"[5, 10]",0.0,5.0,0.2544879913330078,1.8816180229187012,0.5255063985119586,56.0,569.0,0.0
R,U,"[4, 10]",1.0,6.0,0.15205717086791992,1.4919259548187256,0.2508768266240731,56.0,570.0,0.0
,,"(6, 6)",,,,,,,,
R,U,"[5, 6]",1.0,1.0,0.26619601249694824,2.9776670932769775,0.3782524505956344,57.0,571.0,0.0
Y,R,"[5, 7]",1.0,2.0,0.22339701652526855,1.6271710395812988,0.3053453020448723,57.0,572.0,0.0
Y,R,"[5, 8]",1.0,3.0,0.3249521255493164,2.151553153991699,0.7231312653642364,57.0,573.0,0.0
G,D,"[6, 8]",1.0,4.0,0.16999316215515137,1.9113221168518066,0.6511874226955301,57.0,574.0,0.0
Y,R,"[6, 9]",1.0,5.0,0.16918396949768066,1.5731210708618164,0.30783921484495874,57.0,575.0,0.0
Y,R,"[6, 10]",1.0,6.0,0.32058119773864746,1.6613149642944336,0.25242186665224264,57.0,576.0,0.0
R,U,"[5, 10]",1.0,7.0,0.35187602043151855,1.8256840705871582,0.37786063814537996,57.0,577.0,0.0
R,U,"[4, 10]",1.0,8.0,0.2531569004058838,1.7247490882873535,0.3858821903485679,57.0,578.0,0.0
B,L,"[4, 9]",1.0,9.0,0.2868330478668213,2.075092077255249,0.6939333929186615,57.0,579.0,0.0
R,U,"[3, 9]",1.0,10.0,0.17404794692993164,1.7417490482330322,0.4694040092218976,57.0,580.0,0.0
,,"(6, 6)",,,,,,,,
R,U,"[5, 6]",1.0,1.0,0.30584096908569336,2.6418650150299072,0.5274267444143076,58.0,581.0,0.0
Y,R,"[5, 7]",1.0,2.0,0.1886730194091797,1.8348970413208008,0.5456022308215367,58.0,582.0,0.0
Y,R,"[5, 8]",1.0,3.0,0.1985318660736084,1.6665241718292236,0.37884482113981743,58.0,583.0,0.0
G,D,"[6, 8]",1.0,4.0,0.2787659168243408,1.661128044128418,0.28996191081482237,58.0,584.0,0.0
Y,R,"[6, 9]",1.0,5.0,0.25531792640686035,1.7595739364624023,0.3994357744831364,58.0,585.0,0.0
Y,R,"[6, 10]",1.0,6.0,0.21121788024902344,1.9677860736846924,0.6502102023699643,58.0,586.0,0.0
R,U,"[5, 10]",-1.0,6.0,0.07227587699890137,5.8616979122161865,0.661583895030633,58.0,587.0,0.0
R,U,"[4, 10]",1.0,7.0,0.29445815086364746,1.7096400260925293,0.32150631897593945,58.0,588.0,0.0
B,L,"[4, 9]",1.0,8.0,0.2771940231323242,2.060533046722412,0.6818934987637292,58.0,589.0,0.0
R,U,"[3, 9]",1.0,9.0,0.16068601608276367,1.9533400535583496,0.6848314745170685,58.0,590.0,0.0
,,"(6, 6)",,,,,,,,
R,U,"[5, 6]",1.0,1.0,0.30260586738586426,2.692819118499756,0.4111454874998637,59.0,591.0,0.0
Y,R,"[5, 7]",1.0,2.0,0.23668813705444336,1.8799679279327393,0.5574462124586617,59.0,592.0,0.0
Y,R,"[5, 8]",1.0,3.0,0.19323992729187012,2.027820110321045,0.7349986214596794,59.0,593.0,0.0
G,D,"[6, 8]",1.0,4.0,0.1829831600189209,1.645447015762329,0.3640447583794579,59.0,594.0,0.0
Y,R,"[6, 9]",1.0,5.0,0.28385305404663086,1.6623661518096924,0.2764777200830533,59.0,595.0,0.0
Y,R,"[6, 10]",1.0,6.0,0.33193397521972656,2.051988124847412,0.6279989340872477,59.0,596.0,0.0
R,U,"[5, 10]",1.0,7.0,0.2019200325012207,1.6957190036773682,0.40720188861230205,59.0,597.0,0.0
R,U,"[4, 10]",1.0,8.0,0.23883390426635742,2.0384180545806885,0.6952814417494365,59.0,598.0,0.0
B,L,"[4, 9]",1.0,9.0,0.20059704780578613,1.7645370960235596,0.47660474478013537,59.0,599.0,0.0
R,U,"[3, 9]",1.0,10.0,0.2847609519958496,1.8349897861480713,0.4614550083304158,59.0,600.0,0.0
,,"(6, 6)",,,,,,,,
R,U,"[5, 6]",-2.0,0.0,1.4622759819030762,3.6976330280303955,0.34235017356589514,60.0,601.0,0.0
Y,R,"[5, 7]",1.0,1.0,0.23247289657592773,1.6350150108337402,0.31061216517107415,60.0,602.0,0.0
Y,R,"[5, 8]",1.0,2.0,0.22507286071777344,1.8853509426116943,0.5622670566579884,60.0,603.0,0.0
G,D,"[6, 8]",1.0,3.0,0.1459519863128662,1.5598211288452148,0.32235865855619156,60.0,604.0,0.0
R,U,"[5, 8]",0.0,3.0,0.26894617080688477,2.077454090118408,0.7158954298554379,60.0,605.0,0.0
Y,R,"[5, 9]",0.0,3.0,0.1705617904663086,1.620811939239502,0.35374724810862984,60.0,606.0,0.0
R,U,"[4, 9]",1.0,4.0,0.1856069564819336,1.7429609298706055,0.4631057671143805,60.0,607.0,0.0
R,U,"[3, 9]",1.0,5.0,0.1928260326385498,1.8604919910430908,0.556806039440386,60.0,608.0,0.0
B,L,"[3, 8]",0.0,5.0,0.30497097969055176,1.8444480895996094,0.451311703564423,60.0,609.0,0.0
R,U,"[2, 8]",0.0,5.0,0.16880583763122559,1.6761658191680908,0.4106922040234535,60.0,610.0,0.0
,,"(6, 6)",,,,,,,,
R,U,"[5, 6]",-2.0,0.0,1.4320130348205566,3.3842179775238037,0.5113861823726896,61.0,611.0,0.0
Y,R,"[5, 7]",1.0,1.0,0.281965970993042,1.875281810760498,0.5031847777129561,61.0,612.0,0.0
Y,R,"[5, 8]",1.0,2.0,0.21613192558288574,1.703423023223877,0.3899797884566761,61.0,613.0,0.0
G,D,"[6, 8]",1.0,3.0,0.24742507934570312,2.079555034637451,0.7357745411095011,61.0,614.0,0.0
Y,R,"[6, 9]",-1.0,3.0,0.02327704429626465,5.7860729694366455,0.6381834438104481,61.0,615.0,0.0
Y,R,"[6, 10]",1.0,4.0,0.3655707836151123,1.9881999492645264,0.5265356479872421,61.0,616.0,0.0
R,U,"[5, 10]",1.0,5.0,0.19333410263061523,2.030014991760254,0.7396444277678289,61.0,617.0,0.0
R,U,"[4, 10]",1.0,6.0,0.19290494918823242,1.8171110153198242,0.5235518769892944,61.0,618.0,0.0
B,L,"[4, 9]",1.0,7.0,0.21722412109375,1.743360996246338,0.43326171090523563,61.0,619.0,0.0
R,U,"[3, 9]",1.0,8.0,0.19528698921203613,1.7395260334014893,0.43964137566938283,61.0,620.0,0.0
,,"(6, 6)",,,,,,,,
R,U,"[5, 6]",-2.0,0.0,1.0075180530548096,3.3839969635009766,0.4733807706826778,62.0,621.0,0.0
Y,R,"[5, 7]",1.0,1.0,0.2335371971130371,1.59865403175354,0.27225248954282427,62.0,622.0,0.0
G,D,"[6, 7]",0.0,1.0,0.27536892890930176,1.8335800170898438,0.45550634101271215,62.0,623.0,0.0
G,D,"[7, 7]",0.0,1.0,0.5199871063232422,1.99721097946167,0.3862808188371449,62.0,624.0,0.0
R,U,"[6, 7]",0.0,1.0,0.3970022201538086,2.1762139797210693,0.6783317288976698,62.0,625.0,0.0
R,U,"[5, 7]",0.0,1.0,0.25125813484191895,1.6419830322265625,0.3040687673577721,62.0,626.0,0.0
Y,R,"[5, 8]",1.0,2.0,0.24792194366455078,1.7610161304473877,0.41488760867196917,62.0,627.0,0.0
Y,R,"[5, 9]",0.0,2.0,0.1915581226348877,1.7395830154418945,0.43775397132661176,62.0,628.0,0.0
R,U,"[4, 9]",1.0,3.0,0.13985395431518555,1.7063028812408447,0.4606871144600361,62.0,629.0,0.0
R,U,"[3, 9]",1.0,4.0,0.18534398078918457,1.7422399520874023,0.46939228294838375,62.0,630.0,0.0
,,"(6, 6)",,,,,,,,
R,U,"[5, 6]",1.0,1.0,0.27655911445617676,5.105845212936401,0.4418640694010854,63.0,631.0,0.0
Y,R,"[5, 7]",1.0,2.0,0.2770359516143799,1.7612531185150146,0.3864132665410311,63.0,632.0,0.0
Y,R,"[5, 8]",1.0,3.0,0.2523360252380371,1.9396140575408936,0.5923132026176581,63.0,633.0,0.0
G,D,"[6, 8]",1.0,4.0,0.17397594451904297,1.6291978359222412,0.3550045601783719,63.0,634.0,0.0
Y,R,"[6, 9]",1.0,5.0,0.2233119010925293,1.6900568008422852,0.3615689403981647,63.0,635.0,0.0
Y,R,"[6, 10]",1.0,6.0,0.20822405815124512,1.9577820301055908,0.6524282291325952,63.0,636.0,0.0
R,U,"[5, 10]",1.0,7.0,0.11184406280517578,1.7061481475830078,0.491883846458568,63.0,637.0,0.0
R,U,"[4, 10]",1.0,8.0,0.1625988483428955,1.714534044265747,0.4564930421776764,63.0,638.0,0.0
B,L,"[4, 9]",1.0,9.0,0.22295093536376953,2.0634889602661133,0.7363019293301873,63.0,639.0,0.0
R,U,"[3, 9]",-1.0,9.0,0.08521103858947754,5.831180095672607,0.617210369536353,63.0,640.0,0.0
,,"(6, 6)",,,,,,,,
R,U,"[5, 6]",1.0,1.0,0.389894962310791,4.7067670822143555,0.640396799595983,64.0,641.0,0.0
Y,R,"[5, 7]",1.0,2.0,0.15375709533691406,1.9625780582427979,0.7195006308346535,64.0,642.0,0.0
Y,R,"[5, 8]",1.0,3.0,0.19720196723937988,1.6085209846496582,0.3117538304111824,64.0,643.0,0.0
G,D,"[6, 8]",1.0,4.0,0.266096830368042,2.0549778938293457,0.699589678836271,64.0,644.0,0.0
Y,R,"[6, 9]",1.0,5.0,0.21132111549377441,2.038367986679077,0.7211363765866685,64.0,645.0,0.0
Y,R,"[6, 10]",1.0,6.0,0.33525896072387695,1.782066822052002,0.3533660039755089,64.0,646.0,0.0
R,U,"[5, 10]",1.0,7.0,0.2912771701812744,1.9192910194396973,0.5225232303548357,64.0,647.0,0.0
R,U,"[4, 10]",1.0,8.0,0.23592519760131836,1.6964399814605713,0.36904135163576046,64.0,648.0,0.0
B,L,"[4, 9]",1.0,9.0,0.5518150329589844,2.3252389430999756,0.6770967444080432,64.0,649.0,0.0
R,U,"[3, 9]",1.0,10.0,0.19742202758789062,1.633167028427124,0.34394111103107083,64.0,650.0,0.0
,,"(6, 6)",,,,,,,,
R,U,"[5, 6]",1.0,1.0,0.9863131046295166,3.3252370357513428,0.4023459095833621,65.0,651.0,0.0
Y,R,"[5, 7]",1.0,2.0,0.26035213470458984,1.910433053970337,0.5457995645782782,65.0,652.0,0.0
Y,R,"[5, 8]",1.0,3.0,0.19374608993530273,1.7208020687103271,0.4166451335756133,65.0,653.0,0.0
G,D,"[6, 8]",1.0,4.0,0.3421192169189453,1.7753009796142578,0.3253133414174811,65.0,654.0,0.0
Y,R,"[6, 9]",1.0,5.0,0.24923992156982422,1.8859319686889648,0.5442903238681549,65.0,655.0,0.0
Y,R,"[6, 10]",1.0,6.0,0.20697808265686035,1.9578819274902344,0.6520474623525557,65.0,656.0,0.0
R,U,"[5, 10]",1.0,7.0,0.1521458625793457,1.8067219257354736,0.5590744123750704,65.0,657.0,0.0
R,U,"[4, 10]",1.0,8.0,0.18329405784606934,1.6264369487762451,0.35191463296125325,65.0,658.0,0.0
B,L,"[4, 9]",1.0,9.0,0.28384995460510254,1.6509649753570557,0.2695469134106058,65.0,659.0,0.0
B,L,"[4, 8]",0.0,9.0,0.5728309154510498,2.2681190967559814,0.6040380024784583,65.0,660.0,0.0
,,"(6, 6)",,,,,,,,
R,U,"[5, 6]",1.0,1.0,0.6976330280303955,4.588296175003052,0.44212670178150154,66.0,661.0,0.0
Y,R,"[5, 7]",1.0,2.0,0.2488560676574707,2.080609083175659,0.7393270435593381,66.0,662.0,0.0
Y,R,"[5, 8]",1.0,3.0,0.1806468963623047,1.6556549072265625,0.378226837175973,66.0,663.0,0.0
G,D,"[6, 8]",1.0,4.0,0.236281156539917,2.043678045272827,0.7215382554585537,66.0,664.0,0.0
Y,R,"[6, 9]",1.0,5.0,0.4224069118499756,2.168466091156006,0.6400336565658551,66.0,665.0,0.0
Y,R,"[6, 10]",1.0,6.0,0.2006080150604248,1.6545021533966064,0.36143816027106834,66.0,666.0,0.0
R,U,"[5, 10]",1.0,7.0,0.25371408462524414,1.6781740188598633,0.3395737100069553,66.0,667.0,0.0
R,U,"[4, 10]",1.0,8.0,0.35518503189086914,1.8468959331512451,0.4029829958608474,66.0,668.0,0.0
B,L,"[4, 9]",1.0,9.0,0.24529600143432617,1.7279341220855713,0.380709760783455,66.0,669.0,0.0
R,U,"[3, 9]",1.0,10.0,0.24173307418823242,1.9217031002044678,0.5688840781927436,66.0,670.0,0.0
,,"(6, 6)",,,,,,,,
R,U,"[5, 6]",1.0,1.0,0.24635815620422363,6.50082802772522,0.5195469683251168,67.0,671.0,0.0
Y,R,"[5, 7]",1.0,2.0,0.19078612327575684,1.6189029216766357,0.32187723816745667,67.0,672.0,0.0
Y,R,"[5, 8]",1.0,3.0,0.30141592025756836,1.704545021057129,0.30963331629880925,67.0,673.0,0.0
G,D,"[6, 8]",1.0,4.0,0.3763599395751953,2.0717930793762207,0.5977335303885472,67.0,674.0,0.0
Y,R,"[6, 9]",1.0,5.0,0.20186090469360352,2.0031309127807617,0.7006545844248712,67.0,675.0,0.0
Y,R,"[6, 10]",1.0,6.0,0.16105318069458008,1.9375030994415283,0.6714299317748789,67.0,676.0,0.0
R,U,"[5, 10]",1.0,7.0,0.20876693725585938,1.8246920108795166,0.5128885935918532,67.0,677.0,0.0
R,U,"[4, 10]",1.0,8.0,0.2322249412536621,2.075287103652954,0.7378539859274726,67.0,678.0,0.0
B,L,"[4, 9]",1.0,9.0,0.20682907104492188,1.6601638793945312,0.34838636949815677,67.0,679.0,0.0
R,U,"[3, 9]",1.0,10.0,0.2717549800872803,1.91447114944458,0.5291364522142217,67.0,680.0,0.0
,,"(6, 6)",,,,,,,,
R,U,"[5, 6]",1.0,1.0,0.46059608459472656,3.171943187713623,0.5677209454908916,68.0,681.0,0.0
Y,R,"[5, 7]",1.0,2.0,0.16748785972595215,1.6112511157989502,0.3456591759981098,68.0,682.0,0.0
Y,R,"[5, 8]",1.0,3.0,0.49036192893981934,1.9004700183868408,0.312682600848548,68.0,683.0,0.0
G,D,"[6, 8]",1.0,4.0,0.3526318073272705,2.023231029510498,0.5689923180655329,68.0,684.0,0.0
Y,R,"[6, 9]",1.0,5.0,0.150007963180542,1.7103240489959717,0.462571204811189,68.0,685.0,0.0
Y,R,"[6, 10]",1.0,6.0,0.21428489685058594,1.8663930892944336,0.5456441999800753,68.0,686.0,0.0
R,U,"[5, 10]",1.0,7.0,0.1952219009399414,1.7965950965881348,0.5087615419429756,68.0,687.0,0.0
R,U,"[4, 10]",1.0,8.0,0.16442418098449707,1.8389921188354492,0.5809358613864073,68.0,688.0,0.0
B,L,"[4, 9]",1.0,9.0,0.1521589756011963,1.647524118423462,0.3953695992219094,68.0,689.0,0.0
R,U,"[3, 9]",1.0,10.0,0.22778892517089844,1.8473889827728271,0.5257749753557786,68.0,690.0,0.0
,,"(6, 6)",,,,,,,,
R,U,"[5, 6]",1.0,1.0,0.41521620750427246,3.3233790397644043,0.44916776471776737,69.0,691.0,0.0
Y,R,"[5, 7]",1.0,2.0,0.26439785957336426,1.8621101379394531,0.4945034045193315,69.0,692.0,0.0
R,U,"[4, 7]",0.0,2.0,0.6224358081817627,2.318448066711426,0.5960091270122365,69.0,693.0,0.0
G,D,"[5, 7]",0.0,2.0,0.17015886306762695,1.8785839080810547,0.6079517041899256,69.0,694.0,0.0
Y,R,"[5, 8]",1.0,3.0,0.26859402656555176,1.808387041091919,0.4495675118839605,69.0,695.0,0.0
Y,R,"[5, 9]",0.0,3.0,0.2607090473175049,2.113180160522461,0.7457135312924421,69.0,696.0,0.0
R,U,"[4, 9]",1.0,4.0,0.3810091018676758,1.999094009399414,0.5116803514252093,69.0,697.0,0.0
R,U,"[3, 9]",1.0,5.0,0.15465593338012695,1.846681833267212,0.6083781447402737,69.0,698.0,0.0
B,L,"[3, 8]",0.0,5.0,0.22055697441101074,1.5631189346313477,0.25487926338252803,69.0,699.0,0.0
R,U,"[2, 8]",0.0,5.0,0.2312641143798828,1.9360790252685547,0.6071756164108725,69.0,700.0,0.0
,,"(6, 6)",,,,,,,,
R,U,"[5, 6]",1.0,1.0,0.24562406539916992,6.49947190284729,0.7228983941232263,70.0,701.0,0.0
Y,R,"[5, 7]",1.0,2.0,0.20842409133911133,1.5903618335723877,0.28041808033787646,70.0,702.0,0.0
R,U,"[4, 7]",0.0,2.0,0.2854921817779541,1.9247679710388184,0.5380048984406344,70.0,703.0,0.0
R,U,"[3, 7]",0.0,2.0,0.18688082695007324,1.625424861907959,0.34696158286161655,70.0,704.0,0.0
G,D,"[4, 7]",0.0,2.0,0.27337002754211426,1.6370160579681396,0.25059090273633045,70.0,705.0,0.0
B,L,"[4, 6]",0.0,2.0,0.34992289543151855,1.907792091369629,0.4582573521159197,70.0,706.0,0.0
G,D,"[5, 6]",-2.0,2.0,1.2359418869018555,2.996962070465088,0.7385532989500139,70.0,707.0,0.0
R,U,"[4, 6]",0.0,2.0,0.18215107917785645,1.8667659759521484,0.588320886352234,70.0,708.0,0.0
R,U,"[3, 6]",0.0,2.0,0.17816996574401855,1.8833670616149902,0.6049175385257006,70.0,709.0,0.0
R,U,"[2, 6]",0.0,2.0,0.17597413063049316,1.6478760242462158,0.36952860786374053,70.0,710.0,0.0
,,"(6, 6)",,,,,,,,
Y,R,"[6, 7]",0.0,0.0,0.3364830017089844,3.2281088829040527,0.5973900563515986,71.0,711.0,0.0
Y,R,"[6, 8]",1.0,1.0,0.8854060173034668,2.4072539806365967,0.42139481352411245,71.0,712.0,0.0
Y,R,"[6, 9]",1.0,2.0,0.27289605140686035,2.110996961593628,0.7322459478448764,71.0,713.0,0.0
G,D,"[7, 9]",0.0,2.0,0.1956479549407959,1.8431720733642578,0.541951996110105,71.0,714.0,0.0
R,U,"[6, 9]",0.0,2.0,0.774338960647583,2.386894941329956,0.5119966690808917,71.0,715.0,0.0
Y,R,"[6, 10]",1.0,3.0,0.28102612495422363,1.6834521293640137,0.3122151107795775,71.0,716.0,0.0
R,U,"[5, 10]",1.0,4.0,0.22757911682128906,1.9723310470581055,0.6508624836809254,71.0,717.0,0.0
R,U,"[4, 10]",1.0,5.0,0.19625592231750488,2.0153701305389404,0.7160160543638425,71.0,718.0,0.0
B,L,"[4, 9]",1.0,6.0,0.19350004196166992,1.9222650527954102,0.6221093183823068,71.0,719.0,0.0
R,U,"[3, 9]",1.0,7.0,0.17195892333984375,1.8584129810333252,0.5801261650179901,71.0,720.0,0.0
,,"(6, 6)",,,,,,,,
Y,R,"[6, 7]",0.0,0.0,0.5740540027618408,2.7963969707489014,0.6431442407116712,72.0,721.0,0.0
Y,R,"[6, 8]",1.0,1.0,0.541795015335083,2.057560920715332,0.41734109086703847,72.0,722.0,0.0
Y,R,"[6, 9]",1.0,2.0,0.35297489166259766,2.0264670848846436,0.5768968509575477,72.0,723.0,0.0
G,D,"[7, 9]",0.0,2.0,0.2343919277191162,1.7034518718719482,0.38038067443591406,72.0,724.0,0.0
R,U,"[6, 9]",0.0,2.0,0.5607240200042725,2.0570790767669678,0.3873342913330822,72.0,725.0,0.0
Y,R,"[6, 10]",1.0,3.0,0.22842812538146973,1.7553980350494385,0.42624739418631513,72.0,726.0,0.0
R,U,"[5, 10]",1.0,4.0,0.20758390426635742,1.7251770496368408,0.4178526319449281,72.0,727.0,0.0
R,U,"[4, 10]",1.0,5.0,0.19428300857543945,2.0393729209899902,0.7400430463379944,72.0,728.0,0.0
B,L,"[4, 9]",1.0,6.0,0.18601298332214355,1.8981668949127197,0.6216916661477345,72.0,729.0,0.0
R,U,"[3, 9]",1.0,7.0,0.17597699165344238,1.9962940216064453,0.7178313393981216,72.0,730.0,0.0
,,"(6, 6)",,,,,,,,
Y,R,"[6, 7]",0.0,0.0,0.4704289436340332,2.4192750453948975,0.3538984145932668,73.0,731.0,0.0
R,U,"[5, 7]",1.0,1.0,0.27878713607788086,2.016645908355713,0.6368181620311331,73.0,732.0,0.0
G,D,"[6, 7]",-1.0,1.0,0.04748201370239258,5.8103179931640625,0.6306921157207039,73.0,733.0,0.0
Y,R,"[6, 8]",1.0,2.0,0.2738821506500244,1.66805100440979,0.2819174891045203,73.0,734.0,0.0
G,D,"[7, 8]",0.0,2.0,0.4439530372619629,2.2465980052948,0.6947169373749342,73.0,735.0,0.0
Y,R,"[7, 9]",0.0,2.0,0.2417280673980713,1.8712751865386963,0.5327084586692036,73.0,736.0,0.0
Y,R,"[7, 10]",0.0,2.0,0.2173168659210205,1.9801290035247803,0.662974284372462,73.0,737.0,0.0
Y,R,"[7, 11]",0.0,2.0,0.28488993644714355,1.698434829711914,0.3113206993152635,73.0,738.0,0.0
Y,R,"[7, 10]",-3.0,2.0,0.2965371608734131,1.6793608665466309,0.2906797577777203,73.0,739.0,0.0
Y,R,"[7, 11]",0.0,2.0,0.24420404434204102,1.6230230331420898,0.28027312885483324,73.0,740.0,0.0
,,"(6, 6)",,,,,,,,
Y,R,"[6, 7]",0.0,0.0,0.4969291687011719,13.44064998626709,0.6533933490429866,74.0,741.0,0.0
Y,R,"[6, 8]",1.0,1.0,0.3718910217285156,1.9778258800506592,0.49795924228869537,74.0,742.0,0.0
Y,R,"[6, 9]",1.0,2.0,0.28298211097717285,1.759821891784668,0.3744464375983087,74.0,743.0,0.0
G,D,"[7, 9]",0.0,2.0,0.30092692375183105,1.8264780044555664,0.4340281001482258,74.0,744.0,0.0
Y,R,"[7, 10]",0.0,2.0,0.9875659942626953,2.5293071269989014,0.4466200006268069,74.0,745.0,0.0
Y,R,"[7, 11]",0.0,2.0,0.21537017822265625,1.7319788932800293,0.41195581120115476,74.0,746.0,0.0
R,U,"[6, 11]",0.0,2.0,0.18569111824035645,1.7951099872589111,0.5235140995518897,74.0,747.0,0.0
R,U,"[5, 11]",0.0,2.0,0.18879485130310059,1.6406419277191162,0.34755974685264146,74.0,748.0,0.0
B,L,"[5, 10]",1.0,3.0,0.2336869239807129,1.6775188446044922,0.3417005533855361,74.0,749.0,0.0
R,U,"[4, 10]",1.0,4.0,0.20774006843566895,1.5819149017333984,0.27371601010244895,74.0,750.0,0.0
,,"(6, 6)",,,,,,,,
R,U,"[5, 6]",1.0,1.0,0.8109798431396484,7.099298000335693,0.43913563987907434,75.0,751.0,0.0
Y,R,"[5, 7]",1.0,2.0,0.24538302421569824,1.6426241397857666,0.2985966098473358,75.0,752.0,0.0
Y,R,"[5, 8]",1.0,3.0,0.2662200927734375,2.0048539638519287,0.6362319356386091,75.0,753.0,0.0
G,D,"[6, 8]",1.0,4.0,0.21716809272766113,1.8860478401184082,0.5723810026603791,75.0,754.0,0.0
Y,R,"[6, 9]",1.0,5.0,0.17486906051635742,1.8260128498077393,0.5482300479446605,75.0,755.0,0.0
Y,R,"[6, 10]",1.0,6.0,0.21139812469482422,1.7030549049377441,0.3846816571802663,75.0,756.0,0.0
R,U,"[5, 10]",1.0,7.0,0.20744895935058594,1.991304874420166,0.675664291319096,75.0,757.0,0.0
R,U,"[4, 10]",1.0,8.0,0.1881568431854248,1.6822140216827393,0.4081404706410635,75.0,758.0,0.0
B,L,"[4, 9]",1.0,9.0,0.2798440456390381,1.639742136001587,0.2646467857328681,75.0,759.0,0.0
R,U,"[3, 9]",1.0,10.0,0.2866671085357666,1.6377301216125488,0.25224015550149476,75.0,760.0,0.0
,,"(6, 6)",,,,,,,,
R,U,"[5, 6]",1.0,1.0,0.287585973739624,2.7762951850891113,0.6113933420071345,76.0,761.0,0.0
Y,R,"[5, 7]",1.0,2.0,0.20005011558532715,2.0221071243286133,0.7333799195113365,76.0,762.0,0.0
Y,R,"[5, 8]",1.0,3.0,0.18827390670776367,1.6983649730682373,0.39853480276553227,76.0,763.0,0.0
G,D,"[6, 8]",1.0,4.0,0.28246307373046875,1.8595099449157715,0.4746633373531421,76.0,764.0,0.0
Y,R,"[6, 9]",1.0,5.0,0.2101900577545166,1.6574370861053467,0.3488420376224538,76.0,765.0,0.0
Y,R,"[6, 10]",1.0,6.0,0.3045041561126709,1.8397271633148193,0.4217777447753671,76.0,766.0,0.0
R,U,"[5, 10]",1.0,7.0,0.21016621589660645,1.8865439891815186,0.5746417948863172,76.0,767.0,0.0
R,U,"[4, 10]",1.0,8.0,0.15874886512756348,1.7479989528656006,0.4894139788027972,76.0,768.0,0.0
B,L,"[4, 9]",1.0,9.0,0.19192886352539062,1.9661829471588135,0.6718679855628917,76.0,769.0,0.0
R,U,"[3, 9]",1.0,10.0,0.1782701015472412,1.5519731044769287,0.2742138795639639,76.0,770.0,0.0
,,"(6, 6)",,,,,,,,
R,U,"[5, 6]",1.0,1.0,0.24944806098937988,2.2170472145080566,0.40782843919264505,77.0,771.0,0.0
Y,R,"[5, 7]",1.0,2.0,0.17149996757507324,1.969520092010498,0.7102216105347101,77.0,772.0,0.0
Y,R,"[5, 8]",-1.0,2.0,0.0672597885131836,5.893103122711182,0.7031018860375706,77.0,773.0,0.0
G,D,"[6, 8]",1.0,3.0,0.252608060836792,1.7820820808410645,0.4353440152091961,77.0,774.0,0.0
Y,R,"[6, 9]",1.0,4.0,0.20717692375183105,1.9368550777435303,0.622039360284458,77.0,775.0,0.0
Y,R,"[6, 10]",1.0,5.0,0.1748669147491455,1.9113547801971436,0.6331748040053544,77.0,776.0,0.0
R,U,"[5, 10]",1.0,6.0,0.16411900520324707,1.722114086151123,0.4554232628861647,77.0,777.0,0.0
R,U,"[4, 10]",1.0,7.0,0.20956993103027344,1.8782501220703125,0.5669522090930392,77.0,778.0,0.0
B,L,"[4, 9]",1.0,8.0,0.11834192276000977,1.8571429252624512,0.6407955446088485,77.0,779.0,0.0
R,U,"[3, 9]",-1.0,8.0,0.09120011329650879,5.575331926345825,0.3492882357388834,77.0,780.0,0.0
,,"(6, 6)",,,,,,,,
R,U,"[5, 6]",1.0,1.0,0.25504493713378906,3.3504998683929443,0.6827138872695699,78.0,781.0,0.0
Y,R,"[5, 7]",1.0,2.0,0.18754315376281738,1.7275609970092773,0.443628501575546,78.0,782.0,0.0
Y,R,"[5, 8]",1.0,3.0,0.24488091468811035,1.9800748825073242,0.6401505385480163,78.0,783.0,0.0
G,D,"[6, 8]",1.0,4.0,0.18457412719726562,1.5445399284362793,0.2681406135736208,78.0,784.0,0.0
Y,R,"[6, 9]",1.0,5.0,0.27348995208740234,1.65165114402771,0.26977797706500495,78.0,785.0,0.0
Y,R,"[6, 10]",1.0,6.0,0.26566386222839355,1.967257022857666,0.6037123085585967,78.0,786.0,0.0
R,U,"[5, 10]",1.0,7.0,0.21944594383239746,1.904778003692627,0.5915021514116525,78.0,787.0,0.0
R,U,"[4, 10]",1.0,8.0,0.18679499626159668,1.6165380477905273,0.34154965276884763,78.0,788.0,0.0
B,L,"[4, 9]",1.0,9.0,0.27917003631591797,1.6508212089538574,0.27567305731371045,78.0,789.0,0.0
R,U,"[3, 9]",1.0,10.0,0.22808599472045898,2.0242159366607666,0.6993013558356005,78.0,790.0,0.0
,,"(6, 6)",,,,,,,,
R,U,"[5, 6]",1.0,1.0,0.40123510360717773,2.9123220443725586,0.5118338643063713,79.0,791.0,0.0
Y,R,"[5, 7]",1.0,2.0,0.2017660140991211,1.7446961402893066,0.45653336741434264,79.0,792.0,0.0
Y,R,"[5, 8]",1.0,3.0,0.2527611255645752,1.6247930526733398,0.28134313486069457,79.0,793.0,0.0
G,D,"[6, 8]",1.0,4.0,0.27521491050720215,1.8948161602020264,0.5090440012907362,79.0,794.0,0.0
Y,R,"[6, 9]",1.0,5.0,0.32706713676452637,1.7389001846313477,0.3148601849657422,79.0,795.0,0.0
Y,R,"[6, 10]",1.0,6.0,0.245866060256958,1.9410910606384277,0.5889482345604123,79.0,796.0,0.0
R,U,"[5, 10]",-1.0,6.0,0.06080794334411621,5.727587938308716,0.5332331062229998,79.0,797.0,0.0
R,U,"[4, 10]",1.0,7.0,0.3100769519805908,1.7545289993286133,0.3376025193076186,79.0,798.0,0.0
B,L,"[4, 9]",1.0,8.0,0.3016810417175293,1.9308040142059326,0.5351715656605635,79.0,799.0,0.0
R,U,"[3, 9]",1.0,9.0,0.1688690185546875,1.526914119720459,0.26196560964917376,79.0,800.0,0.0
,,"(6, 6)",,,,,,,,
R,U,"[5, 6]",1.0,1.0,0.5605771541595459,2.815521001815796,0.5104356563071726,80.0,801.0,0.0
Y,R,"[5, 7]",1.0,2.0,0.21131610870361328,1.9503860473632812,0.6440593648989543,80.0,802.0,0.0
Y,R,"[5, 8]",1.0,3.0,0.21428608894348145,1.811506986618042,0.5054970137806336,80.0,803.0,0.0
G,D,"[6, 8]",1.0,4.0,0.2547321319580078,1.8015320301055908,0.4404706535996112,80.0,804.0,0.0
Y,R,"[6, 9]",1.0,5.0,0.21373319625854492,1.63919997215271,0.32975143843451843,80.0,805.0,0.0
Y,R,"[6, 10]",1.0,6.0,0.35564494132995605,2.0525269508361816,0.5819091134197973,80.0,806.0,0.0
R,U,"[5, 10]",1.0,7.0,0.1825098991394043,1.9238028526306152,0.6388612869905271,80.0,807.0,0.0
R,U,"[4, 10]",-1.0,7.0,0.09011507034301758,5.847481966018677,0.6194891111315798,80.0,808.0,0.0
B,L,"[4, 9]",1.0,8.0,0.3427748680114746,1.8129642009735107,0.36600936799447414,80.0,809.0,0.0
R,U,"[3, 9]",1.0,9.0,0.20701885223388672,1.9127099514007568,0.5950158319289305,80.0,810.0,0.0
,,"(6, 6)",,,,,,,,
R,U,"[5, 6]",1.0,1.0,0.23896288871765137,2.2408978939056396,0.3194407175039417,81.0,811.0,0.0
Y,R,"[5, 7]",1.0,2.0,0.24805808067321777,1.6647770404815674,0.31755482807935587,81.0,812.0,0.0
R,U,"[4, 7]",0.0,2.0,0.47530102729797363,1.9908249378204346,0.40810597848724045,81.0,813.0,0.0
G,D,"[5, 7]",0.0,2.0,0.2859342098236084,1.7383270263671875,0.3631856883946456,81.0,814.0,0.0
Y,R,"[5, 8]",1.0,3.0,0.3928658962249756,1.8252739906311035,0.3218203395049285,81.0,815.0,0.0
Y,R,"[5, 9]",0.0,3.0,0.21926498413085938,1.7264869213104248,0.41481791574927174,81.0,816.0,0.0
R,U,"[4, 9]",1.0,4.0,0.19293999671936035,1.92417311668396,0.621907346256344,81.0,817.0,0.0
R,U,"[3, 9]",1.0,5.0,0.17125201225280762,1.7028939723968506,0.424933953664066,81.0,818.0,0.0
B,L,"[3, 8]",0.0,5.0,0.2351059913635254,1.9921250343322754,0.6667707438376564,81.0,819.0,0.0
R,U,"[2, 8]",0.0,5.0,0.189100980758667,1.8940210342407227,0.5940335256642677,81.0,820.0,0.0
,,"(6, 6)",,,,,,,,
R,U,"[5, 6]",1.0,1.0,0.3682990074157715,5.569344997406006,0.46338291824078753,82.0,821.0,0.0
Y,R,"[5, 7]",1.0,2.0,0.1754589080810547,1.7369909286499023,0.4503271129177557,82.0,822.0,0.0
R,U,"[4, 7]",0.0,2.0,0.20389699935913086,1.9286229610443115,0.6285827888346007,82.0,823.0,0.0
R,U,"[3, 7]",0.0,2.0,0.22919511795043945,1.658708095550537,0.3375409377787396,82.0,824.0,0.0
R,U,"[2, 7]",-1.0,2.0,0.07494997978210449,5.661777973175049,0.44897805348895625,82.0,825.0,0.0
R,U,"[1, 7]",0.0,2.0,0.3087739944458008,2.0229029655456543,0.6049836024531174,82.0,826.0,0.0
R,U,"[2, 7]",-3.0,2.0,0.19720983505249023,1.923671007156372,0.6286471235808428,82.0,827.0,0.0
R,U,"[1, 7]",0.0,2.0,0.19539308547973633,1.946566104888916,0.6586603973683598,82.0,828.0,0.0
R,U,"[2, 7]",-3.0,2.0,0.19466018676757812,1.5599470138549805,0.2686897908146948,82.0,829.0,0.0
R,U,"[1, 7]",0.0,2.0,0.29172515869140625,1.694309949874878,0.2962527152538415,82.0,830.0,0.0
,,"(6, 6)",,,,,,,,
R,U,"[5, 6]",1.0,1.0,0.2989771366119385,3.43196177482605,0.39463367748706646,83.0,831.0,0.0
Y,R,"[5, 7]",1.0,2.0,0.22102999687194824,1.9967920780181885,0.6743693850586974,83.0,832.0,0.0
Y,R,"[5, 8]",1.0,3.0,0.1569221019744873,1.5376949310302734,0.27903314884684116,83.0,833.0,0.0
G,D,"[6, 8]",1.0,4.0,0.32982492446899414,2.0680758953094482,0.6467992103021465,83.0,834.0,0.0
Y,R,"[6, 9]",1.0,5.0,0.13929390907287598,1.621994972229004,0.3689274204424209,83.0,835.0,0.0
Y,R,"[6, 10]",1.0,6.0,0.22640395164489746,1.7585217952728271,0.4273902900033215,83.0,836.0,0.0
R,U,"[5, 10]",1.0,7.0,0.22547006607055664,1.9814479351043701,0.6584022114072869,83.0,837.0,0.0
R,U,"[4, 10]",1.0,8.0,0.13771915435791016,1.7793538570404053,0.5545636316454348,83.0,838.0,0.0
B,L,"[4, 9]",1.0,9.0,0.29859185218811035,1.928344964981079,0.5329388403382971,83.0,839.0,0.0
R,U,"[3, 9]",1.0,10.0,0.18742108345031738,1.6292188167572021,0.345355915193754,83.0,840.0,0.0
,,"(6, 6)",,,,,,,,
R,U,"[5, 6]",1.0,1.0,0.16417813301086426,2.0462050437927246,0.44144180780822684,84.0,841.0,0.0
Y,R,"[5, 7]",1.0,2.0,0.18476104736328125,1.9271371364593506,0.6517510661243815,84.0,842.0,0.0
Y,R,"[5, 8]",1.0,3.0,0.15133213996887207,1.5311639308929443,0.28318020953778267,84.0,843.0,0.0
G,D,"[6, 8]",1.0,4.0,0.33794283866882324,2.011406898498535,0.5775298461921945,84.0,844.0,0.0
Y,R,"[6, 9]",1.0,5.0,0.38703393936157227,1.9703350067138672,0.49785202111595395,84.0,845.0,0.0
Y,R,"[6, 10]",1.0,6.0,0.21250200271606445,1.9190940856933594,0.6000737286187163,84.0,846.0,0.0
R,U,"[5, 10]",1.0,7.0,0.20691394805908203,1.913059949874878,0.596415837730784,84.0,847.0,0.0
R,U,"[4, 10]",1.0,8.0,0.2142958641052246,1.7592780590057373,0.4390930781351724,84.0,848.0,0.0
B,L,"[4, 9]",1.0,9.0,0.20516395568847656,1.790457010269165,0.4795249022340694,84.0,849.0,0.0
R,U,"[3, 9]",1.0,10.0,0.22622013092041016,1.872556209564209,0.5350666154812651,84.0,850.0,0.0
,,"(6, 6)",,,,,,,,
R,U,"[5, 6]",1.0,1.0,0.17392516136169434,2.605823040008545,0.3244756154868257,85.0,851.0,0.0
Y,R,"[5, 7]",1.0,2.0,0.2894761562347412,2.032166004180908,0.6396749362640386,85.0,852.0,0.0
Y,R,"[5, 8]",1.0,3.0,0.17402195930480957,1.6345069408416748,0.35774876154712476,85.0,853.0,0.0
G,D,"[6, 8]",1.0,4.0,0.25666189193725586,1.6228809356689453,0.2639715902737094,85.0,854.0,0.0
Y,R,"[6, 9]",1.0,5.0,0.2096400260925293,1.9470200538635254,0.627085509581889,85.0,855.0,0.0
Y,R,"[6, 10]",1.0,6.0,0.13908004760742188,1.9314751625061035,0.6919694670669948,85.0,856.0,0.0
R,U,"[5, 10]",-1.0,6.0,0.022151947021484375,5.5021491050720215,0.360681429826971,85.0,857.0,0.0
R,U,"[4, 10]",1.0,7.0,0.2656559944152832,1.9470000267028809,0.5909041026542574,85.0,858.0,0.0
R,U,"[3, 10]",0.0,7.0,0.16947293281555176,1.6979289054870605,0.4388838331517835,85.0,859.0,0.0
B,L,"[3, 9]",1.0,8.0,0.2584850788116455,1.8336989879608154,0.4724109576858349,85.0,860.0,0.0
,,"(6, 6)",,,,,,,,
R,U,"[5, 6]",1.0,1.0,0.20256304740905762,12.067201852798462,0.5556450770643077,86.0,861.0,0.0
Y,R,"[5, 7]",1.0,2.0,0.22925400733947754,1.7499868869781494,0.42248983387654104,86.0,862.0,0.0
Y,R,"[5, 8]",1.0,3.0,0.36063599586486816,2.002660036087036,0.541826356928537,86.0,863.0,0.0
G,D,"[6, 8]",1.0,4.0,0.22732806205749512,1.6782050132751465,0.35309655569429577,86.0,864.0,0.0
Y,R,"[6, 9]",1.0,5.0,0.22147083282470703,1.8489201068878174,0.5186195372011252,86.0,865.0,0.0
Y,R,"[6, 10]",1.0,6.0,0.18980193138122559,1.7582361698150635,0.460160521358609,86.0,866.0,0.0
R,U,"[5, 10]",1.0,7.0,0.19303083419799805,1.6430060863494873,0.3532256685208035,86.0,867.0,0.0
R,U,"[4, 10]",1.0,8.0,0.26769113540649414,1.6696879863739014,0.3061043853469823,86.0,868.0,0.0
B,L,"[4, 9]",1.0,9.0,0.27718496322631836,1.883207082748413,0.5057225443636071,86.0,869.0,0.0
R,U,"[3, 9]",1.0,10.0,0.17476987838745117,1.6589300632476807,0.3814046395157433,86.0,870.0,0.0
,,"(6, 6)",,,,,,,,
R,U,"[5, 6]",1.0,1.0,0.20841407775878906,3.3802170753479004,0.7111501353486709,87.0,871.0,0.0
Y,R,"[5, 7]",1.0,2.0,0.1705930233001709,1.6161630153656006,0.3444535884284767,87.0,872.0,0.0
Y,R,"[5, 8]",1.0,3.0,0.2337510585784912,1.752439022064209,0.4300570548623158,87.0,873.0,0.0
G,D,"[6, 8]",1.0,4.0,0.21886610984802246,1.7537870407104492,0.4336534593818231,87.0,874.0,0.0
Y,R,"[6, 9]",1.0,5.0,0.18187999725341797,1.5962319374084473,0.31320092001380967,87.0,875.0,0.0
Y,R,"[6, 10]",1.0,6.0,0.22915410995483398,2.024407148361206,0.6872130188324872,87.0,876.0,0.0
R,U,"[5, 10]",-1.0,6.0,0.09889912605285645,5.61296010017395,0.38355778776740074,87.0,877.0,0.0
R,U,"[4, 10]",1.0,7.0,0.2743968963623047,1.953848123550415,0.5705388139799044,87.0,878.0,0.0
R,U,"[3, 10]",0.0,7.0,0.23331117630004883,2.060167074203491,0.7304333465189441,87.0,879.0,0.0
B,L,"[3, 9]",-1.0,7.0,0.09464406967163086,5.8446149826049805,0.608378238623823,87.0,880.0,0.0
,,"(6, 6)",,,,,,,,
R,U,"[5, 6]",1.0,1.0,0.2075958251953125,4.673707962036133,0.6318950918259414,88.0,881.0,0.0
Y,R,"[5, 7]",1.0,2.0,0.15443801879882812,1.915360927581787,0.6638167037660261,88.0,882.0,0.0
Y,R,"[5, 8]",1.0,3.0,0.2053840160369873,1.980393886566162,0.6778602925449903,88.0,883.0,0.0
G,D,"[6, 8]",1.0,4.0,0.23746299743652344,1.9233288764953613,0.6006790650335359,88.0,884.0,0.0
Y,R,"[6, 9]",1.0,5.0,0.24106502532958984,1.8341338634490967,0.48483696159181167,88.0,885.0,0.0
Y,R,"[6, 10]",1.0,6.0,0.42072105407714844,2.228015899658203,0.7125575142042715,88.0,886.0,0.0
R,U,"[5, 10]",1.0,7.0,0.2844979763031006,1.7827439308166504,0.39554421328897654,88.0,887.0,0.0
R,U,"[4, 10]",1.0,8.0,0.22682499885559082,2.0300309658050537,0.7085715550409057,88.0,888.0,0.0
B,L,"[4, 9]",1.0,9.0,0.2162799835205078,1.6766610145568848,0.3688804193447794,88.0,889.0,0.0
R,U,"[3, 9]",1.0,10.0,0.26917099952697754,2.0774290561676025,0.7124725113332833,88.0,890.0,0.0
,,"(6, 6)",,,,,,,,
R,U,"[5, 6]",1.0,1.0,0.1926560401916504,2.3277018070220947,0.4071857645867363,89.0,891.0,0.0
Y,R,"[5, 7]",1.0,2.0,0.24389386177062988,1.9785120487213135,0.6352846037209897,89.0,892.0,0.0
Y,R,"[5, 8]",1.0,3.0,0.19548392295837402,1.9361839294433594,0.6380602775058746,89.0,893.0,0.0
G,D,"[6, 8]",1.0,4.0,0.20139598846435547,1.732240915298462,0.4372305892384571,89.0,894.0,0.0
Y,R,"[6, 9]",1.0,5.0,0.3204460144042969,2.0815727710723877,0.6684279660911285,89.0,895.0,0.0
Y,R,"[6, 10]",1.0,6.0,0.2044541835784912,1.7592599391937256,0.444560336818607,89.0,896.0,0.0
R,U,"[5, 10]",1.0,7.0,0.2683990001678467,1.7782068252563477,0.42253259482702965,89.0,897.0,0.0
R,U,"[4, 10]",1.0,8.0,0.22403812408447266,1.6702489852905273,0.3429267955127897,89.0,898.0,0.0
B,L,"[4, 9]",1.0,9.0,0.45392298698425293,2.2385289669036865,0.6976677817131192,89.0,899.0,0.0
R,U,"[3, 9]",-1.0,9.0,0.07521510124206543,5.827130079269409,0.6080111467966858,89.0,900.0,0.0
,,"(6, 6)",,,,,,,,
R,U,"[5, 6]",1.0,1.0,0.24093079566955566,12.168533086776733,0.6759313081121536,90.0,901.0,0.0
Y,R,"[5, 7]",1.0,2.0,0.2417440414428711,2.049147129058838,0.7083399308244056,90.0,902.0,0.0
Y,R,"[5, 8]",-1.0,2.0,0.03319883346557617,5.506568193435669,0.34844207668414595,90.0,903.0,0.0
G,D,"[6, 8]",1.0,3.0,0.2892589569091797,1.9744510650634766,0.5891887032610428,90.0,904.0,0.0
Y,R,"[6, 9]",1.0,4.0,0.1962580680847168,1.5665080547332764,0.27257118219380266,90.0,905.0,0.0
Y,R,"[6, 10]",1.0,5.0,0.3059251308441162,1.742908000946045,0.33211540159956765,90.0,906.0,0.0
R,U,"[5, 10]",1.0,6.0,0.26846909523010254,2.0075719356536865,0.6392597283085797,90.0,907.0,0.0
R,U,"[4, 10]",1.0,7.0,0.17847394943237305,1.5481929779052734,0.2710823899640684,90.0,908.0,0.0
B,L,"[4, 9]",1.0,8.0,0.28115105628967285,1.8339519500732422,0.45488568023357406,90.0,909.0,0.0
R,U,"[3, 9]",1.0,9.0,0.20354104042053223,1.6173210144042969,0.3221284704579189,90.0,910.0,0.0
,,"(6, 6)",,,,,,,,
R,U,"[5, 6]",1.0,1.0,0.3011460304260254,3.1905078887939453,0.7288559184040859,91.0,911.0,0.0
Y,R,"[5, 7]",1.0,2.0,0.18831205368041992,2.000562906265259,0.7131659039772935,91.0,912.0,0.0
Y,R,"[5, 8]",1.0,3.0,0.21636199951171875,1.8544390201568604,0.5339690108643405,91.0,913.0,0.0
G,D,"[6, 8]",1.0,4.0,0.25937414169311523,1.9748680591583252,0.608620545731168,91.0,914.0,0.0
Y,R,"[6, 9]",1.0,5.0,0.17465686798095703,1.9733331203460693,0.6985247757252698,91.0,915.0,0.0
Y,R,"[6, 10]",1.0,6.0,0.19230198860168457,1.5856268405914307,0.28469243389008975,91.0,916.0,0.0
R,U,"[5, 10]",1.0,7.0,0.2658569812774658,1.7618098258972168,0.39613594962000326,91.0,917.0,0.0
R,U,"[4, 10]",1.0,8.0,0.21216082572937012,2.037421941757202,0.7165208817154133,91.0,918.0,0.0
B,L,"[4, 9]",-1.0,8.0,0.06040000915527344,5.5908238887786865,0.39078337413369013,91.0,919.0,0.0
R,U,"[3, 9]",1.0,9.0,0.29052305221557617,1.7241580486297607,0.33159507112730635,91.0,920.0,0.0
,,"(6, 6)",,,,,,,,
R,U,"[5, 6]",1.0,1.0,0.288532018661499,2.308568000793457,0.40654901345317984,92.0,921.0,0.0
Y,R,"[5, 7]",1.0,2.0,0.20903396606445312,1.9166619777679443,0.6063999619647069,92.0,922.0,0.0
Y,R,"[5, 8]",1.0,3.0,0.17344188690185547,1.8336968421936035,0.5568459396738986,92.0,923.0,0.0
G,D,"[6, 8]",1.0,4.0,0.20194315910339355,1.9667670726776123,0.6735841917396949,92.0,924.0,0.0
R,U,"[5, 8]",0.0,4.0,0.19625496864318848,1.8251299858093262,0.5317801379736783,92.0,925.0,0.0
Y,R,"[5, 9]",0.0,4.0,0.19084787368774414,1.634124994277954,0.3326890150128848,92.0,926.0,0.0
R,U,"[4, 9]",1.0,5.0,0.2530219554901123,1.7273149490356445,0.3765653472416894,92.0,927.0,0.0
R,U,"[3, 9]",1.0,6.0,0.18694090843200684,1.5597429275512695,0.2863479577243749,92.0,928.0,0.0
B,L,"[3, 8]",0.0,6.0,0.25960803031921387,1.7341461181640625,0.3703669184240859,92.0,929.0,0.0
R,U,"[2, 8]",0.0,6.0,0.23247694969177246,1.856726884841919,0.5268257441849268,92.0,930.0,0.0
,,"(6, 6)",,,,,,,,
R,U,"[5, 6]",1.0,1.0,0.17880606651306152,2.2162680625915527,0.3432111572084153,93.0,931.0,0.0
Y,R,"[5, 7]",1.0,2.0,0.21509385108947754,1.8992679119110107,0.5920970694742992,93.0,932.0,0.0
Y,R,"[5, 8]",1.0,3.0,0.18705201148986816,1.552466869354248,0.2782533830714582,93.0,933.0,0.0
G,D,"[6, 8]",1.0,4.0,0.2991490364074707,2.0208969116210938,0.6320288034609527,93.0,934.0,0.0
Y,R,"[6, 9]",1.0,5.0,0.22363781929016113,2.045753002166748,0.7110316104351699,93.0,935.0,0.0
Y,R,"[6, 10]",-1.0,5.0,0.08882308006286621,5.682076930999756,0.4597912050038461,93.0,936.0,0.0
R,U,"[5, 10]",1.0,6.0,0.29684996604919434,2.074561834335327,0.6841196008244687,93.0,937.0,0.0
R,U,"[4, 10]",1.0,7.0,0.26146507263183594,1.709528923034668,0.34381083512590394,93.0,938.0,0.0
B,L,"[4, 9]",1.0,8.0,0.2914581298828125,1.8586468696594238,0.46888555990058756,93.0,939.0,0.0
R,U,"[3, 9]",1.0,9.0,0.26521897315979004,2.0173568725585938,0.6527800531442571,93.0,940.0,0.0
,,"(6, 6)",,,,,,,,
R,U,"[5, 6]",1.0,1.0,0.27283596992492676,2.992155075073242,0.494970323023873,94.0,941.0,0.0
Y,R,"[5, 7]",1.0,2.0,0.2833859920501709,1.9893441200256348,0.6177769728982486,94.0,942.0,0.0
Y,R,"[5, 8]",1.0,3.0,0.23073196411132812,1.9429199695587158,0.6102465442928466,94.0,943.0,0.0
G,D,"[6, 8]",1.0,4.0,0.2133009433746338,1.8419718742370605,0.5356319962556575,94.0,944.0,0.0
Y,R,"[6, 9]",1.0,5.0,0.2014319896697998,1.7300028800964355,0.4323318991147374,94.0,945.0,0.0
Y,R,"[6, 10]",1.0,6.0,0.21790218353271484,1.944087028503418,0.6260173969368668,94.0,946.0,0.0
R,U,"[5, 10]",1.0,7.0,0.20666885375976562,1.7993640899658203,0.49223711253765734,94.0,947.0,0.0
R,U,"[4, 10]",1.0,8.0,0.1945359706878662,1.5497140884399414,0.25878867749130385,94.0,948.0,0.0
B,L,"[4, 9]",1.0,9.0,0.3415219783782959,2.0930190086364746,0.651334028449144,94.0,949.0,0.0
R,U,"[3, 9]",1.0,10.0,0.17287111282348633,1.8291800022125244,0.5472431278655603,94.0,950.0,0.0
,,"(6, 6)",,,,,,,,
R,U,"[5, 6]",1.0,1.0,0.20428895950317383,2.223443031311035,0.4873439654668199,95.0,951.0,0.0
Y,R,"[5, 7]",1.0,2.0,0.17218494415283203,1.932973861694336,0.6533027880314652,95.0,952.0,0.0
Y,R,"[5, 8]",1.0,3.0,0.144758939743042,1.9056339263916016,0.6589551173649213,95.0,953.0,0.0
G,D,"[6, 8]",1.0,4.0,0.15016698837280273,1.58156418800354,0.34078442411617454,95.0,954.0,0.0
Y,R,"[6, 9]",1.0,5.0,0.2626841068267822,1.8111600875854492,0.45177726518008965,95.0,955.0,0.0
Y,R,"[6, 10]",1.0,6.0,0.19795989990234375,1.9110629558563232,0.6126304176901243,95.0,956.0,0.0
R,U,"[5, 10]",-1.0,6.0,0.03355717658996582,5.4501118659973145,0.2794759511594957,95.0,957.0,0.0
R,U,"[4, 10]",1.0,7.0,0.2741401195526123,1.9903080463409424,0.6026761060765999,95.0,958.0,0.0
B,L,"[4, 9]",1.0,8.0,0.16885113716125488,1.6148920059204102,0.3511798357432051,95.0,959.0,0.0
R,U,"[3, 9]",1.0,9.0,0.19312596321105957,2.008324146270752,0.7089842289610984,95.0,960.0,0.0
,,"(6, 6)",,,,,,,,
R,U,"[5, 6]",1.0,1.0,0.15488195419311523,2.3065080642700195,0.4324308770554518,96.0,961.0,0.0
Y,R,"[5, 7]",1.0,2.0,0.20555686950683594,1.8515381813049316,0.533846012391721,96.0,962.0,0.0
Y,R,"[5, 8]",1.0,3.0,0.20634984970092773,1.6002449989318848,0.2840781446780829,96.0,963.0,0.0
G,D,"[6, 8]",1.0,4.0,0.2495729923248291,1.6416218280792236,0.29241592375679387,96.0,964.0,0.0
Y,R,"[6, 9]",1.0,5.0,0.28397107124328613,1.9661149978637695,0.5914370921817889,96.0,965.0,0.0
Y,R,"[6, 10]",1.0,6.0,0.10260891914367676,1.7673671245574951,0.5754320392499628,96.0,966.0,0.0
R,U,"[5, 10]",1.0,7.0,0.17861008644104004,1.9087021350860596,0.6340618166874699,96.0,967.0,0.0
R,U,"[4, 10]",1.0,8.0,0.18083906173706055,1.8743970394134521,0.5916787068551175,96.0,968.0,0.0
B,L,"[4, 9]",1.0,9.0,0.20021390914916992,2.0165791511535645,0.724735477431877,96.0,969.0,0.0
R,U,"[3, 9]",1.0,10.0,0.21458196640014648,1.8768341541290283,0.568320407917122,96.0,970.0,0.0
,,"(6, 6)",,,,,,,,
R,U,"[5, 6]",1.0,1.0,0.3872668743133545,6.414730072021484,0.3497043033044379,97.0,971.0,0.0
Y,R,"[5, 7]",1.0,2.0,0.2893850803375244,2.129065990447998,0.7283842935969871,97.0,972.0,0.0
Y,R,"[5, 8]",1.0,3.0,0.19375014305114746,1.7184960842132568,0.4303448189737126,97.0,973.0,0.0
G,D,"[6, 8]",1.0,4.0,0.2472679615020752,2.07039213180542,0.7171814524660252,97.0,974.0,0.0
Y,R,"[6, 9]",1.0,5.0,0.17376089096069336,1.9195139408111572,0.6367194572842383,97.0,975.0,0.0
Y,R,"[6, 10]",1.0,6.0,0.19177699089050293,1.8545019626617432,0.5578765556996773,97.0,976.0,0.0
R,U,"[5, 10]",1.0,7.0,0.18224501609802246,1.7100729942321777,0.4345542659189555,97.0,977.0,0.0
R,U,"[4, 10]",1.0,8.0,0.23239493370056152,1.75689697265625,0.42483911289618215,97.0,978.0,0.0
B,L,"[4, 9]",1.0,9.0,0.2762570381164551,1.9798610210418701,0.604487295423094,97.0,979.0,0.0
R,U,"[3, 9]",1.0,10.0,0.21946501731872559,1.9007670879364014,0.5888278541593418,97.0,980.0,0.0
,,"(6, 6)",,,,,,,,
R,U,"[5, 6]",1.0,1.0,0.1998310089111328,1.9456820487976074,0.30102298370241665,98.0,981.0,0.0
Y,R,"[5, 7]",1.0,2.0,0.25588297843933105,1.9913380146026611,0.6253445863595366,98.0,982.0,0.0
Y,R,"[5, 8]",1.0,3.0,0.24238014221191406,1.741041898727417,0.39984720723828715,98.0,983.0,0.0
G,D,"[6, 8]",1.0,4.0,0.20839715003967285,1.7798750400543213,0.462946078709213,98.0,984.0,0.0
Y,R,"[6, 9]",1.0,5.0,0.20699191093444824,1.575019121170044,0.25472330259990494,98.0,985.0,0.0
Y,R,"[6, 10]",1.0,6.0,0.28996801376342773,1.9847791194915771,0.5891546263769802,98.0,986.0,0.0
R,U,"[5, 10]",1.0,7.0,0.18094611167907715,1.665112018585205,0.38761895942724456,98.0,987.0,0.0
R,U,"[4, 10]",1.0,8.0,0.24257516860961914,1.9534549713134766,0.6075218082101332,98.0,988.0,0.0
B,L,"[4, 9]",1.0,9.0,0.20528602600097656,1.8988220691680908,0.6063528145724472,98.0,989.0,0.0
R,U,"[3, 9]",1.0,10.0,0.16947412490844727,1.6228821277618408,0.3626682934288226,98.0,990.0,0.0
,,"(6, 6)",,,,,,,,
R,U,"[5, 6]",1.0,1.0,0.11865687370300293,1.8937790393829346,0.35637654157403464,99.0,991.0,0.0
Y,R,"[5, 7]",1.0,2.0,0.22257113456726074,1.8810820579528809,0.5538522799858587,99.0,992.0,0.0
Y,R,"[5, 8]",1.0,3.0,0.11131095886230469,1.590778112411499,0.3781760461769737,99.0,993.0,0.0
G,D,"[6, 8]",1.0,4.0,0.22374582290649414,1.9357669353485107,0.6136155004710657,99.0,994.0,0.0
Y,R,"[6, 9]",1.0,5.0,0.1457071304321289,1.942857027053833,0.6897307237507325,99.0,995.0,0.0
Y,R,"[6, 10]",1.0,6.0,0.14946889877319336,1.743736982345581,0.5002574020029911,99.0,996.0,0.0
R,U,"[5, 10]",1.0,7.0,0.19530892372131348,1.992779016494751,0.6929806258730556,99.0,997.0,0.0
R,U,"[4, 10]",1.0,8.0,0.21411609649658203,1.6910209655761719,0.3839843578742353,99.0,998.0,0.0
B,L,"[4, 9]",1.0,9.0,0.2799210548400879,1.655052900314331,0.27230829254047256,99.0,999.0,0.0
R,U,"[3, 9]",1.0,10.0,0.5680019855499268,2.4000420570373535,0.7386198109521089,99.0,1000.0,0.0
