button_choice,action_choice,coordinate_choice,reward,cumulative_reward,rt,total_trial_time,iti,block_n,trial_n,trial_type
R,U,"[5, 6]",-2.0,0.0,2.0249438285827637,3.6498210430145264,0.6338411021708574,0.0,1.0,0.0
G,D,"[6, 6]",0.0,0.0,0.4382190704345703,1.7560720443725586,0.32360726623284564,0.0,2.0,0.0
Y,R,"[6, 7]",-2.0,0.0,2.158289909362793,3.6087489128112793,0.4819970546775002,0.0,3.0,0.0
B,L,"[6, 6]",-2.0,0.0,1.3395891189575195,3.0667829513549805,0.7486019342266936,0.0,4.0,0.0
R,U,"[5, 6]",0.0,0.0,0.3509080410003662,1.713548183441162,0.36254841945285227,0.0,5.0,0.0
Y,R,"[5, 7]",-2.0,0.0,1.0431950092315674,2.722614049911499,0.701768260751506,0.0,6.0,0.0
B,L,"[5, 6]",0.0,0.0,0.30051279067993164,1.8801310062408447,0.5816755606059107,0.0,7.0,0.0
G,D,"[6, 6]",0.0,0.0,0.9271600246429443,2.289647102355957,0.354821255267701,0.0,8.0,0.0
R,U,"[5, 6]",0.0,0.0,0.9728310108184814,2.618156909942627,0.6393746769755868,0.0,9.0,0.0
Y,R,"[5, 7]",0.0,0.0,0.5681548118591309,1.9639620780944824,0.4035155637834849,0.0,10.0,0.0
,,"(6, 6)",,,,,,,,
Y,R,"[6, 7]",0.0,0.0,0.31543803215026855,9.852641105651855,0.6391009829393313,1.0,11.0,0.0
R,U,"[5, 7]",1.0,1.0,0.22835087776184082,1.5384550094604492,0.31128802853229703,1.0,12.0,0.0
R,U,"[4, 7]",0.0,1.0,0.23022913932800293,1.4917759895324707,0.26973207760209444,1.0,13.0,0.0
G,D,"[5, 7]",0.0,1.0,0.26815009117126465,1.7846500873565674,0.520761130906736,1.0,14.0,0.0
B,L,"[5, 6]",1.0,2.0,0.18869495391845703,1.6443710327148438,0.44841372059639867,1.0,15.0,0.0
B,L,"[5, 5]",0.0,2.0,0.1916341781616211,1.8410439491271973,0.6392848679571459,1.0,16.0,0.0
R,U,"[4, 5]",0.0,2.0,0.2563309669494629,1.984764814376831,0.7240295703949909,1.0,17.0,0.0
Y,R,"[4, 6]",0.0,2.0,0.22495698928833008,1.8216280937194824,0.59574595264801,1.0,18.0,0.0
Y,R,"[4, 7]",0.0,2.0,0.1866459846496582,1.7942159175872803,0.6066106661378908,1.0,19.0,0.0
G,D,"[5, 7]",0.0,2.0,0.1572568416595459,1.7404298782348633,0.580418060739597,1.0,20.0,0.0
,,"(6, 6)",,,,,,,,
G,D,"[7, 6]",0.0,0.0,0.603410005569458,10.66532301902771,0.34578907191593683,2.0,21.0,0.0
G,D,"[8, 6]",-1.0,0.0,0.09621715545654297,5.617088079452515,0.4294860233459279,2.0,22.0,0.0
B,L,"[8, 5]",0.0,0.0,0.2638580799102783,1.911478042602539,0.6406029819265633,2.0,23.0,0.0
R,U,"[7, 5]",0.0,0.0,0.28921985626220703,1.9327480792999268,0.6401251069270707,2.0,24.0,0.0
R,U,"[6, 5]",0.0,0.0,0.28806209564208984,1.5452880859375,0.26907299873030094,2.0,25.0,0.0
Y,R,"[6, 6]",0.0,0.0,0.4564800262451172,2.0275638103485107,0.562957020979213,2.0,26.0,0.0
Y,R,"[6, 7]",0.0,0.0,0.3241870403289795,1.9635250568389893,0.6263016397278973,2.0,27.0,0.0
B,L,"[6, 6]",0.0,0.0,0.3461308479309082,2.007054090499878,0.6670840580605819,2.0,28.0,0.0
R,U,"[5, 6]",1.0,1.0,0.16438579559326172,1.5030031204223633,0.3366617974285713,2.0,29.0,0.0
Y,R,"[5, 7]",1.0,2.0,0.4646720886230469,1.7604029178619385,0.29718609257049566,2.0,30.0,0.0
,,"(6, 6)",,,,,,,,
G,D,"[7, 6]",0.0,0.0,0.7578079700469971,5.800457000732422,0.347426187309838,3.0,31.0,0.0
B,L,"[7, 5]",0.0,0.0,0.22068309783935547,1.869157075881958,0.6330054840839618,3.0,32.0,0.0
Y,R,"[7, 6]",0.0,0.0,0.27495503425598145,1.9549980163574219,0.6712108738844997,3.0,33.0,0.0
Y,R,"[7, 7]",0.0,0.0,0.37198686599731445,1.7235918045043945,0.36186862778770457,3.0,34.0,0.0
G,D,"[8, 7]",0.0,0.0,0.3633878231048584,2.0640311241149902,0.7087421348949668,3.0,35.0,0.0
B,L,"[8, 6]",0.0,0.0,0.2577831745147705,1.9605450630187988,0.7027181338152098,3.0,36.0,0.0
B,L,"[8, 5]",0.0,0.0,0.4219479560852051,2.1536779403686523,0.7396487221365404,3.0,37.0,0.0
R,U,"[7, 5]",0.0,0.0,0.2578868865966797,1.8948509693145752,0.6346542796750014,3.0,38.0,0.0
Y,R,"[7, 6]",0.0,0.0,0.33296895027160645,1.9332640171051025,0.6012216955203695,3.0,39.0,0.0
Y,R,"[7, 7]",0.0,0.0,0.2585868835449219,1.6162340641021729,0.3510218549702001,3.0,40.0,0.0
,,"(6, 6)",,,,,,,,
G,D,"[7, 6]",0.0,0.0,0.4682929515838623,5.686228036880493,0.2539008464705646,4.0,41.0,0.0
B,L,"[7, 5]",0.0,0.0,0.2596609592437744,1.5666019916534424,0.3038077706040645,4.0,42.0,0.0
B,L,"[7, 4]",0.0,0.0,0.28301477432250977,1.6733629703521729,0.3936953134586222,4.0,43.0,0.0
R,U,"[6, 4]",0.0,0.0,0.26213717460632324,1.518367052078247,0.26222636948687045,4.0,44.0,0.0
Y,R,"[6, 5]",0.0,0.0,0.5882000923156738,2.2181341648101807,0.6299672513262965,4.0,45.0,0.0
Y,R,"[6, 6]",0.0,0.0,0.2931549549102783,1.6701319217681885,0.36703371553396713,4.0,46.0,0.0
G,D,"[7, 6]",0.0,0.0,0.22644710540771484,1.9590039253234863,0.7256188119875522,4.0,47.0,0.0
G,D,"[8, 6]",0.0,0.0,0.23645687103271484,1.6043329238891602,0.3803418025300331,4.0,48.0,0.0
B,L,"[8, 5]",0.0,0.0,0.2638399600982666,1.983633041381836,0.7136067291859987,4.0,49.0,0.0
Y,R,"[8, 6]",0.0,0.0,0.21692991256713867,1.881680965423584,0.6619525561858759,4.0,50.0,0.0
,,"(6, 6)",,,,,,,,
R,U,"[5, 6]",1.0,1.0,0.5075869560241699,4.244523048400879,0.5897990434376252,5.0,51.0,0.0
B,L,"[5, 5]",0.0,1.0,0.4229550361633301,1.7770278453826904,0.35041879384917285,5.0,52.0,0.0
G,D,"[6, 5]",0.0,1.0,0.5403549671173096,1.9035968780517578,0.3540001253232629,5.0,53.0,0.0
Y,R,"[6, 6]",0.0,1.0,0.5797679424285889,1.8857619762420654,0.30647003328661704,5.0,54.0,0.0
G,D,"[7, 6]",0.0,1.0,0.5029981136322021,1.9699809551239014,0.4762561431058846,5.0,55.0,0.0
B,L,"[7, 5]",0.0,1.0,0.3944840431213379,1.928745985031128,0.5382762321947794,5.0,56.0,0.0
R,U,"[6, 5]",0.0,1.0,0.31197595596313477,1.7934389114379883,0.48175521203319865,5.0,57.0,0.0
Y,R,"[6, 6]",0.0,1.0,0.2839829921722412,1.5417699813842773,0.25698307261802555,5.0,58.0,0.0
G,D,"[7, 6]",0.0,1.0,0.46265697479248047,1.9735469818115234,0.5136065925320441,5.0,59.0,0.0
R,U,"[6, 6]",0.0,1.0,0.2572920322418213,1.6413979530334473,0.37183562763901074,5.0,60.0,0.0
,,"(6, 6)",,,,,,,,
R,U,"[5, 6]",1.0,1.0,0.49814510345458984,5.3793230056762695,0.367805458826313,6.0,61.0,0.0
Y,R,"[5, 7]",1.0,2.0,0.31960201263427734,1.837191104888916,0.5215267321665824,6.0,62.0,0.0
R,U,"[4, 7]",0.0,2.0,0.21526813507080078,1.766836166381836,0.5550651028578955,6.0,63.0,0.0
R,U,"[3, 7]",0.0,2.0,0.5508129596710205,2.068984031677246,0.5239661897572172,6.0,64.0,0.0
G,D,"[4, 7]",0.0,2.0,0.10484814643859863,1.4286999702453613,0.3361848688569553,6.0,65.0,0.0
G,D,"[5, 7]",0.0,2.0,0.3575918674468994,1.7009100914001465,0.33711581863586604,6.0,66.0,0.0
B,L,"[5, 6]",0.0,2.0,0.28177690505981445,2.0127830505371094,0.7331884347506386,6.0,67.0,0.0
B,L,"[5, 5]",0.0,2.0,0.458920955657959,1.889268159866333,0.42232124618690337,6.0,68.0,0.0
R,U,"[4, 5]",0.0,2.0,0.31652188301086426,1.9042389392852783,0.5929998207213898,6.0,69.0,0.0
Y,R,"[4, 6]",0.0,2.0,0.25341010093688965,1.7832190990447998,0.5429468350315338,6.0,70.0,0.0
,,"(6, 6)",,,,,,,,
G,D,"[7, 6]",0.0,0.0,0.4478158950805664,6.722817897796631,0.2826510157781434,7.0,71.0,0.0
B,L,"[7, 5]",0.0,0.0,0.2470860481262207,1.882638931274414,0.6315156705245858,7.0,72.0,0.0
B,L,"[7, 4]",0.0,0.0,0.18640518188476562,1.9018170833587646,0.7166844272404078,7.0,73.0,0.0
Y,R,"[7, 5]",0.0,0.0,0.20234990119934082,1.830225944519043,0.6301766359357541,7.0,74.0,0.0
R,U,"[6, 5]",0.0,0.0,0.3575398921966553,2.0520617961883545,0.6821823593407577,7.0,75.0,0.0
G,D,"[7, 5]",0.0,0.0,0.2383108139038086,1.8736729621887207,0.6394306177200497,7.0,76.0,0.0
G,D,"[8, 5]",0.0,0.0,0.20730113983154297,1.558905839920044,0.34837566513925944,7.0,77.0,0.0
Y,R,"[8, 6]",0.0,0.0,0.320695161819458,1.642798900604248,0.3244867779679974,7.0,78.0,0.0
B,L,"[8, 5]",0.0,0.0,0.2173020839691162,1.6695168018341064,0.46070953045332447,7.0,79.0,0.0
B,L,"[8, 4]",0.0,0.0,0.26900291442871094,1.940777063369751,0.684520027446251,7.0,80.0,0.0
,,"(6, 6)",,,,,,,,
R,U,"[5, 6]",1.0,1.0,0.5227699279785156,3.9794981479644775,0.4142370267821715,8.0,81.0,0.0
R,U,"[4, 6]",0.0,1.0,0.2013101577758789,1.4705820083618164,0.26819498835155203,8.0,82.0,0.0
Y,R,"[4, 7]",0.0,1.0,0.3297579288482666,1.7540509700775146,0.4222003974437458,8.0,83.0,0.0
G,D,"[5, 7]",1.0,2.0,0.32854318618774414,1.7744548320770264,0.4466181116349799,8.0,84.0,0.0
R,U,"[4, 7]",0.0,2.0,0.413254976272583,1.9274439811706543,0.5073191340805512,8.0,85.0,0.0
Y,R,"[4, 8]",0.0,2.0,0.2717320919036865,1.6802091598510742,0.42097448140603494,8.0,86.0,0.0
G,D,"[5, 8]",1.0,3.0,0.27536487579345703,1.5446159839630127,0.2655572964034484,8.0,87.0,0.0
G,D,"[6, 8]",1.0,4.0,0.5421991348266602,1.956300973892212,0.4050865305416371,8.0,88.0,0.0
G,D,"[7, 8]",0.0,4.0,0.27918291091918945,1.7743029594421387,0.4960485231090497,8.0,89.0,0.0
B,L,"[7, 7]",0.0,4.0,0.28486204147338867,1.969454050064087,0.6819377418707764,8.0,90.0,0.0
,,"(6, 6)",,,,,,,,
R,U,"[5, 6]",1.0,1.0,0.674875020980835,4.654983043670654,0.32055705756633385,9.0,91.0,0.0
R,U,"[4, 6]",0.0,1.0,0.4331200122833252,1.783493995666504,0.3538431742001198,9.0,92.0,0.0
B,L,"[4, 5]",0.0,1.0,0.28626418113708496,1.8125801086425781,0.5328315207420193,9.0,93.0,0.0
G,D,"[5, 5]",0.0,1.0,0.19944214820861816,1.8949980735778809,0.6944052787892039,9.0,94.0,0.0
R,U,"[4, 5]",0.0,1.0,0.21174287796020508,1.8878910541534424,0.6823076488568465,9.0,95.0,0.0
Y,R,"[4, 6]",0.0,1.0,0.18778491020202637,1.722923994064331,0.5385945432318541,9.0,96.0,0.0
Y,R,"[4, 7]",0.0,1.0,0.8701331615447998,2.571039915084839,0.7093294546682756,9.0,97.0,0.0
G,D,"[5, 7]",1.0,2.0,0.24433398246765137,1.7166008949279785,0.4761842592126645,9.0,98.0,0.0
B,L,"[5, 6]",0.0,2.0,0.5926921367645264,2.003818988800049,0.41340410576521625,9.0,99.0,0.0
R,U,"[4, 6]",0.0,2.0,0.8973598480224609,2.5158579349517822,0.6121698272648873,9.0,100.0,0.0
,,"(6, 6)",,,,,,,,
R,U,"[5, 6]",1.0,1.0,0.7656469345092773,5.454771041870117,0.31718848503333746,10.0,101.0,0.0
B,L,"[5, 5]",0.0,1.0,0.465317964553833,1.827805995941162,0.3614225697672612,10.0,102.0,0.0
G,D,"[6, 5]",0.0,1.0,0.2706148624420166,1.959726095199585,0.7041147036332921,10.0,103.0,0.0
Y,R,"[6, 6]",0.0,1.0,0.2568340301513672,1.842480182647705,0.5801803521048139,10.0,104.0,0.0
B,L,"[6, 5]",0.0,1.0,0.5730412006378174,2.0201609134674072,0.4336722917601066,10.0,105.0,0.0
G,D,"[7, 5]",-1.0,1.0,0.08127593994140625,5.845571041107178,0.6954386960093396,10.0,106.0,0.0
G,D,"[8, 5]",0.0,1.0,0.3232400417327881,1.9836361408233643,0.645680455474112,10.0,107.0,0.0
B,L,"[8, 4]",-1.0,1.0,0.0384221076965332,5.5826921463012695,0.47844509986002626,10.0,108.0,0.0
R,U,"[7, 4]",0.0,1.0,0.40607500076293945,1.8449530601501465,0.44009331327204126,10.0,109.0,0.0
Y,R,"[7, 5]",0.0,1.0,0.18922901153564453,1.820831060409546,0.6439412780313396,10.0,110.0,0.0
,,"(6, 6)",,,,,,,,
R,U,"[5, 6]",-2.0,0.0,1.0079081058502197,4.655949831008911,0.6334516430261274,11.0,111.0,0.0
R,U,"[4, 6]",0.0,0.0,0.30678486824035645,1.8270158767700195,0.5102740845754574,11.0,112.0,0.0
Y,R,"[4, 7]",0.0,0.0,0.2111339569091797,1.592073917388916,0.385711072306182,11.0,113.0,0.0
G,D,"[5, 7]",1.0,1.0,0.21041584014892578,1.659221887588501,0.44479745619099886,11.0,114.0,0.0
R,U,"[4, 7]",0.0,1.0,0.6120131015777588,2.1070470809936523,0.5016801017311833,11.0,115.0,0.0
Y,R,"[4, 8]",0.0,1.0,0.252396821975708,1.9760260581970215,0.727516942032784,11.0,116.0,0.0
B,L,"[4, 7]",-1.0,1.0,0.029263973236083984,5.578709840774536,0.4896749299414834,11.0,117.0,0.0
B,L,"[4, 6]",0.0,1.0,0.4003880023956299,2.029157876968384,0.6351519983671292,11.0,118.0,0.0
G,D,"[5, 6]",0.0,1.0,0.21803498268127441,1.574591875076294,0.3600151819965773,11.0,119.0,0.0
Y,R,"[5, 7]",0.0,1.0,0.2873189449310303,1.9503769874572754,0.6772099021024942,11.0,120.0,0.0
,,"(6, 6)",,,,,,,,
R,U,"[5, 6]",1.0,1.0,0.5945558547973633,7.936329126358032,0.4297835535891358,12.0,121.0,0.0
G,D,"[6, 6]",0.0,1.0,0.2772538661956787,1.9262089729309082,0.6391087746083204,12.0,122.0,0.0
Y,R,"[6, 7]",0.0,1.0,0.4225349426269531,1.8629748821258545,0.4354301623304733,12.0,123.0,0.0
B,L,"[6, 6]",0.0,1.0,0.6588878631591797,2.157963991165161,0.49346968079740217,12.0,124.0,0.0
G,D,"[7, 6]",0.0,1.0,0.22496294975280762,1.5832772254943848,0.3601329858205626,12.0,125.0,0.0
R,U,"[6, 6]",0.0,1.0,0.2655670642852783,1.645015001296997,0.38838127835183067,12.0,126.0,0.0
Y,R,"[6, 7]",0.0,1.0,0.2895469665527344,1.5986921787261963,0.303818506032074,12.0,127.0,0.0
G,D,"[7, 7]",0.0,1.0,0.3086659908294678,1.9955761432647705,0.682578009789818,12.0,128.0,0.0
Y,R,"[7, 8]",0.0,1.0,0.8126039505004883,2.215054988861084,0.3974181548803127,12.0,129.0,0.0
Y,R,"[7, 9]",0.0,1.0,0.9988789558410645,2.293287992477417,0.2908084556843785,12.0,130.0,0.0
,,"(6, 6)",,,,,,,,
G,D,"[7, 6]",0.0,0.0,0.8236589431762695,4.176554918289185,0.5004030913464979,13.0,131.0,0.0
R,U,"[6, 6]",0.0,0.0,0.19010519981384277,1.6925780773162842,0.4930854104761565,13.0,132.0,0.0
Y,R,"[6, 7]",-2.0,0.0,1.198011875152588,2.5661590099334717,0.40918933829753656,13.0,133.0,0.0
Y,R,"[6, 8]",1.0,1.0,0.22730302810668945,1.5823030471801758,0.3581210479693922,13.0,134.0,0.0
B,L,"[6, 7]",0.0,1.0,0.5418059825897217,1.9274611473083496,0.38556708433775694,13.0,135.0,0.0
Y,R,"[6, 8]",0.0,1.0,0.3975229263305664,1.722053050994873,0.3242975421911658,13.0,136.0,0.0
R,U,"[5, 8]",1.0,2.0,0.405742883682251,2.0777060985565186,0.6853059648931189,13.0,137.0,0.0
G,D,"[6, 8]",0.0,2.0,0.43239808082580566,1.8220150470733643,0.3904780649189213,13.0,138.0,0.0
Y,R,"[6, 9]",1.0,3.0,0.5617268085479736,2.144731044769287,0.5849649568465998,13.0,139.0,0.0
B,L,"[6, 8]",0.0,3.0,0.7516942024230957,2.251715898513794,0.5032878754408303,13.0,140.0,0.0
,,"(6, 6)",,,,,,,,
G,D,"[7, 6]",0.0,0.0,0.7294399738311768,7.662806987762451,0.7495234049438073,14.0,141.0,0.0
R,U,"[6, 6]",0.0,0.0,0.42844700813293457,1.891408920288086,0.45733591178618327,14.0,142.0,0.0
Y,R,"[6, 7]",0.0,0.0,0.23856592178344727,1.9325308799743652,0.6897954029598945,14.0,143.0,0.0
B,L,"[6, 6]",0.0,0.0,0.31322503089904785,1.7670230865478516,0.4568447934043644,14.0,144.0,0.0
B,L,"[6, 5]",0.0,0.0,0.28360795974731445,1.7176461219787598,0.4411043540826052,14.0,145.0,0.0
R,U,"[5, 5]",0.0,0.0,0.2129042148590088,1.9538860321044922,0.7450467838542063,14.0,146.0,0.0
Y,R,"[5, 6]",1.0,1.0,0.22096991539001465,1.8987290859222412,0.6934119923454104,14.0,147.0,0.0
G,D,"[6, 6]",0.0,1.0,0.25696682929992676,1.8191828727722168,0.5626809941772095,14.0,148.0,0.0
G,D,"[7, 6]",0.0,1.0,0.2365398406982422,1.9128239154815674,0.6753752950298906,14.0,149.0,0.0
R,U,"[6, 6]",0.0,1.0,0.2866640090942383,2.0046560764312744,0.7297652545626354,14.0,150.0,0.0
,,"(6, 6)",,,,,,,,
R,U,"[5, 6]",1.0,1.0,0.5208699703216553,3.6165218353271484,0.32990459230207214,15.0,151.0,0.0
Y,R,"[5, 7]",1.0,2.0,0.3671550750732422,1.7725539207458496,0.40250570349107295,15.0,152.0,0.0
B,L,"[5, 6]",0.0,2.0,0.9114580154418945,2.5155420303344727,0.6009822917542273,15.0,153.0,0.0
G,D,"[6, 6]",0.0,2.0,0.1663188934326172,1.8966410160064697,0.7309060549631233,15.0,154.0,0.0
Y,R,"[6, 7]",0.0,2.0,0.4821281433105469,1.7954590320587158,0.3100644939819515,15.0,155.0,0.0
R,U,"[5, 7]",0.0,2.0,0.4145081043243408,1.6954760551452637,0.28877080797888294,15.0,156.0,0.0
R,U,"[4, 7]",0.0,2.0,0.3764340877532959,1.9333851337432861,0.5552948053905571,15.0,157.0,0.0
Y,R,"[4, 8]",0.0,2.0,0.3740670680999756,1.8159329891204834,0.43789571313049036,15.0,158.0,0.0
G,D,"[5, 8]",1.0,3.0,0.27419495582580566,1.5800328254699707,0.3014521854243948,15.0,159.0,0.0
B,L,"[5, 7]",0.0,3.0,0.41306495666503906,2.095518112182617,0.6798227415456938,15.0,160.0,0.0
,,"(6, 6)",,,,,,,,
R,U,"[5, 6]",1.0,1.0,0.6060791015625,6.41019606590271,0.3735025766685578,16.0,161.0,0.0
G,D,"[6, 6]",0.0,1.0,0.41991686820983887,1.6803209781646729,0.2705620889941179,16.0,162.0,0.0
R,U,"[5, 6]",0.0,1.0,0.6345951557159424,2.012899875640869,0.3833063887936524,16.0,163.0,0.0
Y,R,"[5, 7]",1.0,2.0,0.30095696449279785,1.7314810752868652,0.43143345099381425,16.0,164.0,0.0
G,D,"[6, 7]",0.0,2.0,0.6975820064544678,2.1852259635925293,0.48310641427577694,16.0,165.0,0.0
B,L,"[6, 6]",0.0,2.0,0.3962900638580322,1.9124681949615479,0.5122495298522951,16.0,166.0,0.0
R,U,"[5, 6]",0.0,2.0,0.35065412521362305,1.9555840492248535,0.6009977697209863,16.0,167.0,0.0
Y,R,"[5, 7]",0.0,2.0,0.2255558967590332,1.8006129264831543,0.5682395410807726,16.0,168.0,0.0
G,D,"[6, 7]",0.0,2.0,0.24273395538330078,1.9023628234863281,0.6538589526798468,16.0,169.0,0.0
B,L,"[6, 6]",0.0,2.0,0.27252793312072754,1.7120089530944824,0.43269318405660506,16.0,170.0,0.0
,,"(6, 6)",,,,,,,,
R,U,"[5, 6]",1.0,1.0,0.7330951690673828,3.633711099624634,0.3331636881890441,17.0,171.0,0.0
G,D,"[6, 6]",-2.0,1.0,1.5758280754089355,3.0356380939483643,0.48506606681294634,17.0,172.0,0.0
G,D,"[7, 6]",0.0,1.0,0.49910497665405273,1.9489679336547852,0.45074249910498,17.0,173.0,0.0
Y,R,"[7, 7]",0.0,1.0,0.24107599258422852,1.7429490089416504,0.4939272673446987,17.0,174.0,0.0
R,U,"[6, 7]",0.0,1.0,0.2710998058319092,1.9800050258636475,0.7233649459772962,17.0,175.0,0.0
B,L,"[6, 6]",0.0,1.0,0.24394917488098145,1.9732580184936523,0.7299629349143197,17.0,176.0,0.0
G,D,"[7, 6]",0.0,1.0,0.35511112213134766,1.706516981124878,0.35348238942164545,17.0,177.0,0.0
R,U,"[6, 6]",0.0,1.0,0.14501595497131348,1.6203701496124268,0.47365817400553795,17.0,178.0,0.0
Y,R,"[6, 7]",0.0,1.0,0.21041107177734375,1.9311270713806152,0.7211904333625746,17.0,179.0,0.0
B,L,"[6, 6]",0.0,1.0,0.22002100944519043,1.868466854095459,0.6562687227346504,17.0,180.0,0.0
,,"(6, 6)",,,,,,,,
R,U,"[5, 6]",1.0,1.0,0.7333428859710693,6.528841018676758,0.4518862130099133,18.0,181.0,0.0
Y,R,"[5, 7]",1.0,2.0,0.8881340026855469,2.562911033630371,0.6645004231704577,18.0,182.0,0.0
B,L,"[5, 6]",0.0,2.0,0.8233599662780762,2.228177070617676,0.39291272688795037,18.0,183.0,0.0
G,D,"[6, 6]",0.0,2.0,0.3766489028930664,1.905141830444336,0.5312073473135539,18.0,184.0,0.0
R,U,"[5, 6]",-2.0,2.0,1.4490129947662354,2.7267019748687744,0.30805814755557387,18.0,185.0,0.0
R,U,"[4, 6]",0.0,2.0,0.21127104759216309,1.5056078433990479,0.29702287625489476,18.0,186.0,0.0
Y,R,"[4, 7]",0.0,2.0,0.5455901622772217,2.0800108909606934,0.5267131346469816,18.0,187.0,0.0
G,D,"[5, 7]",0.0,2.0,0.3489677906036377,2.043307065963745,0.7033017560710721,18.0,188.0,0.0
G,D,"[6, 7]",0.0,2.0,0.12640905380249023,1.5281050205230713,0.3982197726129253,18.0,189.0,0.0
B,L,"[6, 6]",0.0,2.0,0.1645488739013672,1.6303410530090332,0.4616763540021432,18.0,190.0,0.0
,,"(6, 6)",,,,,,,,
R,U,"[5, 6]",1.0,1.0,0.4297480583190918,3.469614028930664,0.2648333161267165,19.0,191.0,0.0
Y,R,"[5, 7]",1.0,2.0,0.3225231170654297,1.5882079601287842,0.25297320705942106,19.0,192.0,0.0
R,U,"[4, 7]",0.0,2.0,0.9662699699401855,2.4974489212036133,0.5334658472656937,19.0,193.0,0.0
B,L,"[4, 6]",0.0,2.0,0.37116098403930664,1.9802029132843018,0.5968348229114662,19.0,194.0,0.0
G,D,"[5, 6]",0.0,2.0,0.46286606788635254,2.0794990062713623,0.6099592508674527,19.0,195.0,0.0
B,L,"[5, 5]",0.0,2.0,0.9093060493469238,2.294105052947998,0.3873341806075246,19.0,196.0,0.0
Y,R,"[5, 6]",0.0,2.0,0.4362001419067383,1.7311468124389648,0.3018217036158269,19.0,197.0,0.0
G,D,"[6, 6]",0.0,2.0,0.42284202575683594,2.164191961288452,0.7322212866117623,19.0,198.0,0.0
R,U,"[5, 6]",0.0,2.0,0.7681679725646973,2.3234338760375977,0.5558126318378784,19.0,199.0,0.0
Y,R,"[5, 7]",0.0,2.0,0.5304059982299805,2.243438959121704,0.7155989804715812,19.0,200.0,0.0
,,"(6, 6)",,,,,,,,
R,U,"[5, 6]",1.0,1.0,0.7794060707092285,4.0241780281066895,0.2901590621842444,20.0,201.0,0.0
Y,R,"[5, 7]",1.0,2.0,0.28374481201171875,1.871358871459961,0.5945517300271081,20.0,202.0,0.0
B,L,"[5, 6]",0.0,2.0,0.4973020553588867,1.858219861984253,0.36962513298327865,20.0,203.0,0.0
R,U,"[4, 6]",0.0,2.0,0.3717231750488281,1.6419718265533447,0.2616592010702518,20.0,204.0,0.0
G,D,"[5, 6]",0.0,2.0,0.8550269603729248,2.1544039249420166,0.3159648427008877,20.0,205.0,0.0
Y,R,"[5, 7]",0.0,2.0,0.2713189125061035,1.7136878967285156,0.44615567462644556,20.0,206.0,0.0
B,L,"[5, 6]",0.0,2.0,0.19873404502868652,1.950646162033081,0.74637231789431,20.0,207.0,0.0
R,U,"[4, 6]",0.0,2.0,0.47462987899780273,1.8543801307678223,0.36787506361155725,20.0,208.0,0.0
Y,R,"[4, 7]",0.0,2.0,0.5637438297271729,1.8577830791473389,0.2922085833840726,20.0,209.0,0.0
G,D,"[5, 7]",0.0,2.0,0.38582491874694824,2.0323381423950195,0.6575639362147234,20.0,210.0,0.0
,,"(6, 6)",,,,,,,,
R,U,"[5, 6]",1.0,1.0,0.5632309913635254,4.0085670948028564,0.4997701214255117,21.0,211.0,0.0
Y,R,"[5, 7]",1.0,2.0,0.2536170482635498,1.6420669555664062,0.3917072787660055,21.0,212.0,0.0
R,U,"[4, 7]",0.0,2.0,0.41935300827026367,1.791100025177002,0.3826506302285877,21.0,213.0,0.0
Y,R,"[4, 8]",0.0,2.0,0.31821393966674805,1.699280023574829,0.38193485661076576,21.0,214.0,0.0
G,D,"[5, 8]",1.0,3.0,0.4484751224517822,1.770733118057251,0.3193632669400196,21.0,215.0,0.0
B,L,"[5, 7]",0.0,3.0,0.7615828514099121,2.354580879211426,0.5903675982269879,21.0,216.0,0.0
R,U,"[4, 7]",0.0,3.0,0.4924910068511963,2.2266488075256348,0.7334333380609648,21.0,217.0,0.0
G,D,"[5, 7]",0.0,3.0,0.6501648426055908,2.237581968307495,0.5878684210812601,21.0,218.0,0.0
Y,R,"[5, 8]",0.0,3.0,0.24973797798156738,1.7607917785644531,0.5153702540145053,21.0,219.0,0.0
R,U,"[4, 8]",0.0,3.0,0.8464310169219971,2.386631965637207,0.5352496510863745,21.0,220.0,0.0
,,"(6, 6)",,,,,,,,
Y,R,"[6, 7]",0.0,0.0,0.9174749851226807,5.466814041137695,0.38538836404865,22.0,221.0,0.0
Y,R,"[6, 8]",1.0,1.0,0.37010693550109863,1.937988042831421,0.5732191627177509,22.0,222.0,0.0
G,D,"[7, 8]",0.0,1.0,0.21277713775634766,1.6637780666351318,0.45361409601532704,22.0,223.0,0.0
G,D,"[8, 8]",0.0,1.0,0.8710818290710449,2.303223133087158,0.4402231078324957,22.0,224.0,0.0
G,D,"[9, 8]",0.0,1.0,0.51898193359375,1.9919068813323975,0.4820594183751478,22.0,225.0,0.0
B,L,"[9, 7]",0.0,1.0,0.3200840950012207,1.9188129901885986,0.6006628098956912,22.0,226.0,0.0
R,U,"[8, 7]",0.0,1.0,0.19823789596557617,1.734976053237915,0.5357392563100896,22.0,227.0,0.0
Y,R,"[8, 8]",0.0,1.0,0.422227144241333,2.0887269973754883,0.6743602242065001,22.0,228.0,0.0
Y,R,"[8, 9]",0.0,1.0,0.4161338806152344,1.9315550327301025,0.5225479657016021,22.0,229.0,0.0
G,D,"[9, 9]",-1.0,1.0,0.01654982566833496,5.4593000411987305,0.3819318284611556,22.0,230.0,0.0
,,"(6, 6)",,,,,,,,
Y,R,"[6, 7]",-2.0,0.0,1.610537052154541,4.791659116744995,0.6236561991240389,23.0,231.0,0.0
R,U,"[5, 7]",1.0,1.0,0.30121684074401855,1.566061019897461,0.2729639979715691,23.0,232.0,0.0
Y,R,"[5, 8]",1.0,2.0,0.35061097145080566,1.9927740097045898,0.6486646315149899,23.0,233.0,0.0
G,D,"[6, 8]",1.0,3.0,0.369671106338501,2.0691380500793457,0.701106358503061,23.0,234.0,0.0
B,L,"[6, 7]",0.0,3.0,0.5448541641235352,1.8973889350891113,0.3486955299775173,23.0,235.0,0.0
R,U,"[5, 7]",0.0,3.0,0.9998281002044678,2.527592182159424,0.526125279079545,23.0,236.0,0.0
Y,R,"[5, 8]",0.0,3.0,0.44617700576782227,1.8054399490356445,0.364993443624003,23.0,237.0,0.0
G,D,"[6, 8]",0.0,3.0,0.4864828586578369,1.9839770793914795,0.49875593585007294,23.0,238.0,0.0
Y,R,"[6, 9]",1.0,4.0,0.1822059154510498,1.9230051040649414,0.7381212695068579,23.0,239.0,0.0
Y,R,"[6, 10]",1.0,5.0,0.7864730358123779,2.0721330642700195,0.2940685008396826,23.0,240.0,0.0
,,"(6, 6)",,,,,,,,
Y,R,"[6, 7]",0.0,0.0,0.8966488838195801,5.506960868835449,0.5672761478175377,24.0,241.0,0.0
R,U,"[5, 7]",1.0,1.0,0.22904706001281738,1.8950178623199463,0.6622111608946017,24.0,242.0,0.0
Y,R,"[5, 8]",1.0,2.0,0.2350940704345703,1.7031278610229492,0.4655089069036784,24.0,243.0,0.0
G,D,"[6, 8]",1.0,3.0,0.33702898025512695,2.0544469356536865,0.7195769398219873,24.0,244.0,0.0
B,L,"[6, 7]",0.0,3.0,0.22109484672546387,1.7162220478057861,0.5027395473020861,24.0,245.0,0.0
R,U,"[5, 7]",0.0,3.0,0.346372127532959,1.8974668979644775,0.5500192395453376,24.0,246.0,0.0
Y,R,"[5, 8]",0.0,3.0,0.25251293182373047,1.9985229969024658,0.74846226334082,24.0,247.0,0.0
G,D,"[6, 8]",0.0,3.0,0.32195401191711426,1.7250051498413086,0.39035733980538256,24.0,248.0,0.0
G,D,"[7, 8]",0.0,3.0,0.915701150894165,2.1783721446990967,0.2688525440403411,24.0,249.0,0.0
R,U,"[6, 8]",0.0,3.0,0.3394019603729248,1.6089389324188232,0.2611313810924088,24.0,250.0,0.0
,,"(6, 6)",,,,,,,,
Y,R,"[6, 7]",0.0,0.0,0.8761019706726074,5.655219078063965,0.5492652672625734,25.0,251.0,0.0
R,U,"[5, 7]",1.0,1.0,0.2926139831542969,1.6999461650848389,0.3993840421302132,25.0,252.0,0.0
Y,R,"[5, 8]",1.0,2.0,0.2546219825744629,1.6895170211791992,0.422065144036408,25.0,253.0,0.0
G,D,"[6, 8]",1.0,3.0,0.2261810302734375,1.8096637725830078,0.581629657454522,25.0,254.0,0.0
B,L,"[6, 7]",0.0,3.0,0.23754382133483887,1.9078240394592285,0.6560281414343266,25.0,255.0,0.0
G,D,"[7, 7]",0.0,3.0,0.31258511543273926,1.9873199462890625,0.6766280143517399,25.0,256.0,0.0
G,D,"[8, 7]",0.0,3.0,0.8942360877990723,2.223022937774658,0.33320149369154073,25.0,257.0,0.0
Y,R,"[8, 8]",0.0,3.0,0.2578301429748535,1.9542927742004395,0.6872970359472026,25.0,258.0,0.0
Y,R,"[8, 9]",0.0,3.0,0.20387983322143555,1.5852489471435547,0.3893502326159033,25.0,259.0,0.0
R,U,"[7, 9]",-1.0,3.0,0.012054920196533203,5.6492650508880615,0.5716263037030895,25.0,260.0,0.0
,,"(6, 6)",,,,,,,,
R,U,"[5, 6]",1.0,1.0,0.7429208755493164,5.685006856918335,0.6899825289935573,26.0,261.0,0.0
Y,R,"[5, 7]",1.0,2.0,0.32411694526672363,1.6528148651123047,0.3262513444519202,26.0,262.0,0.0
G,D,"[6, 7]",0.0,2.0,0.3440968990325928,1.875920057296753,0.5352411607002485,26.0,263.0,0.0
Y,R,"[6, 8]",1.0,3.0,0.7109310626983643,2.3797240257263184,0.6648024058303545,26.0,264.0,0.0
G,D,"[7, 8]",0.0,3.0,0.4174048900604248,2.0842740535736084,0.6656918512374843,26.0,265.0,0.0
B,L,"[7, 7]",0.0,3.0,0.21503686904907227,1.7443230152130127,0.5268033731730133,26.0,266.0,0.0
R,U,"[6, 7]",0.0,3.0,0.4738340377807617,2.0128121376037598,0.539519307863995,26.0,267.0,0.0
Y,R,"[6, 8]",0.0,3.0,0.4460418224334717,1.866131067276001,0.42255050436927666,26.0,268.0,0.0
G,D,"[7, 8]",0.0,3.0,0.3083508014678955,1.7999811172485352,0.4891187318210986,26.0,269.0,0.0
G,D,"[8, 8]",0.0,3.0,0.43346476554870605,1.7404460906982422,0.31287945139034773,26.0,270.0,0.0
,,"(6, 6)",,,,,,,,
Y,R,"[6, 7]",0.0,0.0,0.8274259567260742,4.8339831829071045,0.6630599612837673,27.0,271.0,0.0
R,U,"[5, 7]",1.0,1.0,0.37699222564697266,1.9870591163635254,0.6001958373132006,27.0,272.0,0.0
Y,R,"[5, 8]",1.0,2.0,0.2656228542327881,1.9732060432434082,0.7065561288790905,27.0,273.0,0.0
G,D,"[6, 8]",1.0,3.0,0.3169291019439697,1.8060259819030762,0.4961797992085249,27.0,274.0,0.0
B,L,"[6, 7]",0.0,3.0,0.8847188949584961,2.4481449127197266,0.5607704633868659,27.0,275.0,0.0
Y,R,"[6, 8]",0.0,3.0,0.4389231204986572,1.9294209480285645,0.5068959809341425,27.0,276.0,0.0
G,D,"[7, 8]",0.0,3.0,0.36743998527526855,2.0300371646881104,0.670526726106764,27.0,277.0,0.0
Y,R,"[7, 9]",0.0,3.0,0.6615231037139893,2.1106009483337402,0.44749665131896166,27.0,278.0,0.0
Y,R,"[7, 10]",0.0,3.0,0.6995270252227783,2.054734945297241,0.3523654004302325,27.0,279.0,0.0
G,D,"[8, 10]",0.0,3.0,0.5205287933349609,1.8606138229370117,0.3462437983655821,27.0,280.0,0.0
,,"(6, 6)",,,,,,,,
Y,R,"[6, 7]",-2.0,0.0,1.4184792041778564,5.125001907348633,0.6545050987370034,28.0,281.0,0.0
Y,R,"[6, 8]",1.0,1.0,0.25093507766723633,1.7934579849243164,0.5477101930635103,28.0,282.0,0.0
R,U,"[5, 8]",1.0,2.0,0.24513697624206543,1.9416859149932861,0.6893132720149784,28.0,283.0,0.0
G,D,"[6, 8]",0.0,2.0,0.34699201583862305,1.6933009624481201,0.34953009489812176,28.0,284.0,0.0
B,L,"[6, 7]",0.0,2.0,0.3417079448699951,1.6607239246368408,0.31030713572671875,28.0,285.0,0.0
B,L,"[6, 6]",0.0,2.0,0.3667459487915039,1.7074849605560303,0.35104386929124587,28.0,286.0,0.0
G,D,"[7, 6]",0.0,2.0,0.2090151309967041,1.7396190166473389,0.5238647079932145,28.0,287.0,0.0
R,U,"[6, 6]",0.0,2.0,0.27474498748779297,1.8301219940185547,0.5538467796274888,28.0,288.0,0.0
Y,R,"[6, 7]",0.0,2.0,0.19736695289611816,1.6456279754638672,0.4495331938673724,28.0,289.0,0.0
R,U,"[5, 7]",1.0,3.0,0.22331976890563965,1.4844329357147217,0.2507413889072206,28.0,290.0,0.0
,,"(6, 6)",,,,,,,,
R,U,"[5, 6]",1.0,1.0,0.6971290111541748,4.133332967758179,0.5503919955280544,29.0,291.0,0.0
R,U,"[4, 6]",0.0,1.0,0.34182095527648926,1.775481939315796,0.42601522443191847,29.0,292.0,0.0
Y,R,"[4, 7]",-2.0,1.0,1.4551031589508057,3.026327133178711,0.6024022765047063,29.0,293.0,0.0
G,D,"[5, 7]",1.0,2.0,0.48462605476379395,1.952726125717163,0.4716534328442709,29.0,294.0,0.0
B,L,"[5, 6]",0.0,2.0,0.26169681549072266,1.8617198467254639,0.5998796631905903,29.0,295.0,0.0
R,U,"[4, 6]",0.0,2.0,0.26625800132751465,1.6240129470825195,0.3574896896641173,29.0,296.0,0.0
Y,R,"[4, 7]",0.0,2.0,0.26342201232910156,1.5106480121612549,0.2515388127360821,29.0,297.0,0.0
R,U,"[3, 7]",0.0,2.0,0.3675689697265625,1.8386998176574707,0.473277492733424,29.0,298.0,0.0
R,U,"[2, 7]",0.0,2.0,0.26120495796203613,1.6117839813232422,0.3517517719989194,29.0,299.0,0.0
Y,R,"[2, 8]",0.0,2.0,0.2565789222717285,1.948354959487915,0.6998095077913971,29.0,300.0,0.0
,,"(6, 6)",,,,,,,,
R,U,"[5, 6]",1.0,1.0,0.7588839530944824,4.203061103820801,0.6528093205805094,30.0,301.0,0.0
Y,R,"[5, 7]",1.0,2.0,0.23554420471191406,1.8375020027160645,0.6069928423871938,30.0,302.0,0.0
G,D,"[6, 7]",0.0,2.0,0.4152038097381592,1.8990390300750732,0.48937704929568066,30.0,303.0,0.0
B,L,"[6, 6]",0.0,2.0,0.32425498962402344,1.8831100463867188,0.5558381051770889,30.0,304.0,0.0
Y,R,"[6, 7]",0.0,2.0,0.25101685523986816,1.558912992477417,0.31493717209008,30.0,305.0,0.0
R,U,"[5, 7]",0.0,2.0,0.2931549549102783,1.8251430988311768,0.5230936053952427,30.0,306.0,0.0
G,D,"[6, 7]",0.0,2.0,0.5550870895385742,2.0793380737304688,0.5191154762658191,30.0,307.0,0.0
G,D,"[7, 7]",0.0,2.0,0.2121720314025879,1.6228139400482178,0.4087619299933834,30.0,308.0,0.0
B,L,"[7, 6]",0.0,2.0,0.42751193046569824,1.9351999759674072,0.5103883796566129,30.0,309.0,0.0
Y,R,"[7, 7]",0.0,2.0,0.28806114196777344,1.725620985031128,0.4528009657371728,30.0,310.0,0.0
,,"(6, 6)",,,,,,,,
Y,R,"[6, 7]",0.0,0.0,0.7400190830230713,3.948408842086792,0.551062309670301,31.0,311.0,0.0
R,U,"[5, 7]",1.0,1.0,0.2452089786529541,1.5079669952392578,0.2592862424344108,31.0,312.0,0.0
Y,R,"[5, 8]",1.0,2.0,0.3027341365814209,1.8190970420837402,0.5280767381192077,31.0,313.0,0.0
B,L,"[5, 7]",0.0,2.0,0.45598912239074707,2.1638009548187256,0.724989697455128,31.0,314.0,0.0
Y,R,"[5, 8]",0.0,2.0,0.2953920364379883,1.7076971530914307,0.4162767421140036,31.0,315.0,0.0
G,D,"[6, 8]",1.0,3.0,0.30564093589782715,1.8927230834960938,0.5755028082436182,31.0,316.0,0.0
Y,R,"[6, 9]",1.0,4.0,0.574321985244751,1.9737751483917236,0.39939804450722804,31.0,317.0,0.0
R,U,"[5, 9]",0.0,4.0,0.3019559383392334,1.5756001472473145,0.2751122662884333,31.0,318.0,0.0
B,L,"[5, 8]",0.0,4.0,0.351269006729126,1.9611690044403076,0.6191314381183028,31.0,319.0,0.0
Y,R,"[5, 9]",-1.0,4.0,0.002156972885131836,5.425414085388184,0.36146485068360684,31.0,320.0,0.0
,,"(6, 6)",,,,,,,,
Y,R,"[6, 7]",0.0,0.0,0.6567070484161377,4.559722900390625,0.28780938358197894,32.0,321.0,0.0
R,U,"[5, 7]",1.0,1.0,0.31630611419677734,1.9256908893585205,0.613194438584624,32.0,322.0,0.0
Y,R,"[5, 8]",1.0,2.0,0.36887192726135254,1.6953020095825195,0.3254826594317154,32.0,323.0,0.0
G,D,"[6, 8]",1.0,3.0,0.40183305740356445,1.997150182723999,0.6056111676076553,32.0,324.0,0.0
R,U,"[5, 8]",0.0,3.0,0.37755894660949707,1.9874980449676514,0.6097501912823438,32.0,325.0,0.0
Y,R,"[5, 9]",0.0,3.0,0.31519508361816406,2.018026113510132,0.7109545126015309,32.0,326.0,0.0
B,L,"[5, 8]",0.0,3.0,0.24144983291625977,1.755599021911621,0.5167231941954697,32.0,327.0,0.0
B,L,"[5, 7]",0.0,3.0,0.3359558582305908,1.6004359722137451,0.2672698716604887,32.0,328.0,0.0
Y,R,"[5, 8]",0.0,3.0,0.4258239269256592,2.138646125793457,0.7054487575826872,32.0,329.0,0.0
R,U,"[4, 8]",0.0,3.0,0.38647007942199707,1.8784890174865723,0.5009231517800531,32.0,330.0,0.0
,,"(6, 6)",,,,,,,,
Y,R,"[6, 7]",0.0,0.0,0.644150972366333,4.272578954696655,0.5733783479450696,33.0,331.0,0.0
R,U,"[5, 7]",1.0,1.0,0.24947500228881836,1.6721608638763428,0.42896013792736143,33.0,332.0,0.0
Y,R,"[5, 8]",1.0,2.0,0.35301899909973145,1.9725868701934814,0.6180322682381229,33.0,333.0,0.0
G,D,"[6, 8]",1.0,3.0,0.3534111976623535,1.7977118492126465,0.44929502660351833,33.0,334.0,0.0
Y,R,"[6, 9]",1.0,4.0,0.8823628425598145,2.5241310596466064,0.6399870501048611,33.0,335.0,0.0
G,D,"[7, 9]",0.0,4.0,0.681718111038208,2.147716999053955,0.4708972651453468,33.0,336.0,0.0
B,L,"[7, 8]",0.0,4.0,0.5227940082550049,2.0687170028686523,0.5560902394590508,33.0,337.0,0.0
R,U,"[6, 8]",0.0,4.0,0.3619871139526367,1.8725361824035645,0.5120653057466349,33.0,338.0,0.0
R,U,"[5, 8]",0.0,4.0,0.22965788841247559,1.9862699508666992,0.7483281207778811,33.0,339.0,0.0
Y,R,"[5, 9]",0.0,4.0,0.295443058013916,1.7786619663238525,0.4770646373802342,33.0,340.0,0.0
,,"(6, 6)",,,,,,,,
Y,R,"[6, 7]",0.0,0.0,0.5886490345001221,3.997342109680176,0.5908329437740576,34.0,341.0,0.0
R,U,"[5, 7]",1.0,1.0,0.37152791023254395,1.7656691074371338,0.40663924229178494,34.0,342.0,0.0
Y,R,"[5, 8]",1.0,2.0,0.45490598678588867,2.1816329956054688,0.7378254590336064,34.0,343.0,0.0
G,D,"[6, 8]",1.0,3.0,0.36757612228393555,2.0086278915405273,0.6465509466857204,34.0,344.0,0.0
R,U,"[5, 8]",0.0,3.0,0.3440718650817871,1.681870937347412,0.32884167162129935,34.0,345.0,0.0
Y,R,"[5, 9]",0.0,3.0,0.6158411502838135,1.908696174621582,0.3040776997506373,34.0,346.0,0.0
B,L,"[5, 8]",0.0,3.0,0.4615647792816162,1.8971998691558838,0.4344400259604897,34.0,347.0,0.0
B,L,"[5, 7]",0.0,3.0,0.24756407737731934,1.5440590381622314,0.2953230625950245,34.0,348.0,0.0
Y,R,"[5, 8]",0.0,3.0,0.29483890533447266,1.6793460845947266,0.3912155630492882,34.0,349.0,0.0
R,U,"[4, 8]",0.0,3.0,0.31183290481567383,2.0525660514831543,0.7434411375065848,34.0,350.0,0.0
,,"(6, 6)",,,,,,,,
Y,R,"[6, 7]",0.0,0.0,0.7458798885345459,3.8805978298187256,0.34101110204730084,35.0,351.0,0.0
R,U,"[5, 7]",1.0,1.0,0.2974410057067871,1.8760108947753906,0.5834229509112726,35.0,352.0,0.0
Y,R,"[5, 8]",1.0,2.0,0.34641194343566895,2.0526909828186035,0.7026335957536403,35.0,353.0,0.0
G,D,"[6, 8]",1.0,3.0,0.3339090347290039,1.9649310111999512,0.6342859641640737,35.0,354.0,0.0
Y,R,"[6, 9]",1.0,4.0,0.3628358840942383,1.9242050647735596,0.5587046022489126,35.0,355.0,0.0
B,L,"[6, 8]",0.0,4.0,0.39876484870910645,1.8296830654144287,0.43832657289379456,35.0,356.0,0.0
R,U,"[5, 8]",0.0,4.0,0.29743099212646484,1.7195899486541748,0.4245169908999166,35.0,357.0,0.0
Y,R,"[5, 9]",0.0,4.0,0.3767731189727783,1.8285388946533203,0.45305543530555814,35.0,358.0,0.0
G,D,"[6, 9]",0.0,4.0,0.26436614990234375,1.819633960723877,0.5557497134867297,35.0,359.0,0.0
G,D,"[7, 9]",0.0,4.0,0.3027229309082031,2.037609815597534,0.7434934587323594,35.0,360.0,0.0
,,"(6, 6)",,,,,,,,
Y,R,"[6, 7]",0.0,0.0,0.6859879493713379,4.069300889968872,0.42938894972847064,36.0,361.0,0.0
R,U,"[5, 7]",1.0,1.0,0.3652050495147705,1.8721160888671875,0.5014424924407332,36.0,362.0,0.0
Y,R,"[5, 8]",1.0,2.0,0.35056185722351074,1.9934401512145996,0.644806957240208,36.0,363.0,0.0
G,D,"[6, 8]",1.0,3.0,0.4234139919281006,2.1359028816223145,0.7138933439140105,36.0,364.0,0.0
Y,R,"[6, 9]",1.0,4.0,0.2909388542175293,1.82834792137146,0.5424339026188912,36.0,365.0,0.0
Y,R,"[6, 10]",1.0,5.0,0.30029296875,2.019605875015259,0.7284695721567667,36.0,366.0,0.0
R,U,"[5, 10]",1.0,6.0,0.4061238765716553,1.8911499977111816,0.4864478128268176,36.0,367.0,0.0
Y,R,"[5, 11]",0.0,6.0,0.5696029663085938,2.2375328540802,0.6739420301357861,36.0,368.0,0.0
B,L,"[5, 10]",0.0,6.0,0.37807703018188477,1.90189790725708,0.525807029709985,36.0,369.0,0.0
G,D,"[6, 10]",0.0,6.0,0.2973167896270752,1.7248859405517578,0.43399135467592315,36.0,370.0,0.0
,,"(6, 6)",,,,,,,,
R,U,"[5, 6]",1.0,1.0,0.7547039985656738,4.484025001525879,0.6511565437818265,37.0,371.0,0.0
Y,R,"[5, 7]",1.0,2.0,0.3035268783569336,1.9750421047210693,0.6761953454053737,37.0,372.0,0.0
G,D,"[6, 7]",0.0,2.0,0.3450601100921631,1.9166359901428223,0.5761232902982176,37.0,373.0,0.0
R,U,"[5, 7]",0.0,2.0,0.44012904167175293,1.8848237991333008,0.44446496613566483,37.0,374.0,0.0
Y,R,"[5, 8]",1.0,3.0,0.20876502990722656,1.945901870727539,0.7400515636163597,37.0,375.0,0.0
Y,R,"[5, 9]",0.0,3.0,0.25977396965026855,1.8294789791107178,0.569560659256326,37.0,376.0,0.0
B,L,"[5, 8]",0.0,3.0,0.23567891120910645,1.5395331382751465,0.30942496851678913,37.0,377.0,0.0
R,U,"[4, 8]",0.0,3.0,0.3911588191986084,1.8501689434051514,0.4594812859400799,37.0,378.0,0.0
B,L,"[4, 7]",0.0,3.0,0.23109197616577148,1.5068230628967285,0.28305221053282387,37.0,379.0,0.0
Y,R,"[4, 8]",0.0,3.0,0.36235594749450684,1.9024269580841064,0.5352499904182952,37.0,380.0,0.0
,,"(6, 6)",,,,,,,,
Y,R,"[6, 7]",0.0,0.0,0.5890200138092041,3.6507768630981445,0.35281459516944863,38.0,381.0,0.0
R,U,"[5, 7]",1.0,1.0,0.27062392234802246,1.954887866973877,0.6906936762763485,38.0,382.0,0.0
R,U,"[4, 7]",0.0,1.0,0.9813899993896484,2.594283103942871,0.6187444755932902,38.0,383.0,0.0
G,D,"[5, 7]",0.0,1.0,0.22527694702148438,1.942363977432251,0.7107962313832948,38.0,384.0,0.0
Y,R,"[5, 8]",1.0,2.0,0.23103785514831543,1.799962043762207,0.5772774827942164,38.0,385.0,0.0
Y,R,"[5, 9]",0.0,2.0,0.2430269718170166,1.7144789695739746,0.4751310235638414,38.0,386.0,0.0
R,U,"[4, 9]",1.0,3.0,0.17429709434509277,1.7615399360656738,0.5869775050316681,38.0,387.0,0.0
B,L,"[4, 8]",-1.0,3.0,0.09662389755249023,5.852658033370972,0.6890635226113254,38.0,388.0,0.0
B,L,"[4, 7]",0.0,3.0,0.2736217975616455,1.7159850597381592,0.4386241691250047,38.0,389.0,0.0
G,D,"[5, 7]",0.0,3.0,0.2144479751586914,1.4685890674591064,0.2572764494525894,38.0,390.0,0.0
,,"(6, 6)",,,,,,,,
Y,R,"[6, 7]",0.0,0.0,0.5908288955688477,3.5365569591522217,0.3439195503116459,39.0,391.0,0.0
R,U,"[5, 7]",1.0,1.0,0.538848876953125,2.006625175476074,0.483634681948053,39.0,392.0,0.0
Y,R,"[5, 8]",1.0,2.0,0.30823397636413574,1.8167989253997803,0.5003192209090186,39.0,393.0,0.0
G,D,"[6, 8]",1.0,3.0,0.4775049686431885,2.1324679851531982,0.6491782162489672,39.0,394.0,0.0
Y,R,"[6, 9]",1.0,4.0,0.494218111038208,2.0139191150665283,0.5132790370137192,39.0,395.0,0.0
Y,R,"[6, 10]",1.0,5.0,0.30754995346069336,1.9240138530731201,0.6038672431866048,39.0,396.0,0.0
R,U,"[5, 10]",1.0,6.0,0.540916919708252,1.9714398384094238,0.4254584450033936,39.0,397.0,0.0
G,D,"[6, 10]",0.0,6.0,0.4961879253387451,2.075981855392456,0.5846079205172349,39.0,398.0,0.0
B,L,"[6, 9]",0.0,6.0,0.26770997047424316,1.8592948913574219,0.5937491038439308,39.0,399.0,0.0
Y,R,"[6, 10]",0.0,6.0,0.4100039005279541,1.9525790214538574,0.5463565103094834,39.0,400.0,0.0
,,"(6, 6)",,,,,,,,
Y,R,"[6, 7]",0.0,0.0,0.6762621402740479,4.342062950134277,0.33864862479239377,40.0,401.0,0.0
R,U,"[5, 7]",1.0,1.0,0.27567505836486816,1.6486361026763916,0.3705810348891857,40.0,402.0,0.0
Y,R,"[5, 8]",1.0,2.0,0.3372840881347656,1.7461330890655518,0.416634504780171,40.0,403.0,0.0
G,D,"[6, 8]",1.0,3.0,0.3067190647125244,2.0322060585021973,0.7154849927027713,40.0,404.0,0.0
Y,R,"[6, 9]",1.0,4.0,0.33338093757629395,1.5901820659637451,0.2557378427268305,40.0,405.0,0.0
Y,R,"[6, 10]",1.0,5.0,0.44060802459716797,1.774717092514038,0.33042712792591356,40.0,406.0,0.0
R,U,"[5, 10]",1.0,6.0,0.5437240600585938,1.9348499774932861,0.38181036409448593,40.0,407.0,0.0
B,L,"[5, 9]",0.0,6.0,0.6013720035552979,2.10870099067688,0.507092056682901,40.0,408.0,0.0
Y,R,"[5, 10]",0.0,6.0,0.4683239459991455,1.8854291439056396,0.42588173071697316,40.0,409.0,0.0
R,U,"[4, 10]",1.0,7.0,0.3670539855957031,2.043323040008545,0.685577869436267,40.0,410.0,0.0
,,"(6, 6)",,,,,,,,
Y,R,"[6, 7]",0.0,0.0,0.7805981636047363,5.653892993927002,0.489471936795985,41.0,411.0,0.0
R,U,"[5, 7]",1.0,1.0,0.23688793182373047,1.8249270915985107,0.5979060699852423,41.0,412.0,0.0
Y,R,"[5, 8]",1.0,2.0,0.3745839595794678,1.6906299591064453,0.3052218983398219,41.0,413.0,0.0
G,D,"[6, 8]",1.0,3.0,0.5383000373840332,2.2057390213012695,0.6772906049946517,41.0,414.0,0.0
Y,R,"[6, 9]",1.0,4.0,0.3341939449310303,1.6407089233398438,0.31833096218555773,41.0,415.0,0.0
Y,R,"[6, 10]",1.0,5.0,0.43639397621154785,1.922302007675171,0.4904966796332591,41.0,416.0,0.0
R,U,"[5, 10]",1.0,6.0,0.7904758453369141,2.086411952972412,0.29371578692354655,41.0,417.0,0.0
G,D,"[6, 10]",0.0,6.0,0.5301730632781982,1.8941280841827393,0.37102118018196806,41.0,418.0,0.0
B,L,"[6, 9]",0.0,6.0,0.2991981506347656,1.9409480094909668,0.6450364623342231,41.0,419.0,0.0
Y,R,"[6, 10]",0.0,6.0,0.23949980735778809,1.9272840023040771,0.6889318819457875,41.0,420.0,0.0
,,"(6, 6)",,,,,,,,
Y,R,"[6, 7]",0.0,0.0,0.6377198696136475,4.705153942108154,0.31098507532454855,42.0,421.0,0.0
R,U,"[5, 7]",1.0,1.0,0.4324221611022949,1.8631830215454102,0.44077500808049513,42.0,422.0,0.0
Y,R,"[5, 8]",1.0,2.0,0.3257899284362793,1.7845380306243896,0.45860889465638827,42.0,423.0,0.0
G,D,"[6, 8]",1.0,3.0,0.40545105934143066,2.1074929237365723,0.7161239510570503,42.0,424.0,0.0
Y,R,"[6, 9]",1.0,4.0,0.3008129596710205,1.5595710277557373,0.25918993646396477,42.0,425.0,0.0
Y,R,"[6, 10]",1.0,5.0,0.531278133392334,2.0656139850616455,0.5410050061502234,42.0,426.0,0.0
R,U,"[5, 10]",1.0,6.0,0.41502904891967773,2.1462278366088867,0.7374813825255013,42.0,427.0,0.0
B,L,"[5, 9]",0.0,6.0,0.33711791038513184,1.8695640563964844,0.5402360671650691,42.0,428.0,0.0
Y,R,"[5, 10]",0.0,6.0,0.3513820171356201,1.8317608833312988,0.4886626825056373,42.0,429.0,0.0
G,D,"[6, 10]",0.0,6.0,0.3240699768066406,1.5929338932037354,0.26511223716967075,42.0,430.0,0.0
,,"(6, 6)",,,,,,,,
Y,R,"[6, 7]",0.0,0.0,0.625413179397583,4.610339879989624,0.5417324718489138,43.0,431.0,0.0
R,U,"[5, 7]",1.0,1.0,0.2779719829559326,1.879382848739624,0.6043828117596205,43.0,432.0,0.0
Y,R,"[5, 8]",1.0,2.0,0.23034405708312988,1.737825870513916,0.5090052988758451,43.0,433.0,0.0
G,D,"[6, 8]",1.0,3.0,0.18825006484985352,1.7362408638000488,0.5451688586053722,43.0,434.0,0.0
Y,R,"[6, 9]",1.0,4.0,0.26746201515197754,1.9965119361877441,0.741334931819551,43.0,435.0,0.0
Y,R,"[6, 10]",1.0,5.0,0.19394612312316895,1.5217559337615967,0.33023097454443573,43.0,436.0,0.0
R,U,"[5, 10]",1.0,6.0,0.37383317947387695,2.060192108154297,0.6734080465451182,43.0,437.0,0.0
B,L,"[5, 9]",0.0,6.0,0.36273908615112305,1.8431730270385742,0.4833836537475974,43.0,438.0,0.0
Y,R,"[5, 10]",0.0,6.0,0.42759203910827637,1.7717819213867188,0.3386562958885126,43.0,439.0,0.0
R,U,"[4, 10]",1.0,7.0,0.2518949508666992,1.6595039367675781,0.41473842948646755,43.0,440.0,0.0
,,"(6, 6)",,,,,,,,
Y,R,"[6, 7]",0.0,0.0,0.8409881591796875,4.770317792892456,0.451631079263483,44.0,441.0,0.0
R,U,"[5, 7]",1.0,1.0,0.32679080963134766,1.8743700981140137,0.5425351140252868,44.0,442.0,0.0
Y,R,"[5, 8]",1.0,2.0,0.4048042297363281,2.040753126144409,0.6497501112286683,44.0,443.0,0.0
G,D,"[6, 8]",1.0,3.0,0.22076916694641113,1.8315019607543945,0.6151201721568305,44.0,444.0,0.0
Y,R,"[6, 9]",1.0,4.0,0.26546812057495117,1.5401349067687988,0.27184522827570357,44.0,445.0,0.0
Y,R,"[6, 10]",1.0,5.0,0.5041451454162598,2.1345770359039307,0.6225874742301363,44.0,446.0,0.0
R,U,"[5, 10]",1.0,6.0,0.35703516006469727,1.9871439933776855,0.6266625368155728,44.0,447.0,0.0
G,D,"[6, 10]",0.0,6.0,0.22939395904541016,1.8452959060668945,0.6216538932918776,44.0,448.0,0.0
Y,R,"[6, 11]",0.0,6.0,0.6334140300750732,1.9847919940948486,0.35678819196648187,44.0,449.0,0.0
R,U,"[5, 11]",0.0,6.0,0.5230388641357422,1.9130380153656006,0.3863059411638932,44.0,450.0,0.0
,,"(6, 6)",,,,,,,,
Y,R,"[6, 7]",0.0,0.0,0.8363571166992188,7.3174498081207275,0.38711947291317456,45.0,451.0,0.0
R,U,"[5, 7]",1.0,1.0,0.3696749210357666,1.9885590076446533,0.6254122502886384,45.0,452.0,0.0
Y,R,"[5, 8]",1.0,2.0,0.20836400985717773,1.5981709957122803,0.39036670542066154,45.0,453.0,0.0
G,D,"[6, 8]",1.0,3.0,0.29631686210632324,1.8686549663543701,0.5755646663567504,45.0,454.0,0.0
Y,R,"[6, 9]",1.0,4.0,0.309614896774292,1.785918951034546,0.4782313768020853,45.0,455.0,0.0
Y,R,"[6, 10]",1.0,5.0,0.27338099479675293,1.9988670349121094,0.7267351580688539,45.0,456.0,0.0
R,U,"[5, 10]",1.0,6.0,0.929265022277832,2.660099983215332,0.7367534958926159,45.0,457.0,0.0
Y,R,"[5, 11]",0.0,6.0,0.7641620635986328,2.2880520820617676,0.5249780615806171,45.0,458.0,0.0
G,D,"[6, 11]",0.0,6.0,0.28724122047424316,1.6601130962371826,0.3852426872635158,45.0,459.0,0.0
Y,R,"[5, 11]",-3.0,6.0,0.6956150531768799,2.145111083984375,0.447045992225996,45.0,460.0,0.0
,,"(6, 6)",,,,,,,,
Y,R,"[6, 7]",0.0,0.0,0.727654218673706,5.085279226303101,0.6986696281235134,46.0,461.0,0.0
R,U,"[5, 7]",1.0,1.0,0.22320818901062012,1.8061180114746094,0.5714846486938243,46.0,462.0,0.0
Y,R,"[5, 8]",1.0,2.0,0.2921459674835205,1.925732135772705,0.6304334036483683,46.0,463.0,0.0
G,D,"[6, 8]",1.0,3.0,0.281141996383667,1.624150037765503,0.3382060571499038,46.0,464.0,0.0
Y,R,"[6, 9]",1.0,4.0,0.3701138496398926,1.6241190433502197,0.2624352796141301,46.0,465.0,0.0
Y,R,"[6, 10]",1.0,5.0,0.3618190288543701,1.9211170673370361,0.5498454062499785,46.0,466.0,0.0
R,U,"[5, 10]",1.0,6.0,0.6751830577850342,2.0542380809783936,0.37096653922968925,46.0,467.0,0.0
G,D,"[6, 10]",0.0,6.0,0.6070699691772461,1.9253721237182617,0.3130277969528663,46.0,468.0,0.0
B,L,"[6, 9]",0.0,6.0,0.29271507263183594,1.96065092086792,0.6565999090873338,46.0,469.0,0.0
Y,R,"[6, 10]",0.0,6.0,0.33479785919189453,1.8027479648590088,0.4762151914854138,46.0,470.0,0.0
,,"(6, 6)",,,,,,,,
B,L,"[6, 5]",0.0,0.0,0.8453459739685059,4.496275901794434,0.5391461808673503,47.0,471.0,0.0
Y,R,"[6, 6]",0.0,0.0,0.5447840690612793,1.8163399696350098,0.27222117066369605,47.0,472.0,0.0
R,U,"[5, 6]",1.0,1.0,0.38306403160095215,1.6310930252075195,0.2534071549391694,47.0,473.0,0.0
Y,R,"[5, 7]",1.0,2.0,0.4059598445892334,1.8565080165863037,0.4430271042233491,47.0,474.0,0.0
G,D,"[6, 7]",0.0,2.0,0.634692907333374,2.329859972000122,0.7059748190549681,47.0,475.0,0.0
Y,R,"[6, 8]",1.0,3.0,0.41643714904785156,1.9807629585266113,0.5701453517189049,47.0,476.0,0.0
G,D,"[7, 8]",0.0,3.0,0.7711009979248047,2.109722852706909,0.33011130067443406,47.0,477.0,0.0
Y,R,"[7, 9]",0.0,3.0,0.4663090705871582,1.9215898513793945,0.45155300709837964,47.0,478.0,0.0
R,U,"[6, 9]",1.0,4.0,0.2547638416290283,1.5963969230651855,0.34805444477641984,47.0,479.0,0.0
B,L,"[6, 8]",0.0,4.0,0.3036460876464844,1.6949551105499268,0.39289317911659666,47.0,480.0,0.0
,,"(6, 6)",,,,,,,,
Y,R,"[6, 7]",0.0,0.0,0.7503399848937988,5.868911981582642,0.4285518675058442,48.0,481.0,0.0
R,U,"[5, 7]",1.0,1.0,0.28554511070251465,1.9673960208892822,0.6954673654510906,48.0,482.0,0.0
Y,R,"[5, 8]",1.0,2.0,0.31114983558654785,2.009706974029541,0.6885194816784787,48.0,483.0,0.0
G,D,"[6, 8]",1.0,3.0,0.29227590560913086,1.6056089401245117,0.31103389793429925,48.0,484.0,0.0
Y,R,"[6, 9]",1.0,4.0,0.2853260040283203,1.6370410919189453,0.3647842595739821,48.0,485.0,0.0
Y,R,"[6, 10]",1.0,5.0,0.39331603050231934,1.97013521194458,0.5680091233686132,48.0,486.0,0.0
R,U,"[5, 10]",1.0,6.0,0.3935720920562744,1.9109680652618408,0.5123556525591071,48.0,487.0,0.0
R,U,"[4, 10]",1.0,7.0,0.3607800006866455,1.8777689933776855,0.5067988754106678,48.0,488.0,0.0
B,L,"[4, 9]",1.0,8.0,0.5271420478820801,2.0156679153442383,0.48904529766628824,48.0,489.0,0.0
Y,R,"[4, 10]",0.0,8.0,0.6346738338470459,2.1698200702667236,0.5421765936408032,48.0,490.0,0.0
,,"(6, 6)",,,,,,,,
Y,R,"[6, 7]",0.0,0.0,0.5757880210876465,3.404589891433716,0.34691896725189075,49.0,491.0,0.0
R,U,"[5, 7]",1.0,1.0,0.5230488777160645,1.8788280487060547,0.3590344829434544,49.0,492.0,0.0
Y,R,"[5, 8]",1.0,2.0,0.44446706771850586,1.8529620170593262,0.4119010762194319,49.0,493.0,0.0
G,D,"[6, 8]",1.0,3.0,0.4390439987182617,1.9246971607208252,0.5030653303411148,49.0,494.0,0.0
Y,R,"[6, 9]",1.0,4.0,0.560089111328125,1.923090934753418,0.3597154755881937,49.0,495.0,0.0
Y,R,"[6, 10]",1.0,5.0,0.45252013206481934,1.7613201141357422,0.3210410999197206,49.0,496.0,0.0
R,U,"[5, 10]",1.0,6.0,0.838749885559082,2.2802369594573975,0.4344902047577836,49.0,497.0,0.0
R,U,"[4, 10]",1.0,7.0,0.4223759174346924,2.0875329971313477,0.6550385955204665,49.0,498.0,0.0
B,L,"[4, 9]",1.0,8.0,0.4140150547027588,2.106611967086792,0.6950116906361252,49.0,499.0,0.0
B,L,"[4, 8]",0.0,8.0,0.24077892303466797,1.9467689990997314,0.708295388436043,49.0,500.0,0.0
,,"(6, 6)",,,,,,,,
Y,R,"[6, 7]",0.0,0.0,0.5726890563964844,3.932507038116455,0.35784506912288494,50.0,501.0,0.0
R,U,"[5, 7]",1.0,1.0,0.33362793922424316,1.7462139129638672,0.4205507663890173,50.0,502.0,0.0
Y,R,"[5, 8]",1.0,2.0,0.4756510257720947,2.1404638290405273,0.6608990022808945,50.0,503.0,0.0
G,D,"[6, 8]",1.0,3.0,0.37128400802612305,1.9166200160980225,0.5608849955936739,50.0,504.0,0.0
Y,R,"[6, 9]",1.0,4.0,0.2978200912475586,1.8382279872894287,0.5491066261365387,50.0,505.0,0.0
Y,R,"[6, 10]",1.0,5.0,0.455686092376709,1.7483911514282227,0.281008864722223,50.0,506.0,0.0
R,U,"[5, 10]",1.0,6.0,0.424562931060791,1.7614340782165527,0.3256796167960251,50.0,507.0,0.0
R,U,"[4, 10]",1.0,7.0,0.515753984451294,2.120075225830078,0.6121351217880798,50.0,508.0,0.0
B,L,"[4, 9]",1.0,8.0,0.36929893493652344,1.8132500648498535,0.4423327688105047,50.0,509.0,0.0
R,U,"[3, 9]",1.0,9.0,0.3262009620666504,1.9292409420013428,0.6047519603756781,50.0,510.0,0.0
,,"(6, 6)",,,,,,,,
Y,R,"[6, 7]",-2.0,0.0,1.1711680889129639,5.631278038024902,0.3694076110351653,51.0,511.0,0.0
Y,R,"[6, 8]",1.0,1.0,0.5814409255981445,1.9572629928588867,0.3767134104990362,51.0,512.0,0.0
R,U,"[5, 8]",1.0,2.0,0.38841915130615234,2.0626659393310547,0.6894540427627514,51.0,513.0,0.0
Y,R,"[5, 9]",0.0,2.0,0.3787360191345215,2.101820945739746,0.7241058729124867,51.0,514.0,0.0
G,D,"[6, 9]",1.0,3.0,0.28972697257995605,1.8628461360931396,0.5706584415050766,51.0,515.0,0.0
Y,R,"[6, 10]",1.0,4.0,0.31807708740234375,2.0526790618896484,0.7395740252666079,51.0,516.0,0.0
Y,R,"[6, 11]",0.0,4.0,0.2644920349121094,1.954322099685669,0.6943190998686208,51.0,517.0,0.0
R,U,"[5, 11]",0.0,4.0,0.3341989517211914,1.7257840633392334,0.4033178243618393,51.0,518.0,0.0
G,D,"[6, 11]",0.0,4.0,0.5916848182678223,1.846938133239746,0.2503963266491263,51.0,519.0,0.0
B,L,"[6, 10]",0.0,4.0,0.614840030670166,2.193037986755371,0.5763888529325812,51.0,520.0,0.0
,,"(6, 6)",,,,,,,,
Y,R,"[6, 7]",0.0,0.0,0.5905551910400391,4.973037004470825,0.4994416297688917,52.0,521.0,0.0
R,U,"[5, 7]",1.0,1.0,0.6903648376464844,1.974433183670044,0.2739918462952087,52.0,522.0,0.0
Y,R,"[5, 8]",1.0,2.0,0.36730194091796875,1.8823859691619873,0.5227344946603867,52.0,523.0,0.0
G,D,"[6, 8]",1.0,3.0,0.4059751033782959,1.9659810066223145,0.5721254215073692,52.0,524.0,0.0
R,U,"[5, 8]",0.0,3.0,0.6132020950317383,2.18255615234375,0.5715332886424305,52.0,525.0,0.0
Y,R,"[5, 9]",0.0,3.0,0.2149500846862793,1.5285911560058594,0.31667067647985353,52.0,526.0,0.0
R,U,"[4, 9]",1.0,4.0,0.6825449466705322,2.067692995071411,0.3844502643621366,52.0,527.0,0.0
R,U,"[3, 9]",1.0,5.0,0.44693803787231445,2.0009498596191406,0.5518742112674893,52.0,528.0,0.0
B,L,"[3, 8]",0.0,5.0,0.2928459644317627,2.0216097831726074,0.7236880167944564,52.0,529.0,0.0
Y,R,"[3, 9]",0.0,5.0,0.303149938583374,1.6566009521484375,0.3634577367890317,52.0,530.0,0.0
,,"(6, 6)",,,,,,,,
Y,R,"[6, 7]",0.0,0.0,0.6165978908538818,3.8276240825653076,0.5075987154672503,53.0,531.0,0.0
R,U,"[5, 7]",1.0,1.0,0.3377809524536133,1.8507280349731445,0.5250133867104453,53.0,532.0,0.0
Y,R,"[5, 8]",1.0,2.0,0.4297969341278076,1.9984569549560547,0.5733563851991896,53.0,533.0,0.0
G,D,"[6, 8]",1.0,3.0,0.38075709342956543,1.895617961883545,0.5190349363588312,53.0,534.0,0.0
Y,R,"[6, 9]",1.0,4.0,0.4047420024871826,2.1350998878479004,0.7371632255410041,53.0,535.0,0.0
Y,R,"[6, 10]",1.0,5.0,0.3234570026397705,1.9406979084014893,0.6116506124626448,53.0,536.0,0.0
R,U,"[5, 10]",1.0,6.0,0.4380669593811035,2.1355538368225098,0.713432046742226,53.0,537.0,0.0
R,U,"[4, 10]",1.0,7.0,0.3521139621734619,2.063567876815796,0.7103131016142825,53.0,538.0,0.0
B,L,"[4, 9]",1.0,8.0,0.4290919303894043,1.7798690795898438,0.3571366959070443,53.0,539.0,0.0
R,U,"[3, 9]",1.0,9.0,0.566094160079956,1.9729681015014648,0.413395529437913,53.0,540.0,0.0
,,"(6, 6)",,,,,,,,
R,U,"[5, 6]",1.0,1.0,0.8624851703643799,6.153590202331543,0.6001104521703924,54.0,541.0,0.0
Y,R,"[5, 7]",1.0,2.0,0.31350111961364746,1.6364550590515137,0.32015396879762525,54.0,542.0,0.0
R,U,"[4, 7]",0.0,2.0,0.9960451126098633,2.6020710468292236,0.6051892082312256,54.0,543.0,0.0
Y,R,"[4, 8]",0.0,2.0,0.2949371337890625,1.7913801670074463,0.4966858154349362,54.0,544.0,0.0
G,D,"[5, 8]",1.0,3.0,0.3500039577484131,2.0214481353759766,0.6678302158660565,54.0,545.0,0.0
Y,R,"[5, 9]",0.0,3.0,0.6542718410491943,2.379666805267334,0.730859589595383,54.0,546.0,0.0
Y,R,"[5, 10]",1.0,4.0,0.5381669998168945,1.9738779067993164,0.43823144799403174,54.0,547.0,0.0
R,U,"[4, 10]",1.0,5.0,0.7752578258514404,2.243659019470215,0.46518541607504366,54.0,548.0,0.0
B,L,"[4, 9]",1.0,6.0,0.6372132301330566,2.204437017440796,0.5695566390879849,54.0,549.0,0.0
R,U,"[3, 9]",1.0,7.0,0.4602799415588379,1.8512659072875977,0.3876521813192036,54.0,550.0,0.0
,,"(6, 6)",,,,,,,,
R,U,"[5, 6]",1.0,1.0,0.36887097358703613,4.703584909439087,0.5909122040501538,55.0,551.0,0.0
Y,R,"[5, 7]",1.0,2.0,0.3671998977661133,1.8162939548492432,0.4574323160207273,55.0,552.0,0.0
G,D,"[6, 7]",0.0,2.0,0.9805769920349121,2.7022199630737305,0.7259757876148767,55.0,553.0,0.0
Y,R,"[6, 8]",-2.0,2.0,1.0635101795196533,2.705399990081787,0.6813246285316934,55.0,554.0,0.0
Y,R,"[6, 9]",1.0,3.0,0.21908998489379883,1.74039888381958,0.5218275207176692,55.0,555.0,0.0
Y,R,"[6, 10]",1.0,4.0,0.530454158782959,2.263629913330078,0.7353392472241325,55.0,556.0,0.0
R,U,"[5, 10]",1.0,5.0,0.6678071022033691,2.151989221572876,0.4874221632764833,55.0,557.0,0.0
R,U,"[4, 10]",1.0,6.0,0.6767070293426514,2.0045299530029297,0.32555515470232615,55.0,558.0,0.0
B,L,"[4, 9]",1.0,7.0,0.7348809242248535,2.155045986175537,0.4304661184696718,55.0,559.0,0.0
R,U,"[3, 9]",1.0,8.0,0.46811604499816895,2.006304979324341,0.5367044229911566,55.0,560.0,0.0
,,"(6, 6)",,,,,,,,
R,U,"[5, 6]",1.0,1.0,0.8609120845794678,7.4899749755859375,0.7262506204327109,56.0,561.0,0.0
Y,R,"[5, 7]",1.0,2.0,0.5659539699554443,2.2651431560516357,0.7081641445684312,56.0,562.0,0.0
R,U,"[4, 7]",0.0,2.0,0.2939629554748535,1.7490041255950928,0.4572541816961948,56.0,563.0,0.0
G,D,"[5, 7]",0.0,2.0,0.6562981605529785,2.0031979084014893,0.34399404581342113,56.0,564.0,0.0
Y,R,"[5, 8]",-2.0,2.0,1.3549730777740479,3.036731004714966,0.7302002960923502,56.0,565.0,0.0
Y,R,"[5, 9]",0.0,2.0,0.2604658603668213,1.8806979656219482,0.6113531503154026,56.0,566.0,0.0
Y,R,"[5, 10]",1.0,3.0,0.31617307662963867,1.6153979301452637,0.31013825556443547,56.0,567.0,0.0
R,U,"[4, 10]",1.0,4.0,0.5695497989654541,2.0077521800994873,0.4511478666547525,56.0,568.0,0.0
G,D,"[5, 10]",0.0,4.0,0.4452338218688965,1.7924060821533203,0.3435357982841567,56.0,569.0,0.0
B,L,"[5, 9]",0.0,4.0,0.7855668067932129,2.091465950012207,0.31821468966777544,56.0,570.0,0.0
,,"(6, 6)",,,,,,,,
Y,R,"[6, 7]",0.0,0.0,0.6157071590423584,4.919204950332642,0.2708073054187618,57.0,571.0,0.0
R,U,"[5, 7]",1.0,1.0,0.293806791305542,1.961716890335083,0.6654830061657155,57.0,572.0,0.0
Y,R,"[5, 8]",1.0,2.0,0.3112030029296875,2.041187047958374,0.7232015357293625,57.0,573.0,0.0
G,D,"[6, 8]",1.0,3.0,0.5918779373168945,2.2067129611968994,0.613405632431418,57.0,574.0,0.0
Y,R,"[6, 9]",1.0,4.0,0.326138973236084,1.9881138801574707,0.6517860486654332,57.0,575.0,0.0
Y,R,"[6, 10]",1.0,5.0,0.453826904296875,2.1657497882843018,0.7170987992093298,57.0,576.0,0.0
R,U,"[5, 10]",1.0,6.0,0.31114721298217773,2.0538949966430664,0.7376136350876498,57.0,577.0,0.0
R,U,"[4, 10]",1.0,7.0,0.354809045791626,2.1088860034942627,0.7467742712839922,57.0,578.0,0.0
B,L,"[4, 9]",1.0,8.0,0.3143758773803711,1.7704088687896729,0.4505048789142666,57.0,579.0,0.0
R,U,"[3, 9]",1.0,9.0,0.3407258987426758,1.7515289783477783,0.401957856709553,57.0,580.0,0.0
,,"(6, 6)",,,,,,,,
R,U,"[5, 6]",1.0,1.0,0.4902830123901367,6.80443000793457,0.5395693939602809,58.0,581.0,0.0
Y,R,"[5, 7]",1.0,2.0,0.5327889919281006,1.7884068489074707,0.2616328660161347,58.0,582.0,0.0
R,U,"[4, 7]",0.0,2.0,0.47130489349365234,1.7934019565582275,0.3382521319726851,58.0,583.0,0.0
G,D,"[5, 7]",-2.0,2.0,1.2192769050598145,2.717787027359009,0.5391469208253902,58.0,584.0,0.0
G,D,"[6, 7]",0.0,2.0,0.2926490306854248,1.7643749713897705,0.4701297319667343,58.0,585.0,0.0
Y,R,"[6, 8]",1.0,3.0,0.449923038482666,1.7395708560943604,0.29332591277598424,58.0,586.0,0.0
Y,R,"[6, 9]",1.0,4.0,0.6935601234436035,1.9607179164886475,0.2705798737913133,58.0,587.0,0.0
R,U,"[5, 9]",0.0,4.0,0.5939960479736328,1.8555598258972168,0.25962988139451715,58.0,588.0,0.0
R,U,"[4, 9]",1.0,5.0,0.688957929611206,2.2522759437561035,0.561582770544546,58.0,589.0,0.0
B,L,"[4, 8]",0.0,5.0,0.49292683601379395,1.837233066558838,0.3488879350161061,58.0,590.0,0.0
,,"(6, 6)",,,,,,,,
R,U,"[5, 6]",1.0,1.0,0.4009389877319336,4.299872875213623,0.3155382938431826,59.0,591.0,0.0
Y,R,"[5, 7]",1.0,2.0,0.33489298820495605,1.8989331722259521,0.564162883321622,59.0,592.0,0.0
G,D,"[6, 7]",0.0,2.0,0.4288160800933838,2.044999122619629,0.6090836471270111,59.0,593.0,0.0
Y,R,"[6, 8]",-2.0,2.0,1.1794919967651367,2.5304040908813477,0.38958873474520905,59.0,594.0,0.0
Y,R,"[6, 9]",1.0,3.0,0.8811938762664795,2.503868818283081,0.6266483618866772,59.0,595.0,0.0
Y,R,"[6, 10]",1.0,4.0,0.2520880699157715,1.9395530223846436,0.6996159990311447,59.0,596.0,0.0
R,U,"[5, 10]",1.0,5.0,0.2761039733886719,1.6208860874176025,0.33726917179522026,59.0,597.0,0.0
R,U,"[4, 10]",1.0,6.0,0.32842302322387695,1.6818439960479736,0.3524666285028639,59.0,598.0,0.0
B,L,"[4, 9]",1.0,7.0,0.817192792892456,2.504831075668335,0.690228690088872,59.0,599.0,0.0
R,U,"[3, 9]",1.0,8.0,0.2831001281738281,1.7289478778839111,0.4526172836574166,59.0,600.0,0.0
,,"(6, 6)",,,,,,,,
R,U,"[5, 6]",1.0,1.0,0.4416050910949707,19.59452199935913,0.6635205876544141,60.0,601.0,0.0
Y,R,"[5, 7]",1.0,2.0,0.42267489433288574,2.076923131942749,0.6404466606596355,60.0,602.0,0.0
G,D,"[6, 7]",0.0,2.0,0.2888929843902588,1.8035600185394287,0.5106004393877959,60.0,603.0,0.0
Y,R,"[6, 8]",1.0,3.0,0.7000210285186768,2.3398869037628174,0.6503723723311673,60.0,604.0,0.0
Y,R,"[6, 9]",1.0,4.0,0.4111330509185791,1.850188970565796,0.434223985496984,60.0,605.0,0.0
R,U,"[5, 9]",0.0,4.0,0.7490179538726807,2.026247024536133,0.2771195179451126,60.0,606.0,0.0
G,D,"[6, 9]",0.0,4.0,0.6502060890197754,2.1127281188964844,0.47307314790397614,60.0,607.0,0.0
B,L,"[6, 8]",0.0,4.0,0.3065481185913086,1.7075331211090088,0.39727225758708434,60.0,608.0,0.0
R,U,"[5, 8]",1.0,5.0,0.37086915969848633,1.7433109283447266,0.3574230350949778,60.0,609.0,0.0
R,U,"[4, 8]",0.0,5.0,0.6355130672454834,1.880552053451538,0.25458918824270027,60.0,610.0,0.0
,,"(6, 6)",,,,,,,,
Y,R,"[6, 7]",0.0,0.0,0.4686439037322998,4.985259056091309,0.3397045334901819,61.0,611.0,0.0
R,U,"[5, 7]",1.0,1.0,0.35681700706481934,1.9572031497955322,0.5967110713212397,61.0,612.0,0.0
Y,R,"[5, 8]",1.0,2.0,0.3571021556854248,1.9163310527801514,0.5464039872144814,61.0,613.0,0.0
G,D,"[6, 8]",1.0,3.0,0.3644111156463623,2.042335033416748,0.6719258342386796,61.0,614.0,0.0
Y,R,"[6, 9]",1.0,4.0,0.275068998336792,1.7695679664611816,0.49166074713633934,61.0,615.0,0.0
Y,R,"[6, 10]",1.0,5.0,0.476391077041626,1.9210171699523926,0.44609670279348235,61.0,616.0,0.0
R,U,"[5, 10]",1.0,6.0,0.4330611228942871,2.023487091064453,0.5860034547730633,61.0,617.0,0.0
R,U,"[4, 10]",1.0,7.0,0.365415096282959,1.8440780639648438,0.480181195472805,61.0,618.0,0.0
B,L,"[4, 9]",1.0,8.0,0.8555641174316406,2.332681179046631,0.46280021509740144,61.0,619.0,0.0
R,U,"[3, 9]",1.0,9.0,0.3466031551361084,1.9136128425598145,0.5597118217467474,61.0,620.0,0.0
,,"(6, 6)",,,,,,,,
R,U,"[5, 6]",-2.0,0.0,1.27839994430542,12.736455917358398,0.695992746430655,62.0,621.0,0.0
R,U,"[4, 6]",0.0,0.0,0.677534818649292,2.4006240367889404,0.7130928412894343,62.0,622.0,0.0
Y,R,"[4, 7]",0.0,0.0,0.33008694648742676,1.9679839611053467,0.6312178769643496,62.0,623.0,0.0
G,D,"[5, 7]",1.0,1.0,0.39946699142456055,1.9712719917297363,0.5691316311883248,62.0,624.0,0.0
Y,R,"[5, 8]",1.0,2.0,0.23451995849609375,1.840217113494873,0.6092913841130793,62.0,625.0,0.0
Y,R,"[5, 9]",0.0,2.0,0.46819496154785156,2.138036012649536,0.6804991816448445,62.0,626.0,0.0
R,U,"[4, 9]",1.0,3.0,0.2596900463104248,1.7716150283813477,0.5022424429295769,62.0,627.0,0.0
R,U,"[3, 9]",1.0,4.0,0.4645359516143799,2.0261831283569336,0.5617276812345732,62.0,628.0,0.0
B,L,"[3, 8]",0.0,4.0,0.42342400550842285,1.9238429069519043,0.5023280892836282,62.0,629.0,0.0
R,U,"[2, 8]",0.0,4.0,0.6236472129821777,2.223259925842285,0.5925025926482326,62.0,630.0,0.0
,,"(6, 6)",,,,,,,,
Y,R,"[6, 7]",0.0,0.0,0.5015840530395508,3.4427740573883057,0.301790044703518,63.0,631.0,0.0
R,U,"[5, 7]",1.0,1.0,0.29673099517822266,1.982954978942871,0.6844034608233898,63.0,632.0,0.0
Y,R,"[5, 8]",1.0,2.0,0.2964749336242676,1.6859068870544434,0.38716176511779316,63.0,633.0,0.0
G,D,"[6, 8]",1.0,3.0,0.4771089553833008,1.9988939762115479,0.5193428841091783,63.0,634.0,0.0
Y,R,"[6, 9]",1.0,4.0,0.23210597038269043,1.913236141204834,0.6822954846347479,63.0,635.0,0.0
Y,R,"[6, 10]",1.0,5.0,0.32200098037719727,1.707062005996704,0.3730804250690679,63.0,636.0,0.0
R,U,"[5, 10]",1.0,6.0,0.989408016204834,2.6035850048065186,0.6096596291974503,63.0,637.0,0.0
R,U,"[4, 10]",1.0,7.0,0.314349889755249,1.7315881252288818,0.42481688547329405,63.0,638.0,0.0
B,L,"[4, 9]",1.0,8.0,0.9660549163818359,2.6610920429229736,0.7022525653052145,63.0,639.0,0.0
Y,R,"[4, 10]",-2.0,8.0,1.054391860961914,2.6847808361053467,0.670257255489288,63.0,640.0,0.0
,,"(6, 6)",,,,,,,,
R,U,"[5, 6]",1.0,1.0,0.39243388175964355,5.4024999141693115,0.4729598514773701,64.0,641.0,0.0
Y,R,"[5, 7]",1.0,2.0,0.3069579601287842,1.7901301383972168,0.4798177413261046,64.0,642.0,0.0
G,D,"[6, 7]",0.0,2.0,0.6131629943847656,2.0054399967193604,0.38532347049060645,64.0,643.0,0.0
Y,R,"[6, 8]",1.0,3.0,0.586090087890625,1.835524082183838,0.25430859862253674,64.0,644.0,0.0
G,D,"[7, 8]",0.0,3.0,0.6956188678741455,2.106868028640747,0.41097726398002365,64.0,645.0,0.0
Y,R,"[7, 9]",0.0,3.0,0.9796020984649658,2.323392868041992,0.35106470966673553,64.0,646.0,0.0
R,U,"[6, 9]",1.0,4.0,0.7032499313354492,2.395073890686035,0.6957371378082093,64.0,647.0,0.0
B,L,"[6, 8]",0.0,4.0,0.9452309608459473,2.409292221069336,0.455265321908244,64.0,648.0,0.0
B,L,"[6, 7]",0.0,4.0,0.8382151126861572,2.293708086013794,0.46565198929395735,64.0,649.0,0.0
B,L,"[6, 6]",0.0,4.0,0.6121959686279297,2.1318111419677734,0.5140401025821986,64.0,650.0,0.0
,,"(6, 6)",,,,,,,,
R,U,"[5, 6]",1.0,1.0,0.38962292671203613,4.718249082565308,0.3990337152514655,65.0,651.0,0.0
Y,R,"[5, 7]",1.0,2.0,0.22610092163085938,1.816486120223999,0.5822169488804088,65.0,652.0,0.0
R,U,"[4, 7]",0.0,2.0,0.6217420101165771,2.1008970737457275,0.4663757360585808,65.0,653.0,0.0
G,D,"[5, 7]",0.0,2.0,0.7044680118560791,2.1485989093780518,0.43151233420208784,65.0,654.0,0.0
Y,R,"[5, 8]",1.0,3.0,0.28542613983154297,1.8630881309509277,0.5778072415500304,65.0,655.0,0.0
Y,R,"[5, 9]",0.0,3.0,0.20650410652160645,1.8474631309509277,0.6585457628716032,65.0,656.0,0.0
G,D,"[6, 9]",-2.0,3.0,1.358388900756836,2.852587938308716,0.5278227930531053,65.0,657.0,0.0
B,L,"[6, 8]",1.0,4.0,0.25046205520629883,1.7512800693511963,0.512486757933,65.0,658.0,0.0
R,U,"[5, 8]",0.0,4.0,0.39571380615234375,1.8437349796295166,0.43976505117164366,65.0,659.0,0.0
R,U,"[4, 8]",0.0,4.0,0.7443971633911133,2.4559080600738525,0.7123667571165361,65.0,660.0,0.0
,,"(6, 6)",,,,,,,,
R,U,"[5, 6]",1.0,1.0,0.6429572105407715,4.357964038848877,0.7197345465203402,66.0,661.0,0.0
Y,R,"[5, 7]",1.0,2.0,0.4226529598236084,1.870285987854004,0.44036203442747457,66.0,662.0,0.0
G,D,"[6, 7]",0.0,2.0,0.5019030570983887,2.156557083129883,0.6633300125827869,66.0,663.0,0.0
Y,R,"[6, 8]",1.0,3.0,0.7492868900299072,2.2224111557006836,0.46918501353921815,66.0,664.0,0.0
R,U,"[5, 8]",-2.0,3.0,1.4636261463165283,2.9756920337677,0.5448249594561974,66.0,665.0,0.0
R,U,"[4, 8]",0.0,3.0,0.253587007522583,1.8741710186004639,0.6359577102716856,66.0,666.0,0.0
B,L,"[4, 7]",0.0,3.0,0.23555612564086914,1.8487000465393066,0.6175232891035355,66.0,667.0,0.0
R,U,"[3, 7]",0.0,3.0,0.18559813499450684,1.4338099956512451,0.25158857471212487,66.0,668.0,0.0
Y,R,"[3, 8]",0.0,3.0,0.296187162399292,1.6853890419006348,0.3871014472054397,66.0,669.0,0.0
G,D,"[4, 8]",0.0,3.0,0.269819974899292,1.9469459056854248,0.6835808868451176,66.0,670.0,0.0
,,"(6, 6)",,,,,,,,
R,U,"[5, 6]",1.0,1.0,0.36694884300231934,4.287195920944214,0.554169372311428,67.0,671.0,0.0
Y,R,"[5, 7]",1.0,2.0,0.2544291019439697,1.6092572212219238,0.3636987688854965,67.0,672.0,0.0
G,D,"[6, 7]",0.0,2.0,0.5538780689239502,1.8308360576629639,0.26119211172934315,67.0,673.0,0.0
Y,R,"[6, 8]",1.0,3.0,0.6661269664764404,2.0251669883728027,0.36962571963037416,67.0,674.0,0.0
B,L,"[6, 7]",0.0,3.0,0.35280394554138184,1.812175989151001,0.46503452274771634,67.0,675.0,0.0
R,U,"[5, 7]",0.0,3.0,0.9532661437988281,2.489527940750122,0.5378050246978995,67.0,676.0,0.0
R,U,"[4, 7]",0.0,3.0,0.48578596115112305,2.091179132461548,0.6121996929648787,67.0,677.0,0.0
Y,R,"[4, 8]",0.0,3.0,0.389880895614624,1.9534821510314941,0.5489814931847197,67.0,678.0,0.0
G,D,"[5, 8]",1.0,4.0,0.2768869400024414,1.9731650352478027,0.688632732048339,67.0,679.0,0.0
B,L,"[5, 7]",0.0,4.0,0.6261589527130127,2.098336935043335,0.4705640244165704,67.0,680.0,0.0
,,"(6, 6)",,,,,,,,
R,U,"[5, 6]",1.0,1.0,0.32137489318847656,3.64939284324646,0.5365312847223994,68.0,681.0,0.0
Y,R,"[5, 7]",1.0,2.0,0.24395179748535156,1.5720539093017578,0.32536690176824823,68.0,682.0,0.0
Y,R,"[5, 8]",1.0,3.0,0.8153719902038574,2.3176209926605225,0.5095570010442987,68.0,683.0,0.0
Y,R,"[5, 9]",0.0,3.0,0.3806118965148926,2.10526704788208,0.7311378539815445,68.0,684.0,0.0
G,D,"[6, 9]",1.0,4.0,0.4819622039794922,1.8650591373443604,0.3798631766866394,68.0,685.0,0.0
B,L,"[6, 8]",1.0,5.0,0.5252342224121094,1.879850149154663,0.34306418982204007,68.0,686.0,0.0
Y,R,"[6, 9]",0.0,5.0,0.3954470157623291,1.9578580856323242,0.5674409804266276,68.0,687.0,0.0
R,U,"[5, 9]",0.0,5.0,0.2199239730834961,1.705430030822754,0.4896555351086102,68.0,688.0,0.0
R,U,"[4, 9]",1.0,6.0,0.3631479740142822,1.6945738792419434,0.33436044333231957,68.0,689.0,0.0
G,D,"[5, 9]",0.0,6.0,0.32596898078918457,1.8289518356323242,0.4963478750703606,68.0,690.0,0.0
,,"(6, 6)",,,,,,,,
Y,R,"[6, 7]",0.0,0.0,0.4931647777557373,3.717784881591797,0.6140606583683997,69.0,691.0,0.0
R,U,"[5, 7]",1.0,1.0,0.3083779811859131,1.8384130001068115,0.5192309936606582,69.0,692.0,0.0
Y,R,"[5, 8]",1.0,2.0,0.16007208824157715,1.4236621856689453,0.25965035436919875,69.0,693.0,0.0
Y,R,"[5, 9]",0.0,2.0,0.25887298583984375,1.8787391185760498,0.6218803519788827,69.0,694.0,0.0
Y,R,"[5, 10]",1.0,3.0,0.23370981216430664,1.6886601448059082,0.46039153289254164,69.0,695.0,0.0
Y,R,"[5, 11]",0.0,3.0,0.24419307708740234,1.7431299686431885,0.5033783602153539,69.0,696.0,0.0
G,D,"[6, 11]",0.0,3.0,0.2321920394897461,1.9263920783996582,0.696197418523313,69.0,697.0,0.0
R,U,"[5, 11]",0.0,3.0,0.4358038902282715,2.1393840312957764,0.7022418472347698,69.0,698.0,0.0
G,D,"[6, 11]",-1.0,3.0,0.018959999084472656,5.642332077026367,0.561290672080585,69.0,699.0,0.0
B,L,"[6, 10]",1.0,4.0,0.2931370735168457,1.8132829666137695,0.5245700122685448,69.0,700.0,0.0
,,"(6, 6)",,,,,,,,
R,U,"[5, 6]",1.0,1.0,0.8026840686798096,4.954522132873535,0.39589458354239615,70.0,701.0,0.0
Y,R,"[5, 7]",1.0,2.0,0.27767086029052734,1.9407920837402344,0.6531093759732434,70.0,702.0,0.0
Y,R,"[5, 8]",1.0,3.0,0.2916231155395508,1.8248801231384277,0.5279641758952578,70.0,703.0,0.0
Y,R,"[5, 9]",0.0,3.0,0.23124098777770996,1.542983055114746,0.32122193114825753,70.0,704.0,0.0
G,D,"[6, 9]",1.0,4.0,0.3725011348724365,1.9794540405273438,0.6170498298846012,70.0,705.0,0.0
B,L,"[6, 8]",1.0,5.0,0.3462710380554199,2.095101833343506,0.7451721437394754,70.0,706.0,0.0
Y,R,"[6, 9]",0.0,5.0,0.2383720874786377,1.9286940097808838,0.6909939551728912,70.0,707.0,0.0
R,U,"[5, 9]",0.0,5.0,0.21261906623840332,1.6877021789550781,0.47866206593266436,70.0,708.0,0.0
R,U,"[4, 9]",1.0,6.0,0.2450389862060547,1.7066290378570557,0.46858869833351396,70.0,709.0,0.0
Y,R,"[4, 10]",1.0,7.0,0.5016160011291504,1.755519151687622,0.2575803268723977,70.0,710.0,0.0
,,"(6, 6)",,,,,,,,
R,U,"[5, 6]",1.0,1.0,0.4276559352874756,3.3913791179656982,0.3489126590876127,71.0,711.0,0.0
Y,R,"[5, 7]",1.0,2.0,0.3185458183288574,1.7962110042572021,0.47828769435479096,71.0,712.0,0.0
Y,R,"[5, 8]",1.0,3.0,0.27633190155029297,1.684269905090332,0.4125411183718851,71.0,713.0,0.0
Y,R,"[5, 9]",0.0,3.0,0.37334609031677246,1.7481298446655273,0.3607796058690317,71.0,714.0,0.0
G,D,"[6, 9]",1.0,4.0,0.29681992530822754,1.9901139736175537,0.7005490364044715,71.0,715.0,0.0
B,L,"[6, 8]",1.0,5.0,0.19890093803405762,1.6562070846557617,0.45689358180508427,71.0,716.0,0.0
Y,R,"[6, 9]",0.0,5.0,0.5399770736694336,1.799274206161499,0.25639206093037115,71.0,717.0,0.0
R,U,"[5, 9]",0.0,5.0,0.2880971431732178,1.7849149703979492,0.4910645353862907,71.0,718.0,0.0
R,U,"[4, 9]",-1.0,5.0,0.0915992259979248,5.626111030578613,0.4671512427424185,71.0,719.0,0.0
R,U,"[3, 9]",1.0,6.0,0.250230073928833,1.955214023590088,0.705440746746579,71.0,720.0,0.0
,,"(6, 6)",,,,,,,,
R,U,"[5, 6]",1.0,1.0,0.41641998291015625,4.146620988845825,0.6687190805460558,72.0,721.0,0.0
Y,R,"[5, 7]",1.0,2.0,0.34703993797302246,1.7995710372924805,0.45183781339227336,72.0,722.0,0.0
Y,R,"[5, 8]",1.0,3.0,0.36604785919189453,1.7742559909820557,0.40944442658183383,72.0,723.0,0.0
R,U,"[4, 8]",0.0,3.0,0.4505500793457031,2.0461649894714355,0.6056697592797571,72.0,724.0,0.0
G,D,"[5, 8]",0.0,3.0,0.3004019260406494,1.6393768787384033,0.34506245777530714,72.0,725.0,0.0
B,L,"[5, 7]",0.0,3.0,0.5542149543762207,2.0591728687286377,0.5206355461328769,72.0,726.0,0.0
Y,R,"[5, 8]",0.0,3.0,0.24736499786376953,1.7967908382415771,0.5510171411906942,72.0,727.0,0.0
R,U,"[4, 8]",0.0,3.0,0.2074120044708252,1.922065019607544,0.7058705016001773,72.0,728.0,0.0
R,U,"[3, 8]",0.0,3.0,0.22472786903381348,1.9576308727264404,0.7305023408516309,72.0,729.0,0.0
Y,R,"[3, 9]",1.0,4.0,0.2859780788421631,1.9187498092651367,0.6325998754845471,72.0,730.0,0.0
,,"(6, 6)",,,,,,,,
R,U,"[5, 6]",1.0,1.0,0.5278160572052002,5.529490947723389,0.3121419269448225,73.0,731.0,0.0
Y,R,"[5, 7]",1.0,2.0,0.2879519462585449,1.6410338878631592,0.3531272837446774,73.0,732.0,0.0
Y,R,"[5, 8]",1.0,3.0,0.5166099071502686,2.215996026992798,0.7020948396494513,73.0,733.0,0.0
Y,R,"[5, 9]",0.0,3.0,0.363569974899292,2.0663440227508545,0.7016516435703863,73.0,734.0,0.0
G,D,"[6, 9]",1.0,4.0,0.23421406745910645,1.5965569019317627,0.36527277163008176,73.0,735.0,0.0
B,L,"[6, 8]",1.0,5.0,0.5102660655975342,1.9584200382232666,0.44041893913609814,73.0,736.0,0.0
Y,R,"[6, 9]",0.0,5.0,0.35007190704345703,1.6840789318084717,0.3411173842666017,73.0,737.0,0.0
R,U,"[5, 9]",0.0,5.0,0.2608819007873535,1.6737208366394043,0.4147469740832812,73.0,738.0,0.0
G,D,"[6, 9]",0.0,5.0,0.283444881439209,1.543976068496704,0.2587757710944088,73.0,739.0,0.0
R,U,"[5, 9]",0.0,5.0,0.3661539554595947,2.0116920471191406,0.6538960381768189,73.0,740.0,0.0
,,"(6, 6)",,,,,,,,
R,U,"[5, 6]",1.0,1.0,0.6148791313171387,5.055904865264893,0.6093061208836663,74.0,741.0,0.0
Y,R,"[5, 7]",1.0,2.0,0.21948695182800293,1.5044820308685303,0.29739193322099156,74.0,742.0,0.0
Y,R,"[5, 8]",1.0,3.0,0.3509998321533203,1.7610080242156982,0.4084154136573641,74.0,743.0,0.0
G,D,"[6, 8]",1.0,4.0,0.47179102897644043,2.010800838470459,0.5523183910478335,74.0,744.0,0.0
G,D,"[7, 8]",0.0,4.0,0.23407888412475586,1.716444969177246,0.48553275079166713,74.0,745.0,0.0
B,L,"[7, 7]",0.0,4.0,0.2484290599822998,1.5456311702728271,0.2979726644770703,74.0,746.0,0.0
Y,R,"[7, 8]",0.0,4.0,0.3764610290527344,1.9137530326843262,0.527987803452866,74.0,747.0,0.0
R,U,"[6, 8]",0.0,4.0,0.2635838985443115,1.871973991394043,0.616721907993593,74.0,748.0,0.0
G,D,"[7, 8]",0.0,4.0,0.24303197860717773,1.9371089935302734,0.6870260887907103,74.0,749.0,0.0
Y,R,"[7, 9]",0.0,4.0,0.2567150592803955,1.7538599967956543,0.4910065119904221,74.0,750.0,0.0
,,"(6, 6)",,,,,,,,
R,U,"[5, 6]",1.0,1.0,0.4214131832122803,4.363336801528931,0.5376273522415702,75.0,751.0,0.0
Y,R,"[5, 7]",1.0,2.0,0.24422502517700195,1.967905044555664,0.7220290064127663,75.0,752.0,0.0
R,U,"[4, 7]",0.0,2.0,0.2363719940185547,1.7006850242614746,0.472935017524114,75.0,753.0,0.0
Y,R,"[4, 8]",0.0,2.0,0.534250020980835,1.8718559741973877,0.34490798499319936,75.0,754.0,0.0
Y,R,"[4, 9]",1.0,3.0,0.30958104133605957,1.667788028717041,0.36279151459704545,75.0,755.0,0.0
G,D,"[5, 9]",0.0,3.0,0.5252599716186523,1.81498384475708,0.2777316469654072,75.0,756.0,0.0
B,L,"[5, 8]",1.0,4.0,0.477431058883667,2.188485860824585,0.7156195697401286,75.0,757.0,0.0
R,U,"[4, 8]",0.0,4.0,0.2412271499633789,1.674156904220581,0.4234983487766123,75.0,758.0,0.0
Y,R,"[4, 9]",0.0,4.0,0.2615699768066406,1.88863205909729,0.6286835901077175,75.0,759.0,0.0
G,D,"[5, 9]",0.0,4.0,0.5660309791564941,2.035249948501587,0.463991292950832,75.0,760.0,0.0
,,"(6, 6)",,,,,,,,
R,U,"[5, 6]",1.0,1.0,0.2970149517059326,4.990022897720337,0.7202894162599129,76.0,761.0,0.0
Y,R,"[5, 7]",1.0,2.0,0.27490687370300293,1.5544970035552979,0.2752851424986686,76.0,762.0,0.0
Y,R,"[5, 8]",1.0,3.0,0.32387495040893555,1.9671390056610107,0.6586147464123855,76.0,763.0,0.0
Y,R,"[5, 9]",-1.0,3.0,0.04573702812194824,5.807432174682617,0.6992759968797424,76.0,764.0,0.0
Y,R,"[5, 10]",1.0,4.0,0.38262104988098145,1.6448209285736084,0.2612375981659372,76.0,765.0,0.0
R,U,"[4, 10]",1.0,5.0,0.9765400886535645,2.54350209236145,0.5877822928977783,76.0,766.0,0.0
G,D,"[5, 10]",0.0,5.0,0.1637740135192871,1.8375749588012695,0.6755812779457708,76.0,767.0,0.0
B,L,"[5, 9]",0.0,5.0,0.5117058753967285,1.9736499786376953,0.4656663512341835,76.0,768.0,0.0
G,D,"[6, 9]",-1.0,5.0,0.08174300193786621,5.554622173309326,0.40367976723578003,76.0,769.0,0.0
G,D,"[7, 9]",0.0,5.0,0.4364011287689209,1.8839900493621826,0.45427151935909194,76.0,770.0,0.0
,,"(6, 6)",,,,,,,,
R,U,"[5, 6]",1.0,1.0,0.39346909523010254,3.800847053527832,0.6549092587171899,77.0,771.0,0.0
Y,R,"[5, 7]",1.0,2.0,0.277008056640625,1.5616588592529297,0.2835623385262071,77.0,772.0,0.0
Y,R,"[5, 8]",1.0,3.0,0.30933499336242676,1.652885913848877,0.3363589841163028,77.0,773.0,0.0
Y,R,"[5, 9]",0.0,3.0,0.9283299446105957,2.4444940090179443,0.5142416825786997,77.0,774.0,0.0
R,U,"[4, 9]",1.0,4.0,0.2743220329284668,2.0229039192199707,0.736629087266466,77.0,775.0,0.0
G,D,"[5, 9]",0.0,4.0,0.29433608055114746,2.0189809799194336,0.7222811636459383,77.0,776.0,0.0
B,L,"[5, 8]",0.0,4.0,0.3244779109954834,1.5828440189361572,0.2556580691364896,77.0,777.0,0.0
Y,R,"[5, 9]",0.0,4.0,0.33463311195373535,1.9424049854278564,0.6143031244678123,77.0,778.0,0.0
R,U,"[4, 9]",0.0,4.0,0.25962090492248535,1.6681089401245117,0.3993218281725645,77.0,779.0,0.0
R,U,"[3, 9]",1.0,5.0,0.22583484649658203,1.8586831092834473,0.6243279619969664,77.0,780.0,0.0
,,"(6, 6)",,,,,,,,
R,U,"[5, 6]",1.0,1.0,0.43531084060668945,4.750245809555054,0.5413968967090983,78.0,781.0,0.0
Y,R,"[5, 7]",1.0,2.0,0.24585509300231934,1.5897700786590576,0.3478749691920231,78.0,782.0,0.0
Y,R,"[5, 8]",1.0,3.0,0.342120885848999,1.8843650817871094,0.532035847936009,78.0,783.0,0.0
Y,R,"[5, 9]",0.0,3.0,0.21248698234558105,1.9469029903411865,0.7288661140559616,78.0,784.0,0.0
R,U,"[4, 9]",1.0,4.0,0.20641112327575684,1.8928780555725098,0.6716623155155241,78.0,785.0,0.0
B,L,"[4, 8]",0.0,4.0,0.3161160945892334,1.8856511116027832,0.574159740844597,78.0,786.0,0.0
G,D,"[5, 8]",0.0,4.0,0.23797202110290527,1.6504859924316406,0.4247738682050654,78.0,787.0,0.0
Y,R,"[5, 9]",0.0,4.0,0.8787970542907715,2.5579440593719482,0.6826152689175518,78.0,788.0,0.0
R,U,"[4, 9]",0.0,4.0,0.3613409996032715,1.7193999290466309,0.3521685789842479,78.0,789.0,0.0
R,U,"[3, 9]",1.0,5.0,0.3306870460510254,2.0728759765625,0.7412433590961542,78.0,790.0,0.0
,,"(6, 6)",,,,,,,,
R,U,"[5, 6]",1.0,1.0,0.42402005195617676,3.7745320796966553,0.5659605886510306,79.0,791.0,0.0
Y,R,"[5, 7]",1.0,2.0,0.24839115142822266,1.78147292137146,0.5307750394693909,79.0,792.0,0.0
Y,R,"[5, 8]",1.0,3.0,0.2850050926208496,1.5383141040802002,0.25265212249334895,79.0,793.0,0.0
Y,R,"[5, 9]",0.0,3.0,0.7900629043579102,2.402247905731201,0.6045535901617356,79.0,794.0,0.0
B,L,"[5, 8]",0.0,3.0,0.45435500144958496,1.7092700004577637,0.2641657096205958,79.0,795.0,0.0
G,D,"[6, 8]",1.0,4.0,0.6170530319213867,1.9532029628753662,0.3339051438458759,79.0,796.0,0.0
G,D,"[7, 8]",0.0,4.0,0.5559988021850586,1.947878122329712,0.3817253695196429,79.0,797.0,0.0
Y,R,"[7, 9]",0.0,4.0,0.6779289245605469,2.1371350288391113,0.45200641235775185,79.0,798.0,0.0
B,L,"[7, 8]",0.0,4.0,0.3086099624633789,1.8637359142303467,0.5490669046075434,79.0,799.0,0.0
R,U,"[6, 8]",0.0,4.0,0.395953893661499,1.801185131072998,0.400412694727096,79.0,800.0,0.0
,,"(6, 6)",,,,,,,,
R,U,"[5, 6]",1.0,1.0,0.4204440116882324,3.5148911476135254,0.3486072107414684,80.0,801.0,0.0
Y,R,"[5, 7]",1.0,2.0,0.33124494552612305,1.9166162014007568,0.5816577349112912,80.0,802.0,0.0
Y,R,"[5, 8]",1.0,3.0,0.2316141128540039,1.9745519161224365,0.7392777590303365,80.0,803.0,0.0
Y,R,"[5, 9]",0.0,3.0,0.49190711975097656,1.831610918045044,0.33802950365740886,80.0,804.0,0.0
G,D,"[6, 9]",1.0,4.0,0.9467480182647705,2.5582799911499023,0.612676125174787,80.0,805.0,0.0
B,L,"[6, 8]",1.0,5.0,0.47382116317749023,1.8911349773406982,0.4040157409048292,80.0,806.0,0.0
Y,R,"[6, 9]",0.0,5.0,0.5829200744628906,2.0901710987091064,0.5106415962639282,80.0,807.0,0.0
Y,R,"[6, 10]",1.0,6.0,0.49015307426452637,2.1168301105499268,0.6277587184895893,80.0,808.0,0.0
R,U,"[5, 10]",1.0,7.0,0.4795069694519043,1.9879300594329834,0.5153525749325831,80.0,809.0,0.0
R,U,"[4, 10]",1.0,8.0,0.3377511501312256,1.873790979385376,0.5392095698471588,80.0,810.0,0.0
,,"(6, 6)",,,,,,,,
R,U,"[5, 6]",1.0,1.0,0.5381820201873779,5.1887571811676025,0.5111776537530309,81.0,811.0,0.0
Y,R,"[5, 7]",1.0,2.0,0.3203470706939697,1.974458932876587,0.6689064657152096,81.0,812.0,0.0
Y,R,"[5, 8]",1.0,3.0,0.3180980682373047,1.8910040855407715,0.5766075679028309,81.0,813.0,0.0
Y,R,"[5, 9]",0.0,3.0,0.3647468090057373,1.949289083480835,0.5925503488301118,81.0,814.0,0.0
G,D,"[6, 9]",1.0,4.0,0.9117560386657715,2.5987260341644287,0.6912661605824362,81.0,815.0,0.0
B,L,"[6, 8]",1.0,5.0,0.3146791458129883,1.6009299755096436,0.29247196991912283,81.0,816.0,0.0
R,U,"[5, 8]",0.0,5.0,0.7666800022125244,2.138076066970825,0.38035125586306673,81.0,817.0,0.0
Y,R,"[5, 9]",0.0,5.0,0.3646271228790283,1.6562070846557617,0.2866060032487118,81.0,818.0,0.0
G,D,"[6, 9]",0.0,5.0,0.14069199562072754,1.557539939880371,0.4107893912700539,81.0,819.0,0.0
R,U,"[5, 9]",0.0,5.0,0.3296318054199219,2.033060073852539,0.7102471052629822,81.0,820.0,0.0
,,"(6, 6)",,,,,,,,
R,U,"[5, 6]",1.0,1.0,0.7068760395050049,4.599747896194458,0.26028301435375967,82.0,821.0,0.0
Y,R,"[5, 7]",1.0,2.0,0.3102250099182129,2.0286989212036133,0.7218291225495475,82.0,822.0,0.0
Y,R,"[5, 8]",-2.0,2.0,1.0438990592956543,2.548612117767334,0.5374443759727094,82.0,823.0,0.0
R,U,"[4, 8]",0.0,2.0,0.9109008312225342,2.632981777191162,0.7201120931609748,82.0,824.0,0.0
Y,R,"[4, 9]",1.0,3.0,0.3245730400085449,1.7496299743652344,0.41994930989031204,82.0,825.0,0.0
G,D,"[5, 9]",0.0,3.0,0.35553407669067383,1.6713688373565674,0.30818343816305516,82.0,826.0,0.0
B,L,"[5, 8]",0.0,3.0,0.5498740673065186,2.021735906600952,0.4797189647328274,82.0,827.0,0.0
Y,R,"[5, 9]",0.0,3.0,0.571666955947876,1.9754970073699951,0.4052413884688708,82.0,828.0,0.0
G,D,"[6, 9]",1.0,4.0,0.42682409286499023,2.006891965866089,0.5786530395993537,82.0,829.0,0.0
R,U,"[5, 9]",0.0,4.0,0.22214889526367188,1.722904920578003,0.484916427314899,82.0,830.0,0.0
,,"(6, 6)",,,,,,,,
R,U,"[5, 6]",1.0,1.0,0.442533016204834,4.412099838256836,0.6470187713331527,83.0,831.0,0.0
Y,R,"[5, 7]",1.0,2.0,0.2040419578552246,1.719559907913208,0.5165289230423735,83.0,832.0,0.0
Y,R,"[5, 8]",1.0,3.0,0.3302929401397705,1.8787670135498047,0.5451635375219188,83.0,833.0,0.0
G,D,"[6, 8]",1.0,4.0,0.4121830463409424,2.0253469944000244,0.6038626923867059,83.0,834.0,0.0
B,L,"[6, 7]",0.0,4.0,0.37618112564086914,1.9179730415344238,0.53856123155466,83.0,835.0,0.0
Y,R,"[6, 8]",0.0,4.0,0.377377986907959,2.096437931060791,0.7180175513389626,83.0,836.0,0.0
G,D,"[7, 8]",0.0,4.0,0.23394107818603516,1.833503007888794,0.6017227933867966,83.0,837.0,0.0
B,L,"[7, 7]",0.0,4.0,0.25328993797302246,1.5116839408874512,0.2637193562137063,83.0,838.0,0.0
R,U,"[6, 7]",0.0,4.0,0.9453489780426025,2.2363760471343994,0.2834130459381971,83.0,839.0,0.0
R,U,"[5, 7]",0.0,4.0,0.41601109504699707,1.9098470211029053,0.49302692627245304,83.0,840.0,0.0
,,"(6, 6)",,,,,,,,
R,U,"[5, 6]",1.0,1.0,0.3543829917907715,2.455988883972168,0.282484762686753,84.0,841.0,0.0
Y,R,"[5, 7]",1.0,2.0,0.3022611141204834,1.721458911895752,0.4204263388093968,84.0,842.0,0.0
Y,R,"[5, 8]",1.0,3.0,0.3608889579772949,1.7210049629211426,0.35817945849045474,84.0,843.0,0.0
Y,R,"[5, 9]",0.0,3.0,0.822929859161377,2.1094470024108887,0.28436962963784573,84.0,844.0,0.0
G,D,"[6, 9]",1.0,4.0,0.3262660503387451,1.7837719917297363,0.45118893087688866,84.0,845.0,0.0
B,L,"[6, 8]",1.0,5.0,0.2399308681488037,1.9560930728912354,0.7071363479058066,84.0,846.0,0.0
Y,R,"[6, 9]",0.0,5.0,0.19787907600402832,1.4451258182525635,0.25256543868846,84.0,847.0,0.0
G,D,"[7, 9]",-2.0,5.0,1.0489048957824707,2.6887259483337402,0.6743024410333511,84.0,848.0,0.0
G,D,"[8, 9]",0.0,5.0,0.23055815696716309,1.6460249423980713,0.4205662444935969,84.0,849.0,0.0
R,U,"[7, 9]",0.0,5.0,0.34151577949523926,2.0907938480377197,0.7445179234996334,84.0,850.0,0.0
,,"(6, 6)",,,,,,,,
R,U,"[5, 6]",1.0,1.0,0.2978649139404297,3.764116048812866,0.6087556821367455,85.0,851.0,0.0
Y,R,"[5, 7]",1.0,2.0,0.2895960807800293,1.8210608959197998,0.5463678147939515,85.0,852.0,0.0
R,U,"[4, 7]",0.0,2.0,0.30515503883361816,1.9761478900909424,0.6723850395271838,85.0,853.0,0.0
Y,R,"[4, 8]",0.0,2.0,0.16339111328125,1.6441588401794434,0.483367446007502,85.0,854.0,0.0
G,D,"[5, 8]",1.0,3.0,0.2275679111480713,1.982347011566162,0.7487577104618358,85.0,855.0,0.0
B,L,"[5, 7]",0.0,3.0,0.28116512298583984,1.5432920455932617,0.25919632919833446,85.0,856.0,0.0
R,U,"[4, 7]",0.0,3.0,0.44883298873901367,1.8621220588684082,0.42113696640385856,85.0,857.0,0.0
Y,R,"[4, 8]",0.0,3.0,0.40518784523010254,1.9363470077514648,0.5405529611252788,85.0,858.0,0.0
R,U,"[3, 8]",0.0,3.0,0.2957749366760254,1.81839919090271,0.5257069523653408,85.0,859.0,0.0
R,U,"[2, 8]",0.0,3.0,0.21106815338134766,1.8976891040802002,0.6902609677298627,85.0,860.0,0.0
,,"(6, 6)",,,,,,,,
R,U,"[5, 6]",1.0,1.0,0.5691771507263184,3.8560380935668945,0.4795534826941658,86.0,861.0,0.0
Y,R,"[5, 7]",1.0,2.0,0.2315220832824707,1.8125391006469727,0.5751497721487233,86.0,862.0,0.0
Y,R,"[5, 8]",1.0,3.0,0.1913161277770996,1.895064115524292,0.7034557179911236,86.0,863.0,0.0
B,L,"[5, 7]",0.0,3.0,0.24532413482666016,1.5050170421600342,0.258824561296534,86.0,864.0,0.0
G,D,"[6, 7]",0.0,3.0,0.29931092262268066,1.6334338188171387,0.3422873132162821,86.0,865.0,0.0
B,L,"[6, 6]",0.0,3.0,0.2690119743347168,1.88742995262146,0.6293408944723606,86.0,866.0,0.0
Y,R,"[6, 7]",-1.0,3.0,0.033551931381225586,5.442914009094238,0.3391575941143459,86.0,867.0,0.0
Y,R,"[6, 8]",-1.0,3.0,0.0019989013671875,5.6161839962005615,0.555089237417449,86.0,868.0,0.0
Y,R,"[6, 9]",-1.0,3.0,0.03924703598022461,5.365002870559692,0.27025761484855526,86.0,869.0,0.0
Y,R,"[6, 10]",1.0,4.0,0.33919692039489746,2.0872039794921875,0.7403329687268858,86.0,870.0,0.0
,,"(6, 6)",,,,,,,,
R,U,"[5, 6]",1.0,1.0,0.5758118629455566,3.9374420642852783,0.328196108361893,87.0,871.0,0.0
Y,R,"[5, 7]",1.0,2.0,0.30150794982910156,1.5476322174072266,0.2591136149784971,87.0,872.0,0.0
R,U,"[4, 7]",0.0,2.0,0.3514721393585205,1.7807979583740234,0.4398295839604889,87.0,873.0,0.0
Y,R,"[4, 8]",0.0,2.0,0.18619799613952637,1.8115549087524414,0.6347189594912057,87.0,874.0,0.0
G,D,"[5, 8]",1.0,3.0,0.18743896484375,1.469796895980835,0.2879467445554332,87.0,875.0,0.0
B,L,"[5, 7]",0.0,3.0,0.2596290111541748,1.732146978378296,0.4699537016339889,87.0,876.0,0.0
R,U,"[4, 7]",0.0,3.0,0.2764861583709717,1.7124061584472656,0.4323611655949934,87.0,877.0,0.0
R,U,"[3, 7]",0.0,3.0,0.21994304656982422,1.888261079788208,0.6702915576283438,87.0,878.0,0.0
Y,R,"[3, 8]",-1.0,3.0,0.08051180839538574,5.455819129943848,0.30977335420971763,87.0,879.0,0.0
Y,R,"[3, 9]",1.0,4.0,0.30840587615966797,2.021613121032715,0.714332359580417,87.0,880.0,0.0
,,"(6, 6)",,,,,,,,
R,U,"[5, 6]",1.0,1.0,0.7220039367675781,4.55103611946106,0.48214470543354726,88.0,881.0,0.0
Y,R,"[5, 7]",1.0,2.0,0.24300098419189453,1.8314540386199951,0.5801345840415674,88.0,882.0,0.0
Y,R,"[5, 8]",1.0,3.0,0.5486509799957275,2.24285888671875,0.6896257896522628,88.0,883.0,0.0
G,D,"[6, 8]",1.0,4.0,0.2512810230255127,1.7577760219573975,0.5143930111291974,88.0,884.0,0.0
B,L,"[6, 7]",0.0,4.0,0.24695587158203125,1.5751900672912598,0.32291839291727753,88.0,885.0,0.0
Y,R,"[6, 8]",0.0,4.0,0.3028910160064697,1.9307501316070557,0.6367284231853972,88.0,886.0,0.0
R,U,"[5, 8]",0.0,4.0,0.24754905700683594,1.9853379726409912,0.7385229259660304,88.0,887.0,0.0
R,U,"[4, 8]",0.0,4.0,0.20731091499328613,1.8485839366912842,0.637275093948608,88.0,888.0,0.0
G,D,"[5, 8]",0.0,4.0,0.21319103240966797,1.6347641944885254,0.4222139603321052,88.0,889.0,0.0
Y,R,"[5, 9]",0.0,4.0,0.2538931369781494,1.9688959121704102,0.7241086804006696,88.0,890.0,0.0
,,"(6, 6)",,,,,,,,
R,U,"[5, 6]",1.0,1.0,0.3594241142272949,3.4846179485321045,0.6920798623879472,89.0,891.0,0.0
Y,R,"[5, 7]",1.0,2.0,0.3028590679168701,1.7105519771575928,0.4195463162315952,89.0,892.0,0.0
Y,R,"[5, 8]",1.0,3.0,0.2544212341308594,1.9618070125579834,0.6977621923467645,89.0,893.0,0.0
G,D,"[6, 8]",1.0,4.0,0.47550296783447266,2.056771993637085,0.571258410009923,89.0,894.0,0.0
Y,R,"[6, 9]",1.0,5.0,0.399090051651001,1.8376121520996094,0.4422387518855795,89.0,895.0,0.0
B,L,"[6, 8]",0.0,5.0,0.39931201934814453,1.6776049137115479,0.28668050928225,89.0,896.0,0.0
R,U,"[5, 8]",0.0,5.0,0.3308260440826416,1.801469087600708,0.4713724621349111,89.0,897.0,0.0
Y,R,"[5, 9]",0.0,5.0,0.25247693061828613,1.6880319118499756,0.44273148977971055,89.0,898.0,0.0
G,D,"[6, 9]",0.0,5.0,0.25646114349365234,1.9548919200897217,0.6973705142458717,89.0,899.0,0.0
R,U,"[5, 9]",0.0,5.0,0.3767518997192383,1.8029088973999023,0.4172245065315945,89.0,900.0,0.0
,,"(6, 6)",,,,,,,,
R,U,"[5, 6]",1.0,1.0,0.33432698249816895,3.1410279273986816,0.7078072848278278,90.0,901.0,0.0
Y,R,"[5, 7]",1.0,2.0,0.3963899612426758,1.8664939403533936,0.4746003407929773,90.0,902.0,0.0
Y,R,"[5, 8]",1.0,3.0,0.4337751865386963,1.740473985671997,0.3152495182780716,90.0,903.0,0.0
G,D,"[6, 8]",1.0,4.0,0.4717068672180176,1.9820449352264404,0.5137530436551689,90.0,904.0,0.0
Y,R,"[6, 9]",1.0,5.0,0.3322780132293701,1.8815808296203613,0.5452732486840057,90.0,905.0,0.0
B,L,"[6, 8]",0.0,5.0,0.24040889739990234,1.7563838958740234,0.5015553570646651,90.0,906.0,0.0
R,U,"[5, 8]",0.0,5.0,0.17903685569763184,1.6882460117340088,0.5065526838798078,90.0,907.0,0.0
R,U,"[4, 8]",0.0,5.0,0.23176097869873047,1.6086831092834473,0.3820647806678492,90.0,908.0,0.0
R,U,"[3, 8]",0.0,5.0,0.6489231586456299,1.9176149368286133,0.26629985287290786,90.0,909.0,0.0
Y,R,"[3, 9]",1.0,6.0,0.7113430500030518,2.0667059421539307,0.34970050071934017,90.0,910.0,0.0
,,"(6, 6)",,,,,,,,
R,U,"[5, 6]",1.0,1.0,0.4003639221191406,3.6993019580841064,0.6153247665927746,91.0,911.0,0.0
Y,R,"[5, 7]",1.0,2.0,0.3178739547729492,1.587893009185791,0.27025741505714185,91.0,912.0,0.0
Y,R,"[5, 8]",1.0,3.0,0.5282430648803711,1.807682991027832,0.27785195396936585,91.0,913.0,0.0
G,D,"[6, 8]",1.0,4.0,0.46326184272766113,1.838667869567871,0.3830895556782111,91.0,914.0,0.0
Y,R,"[6, 9]",1.0,5.0,0.2772212028503418,1.7721381187438965,0.48844979896920493,91.0,915.0,0.0
R,U,"[5, 9]",0.0,5.0,0.3215470314025879,1.9559979438781738,0.6276200341698045,91.0,916.0,0.0
B,L,"[5, 8]",0.0,5.0,0.279526948928833,1.8529469966888428,0.5805246209384467,91.0,917.0,0.0
R,U,"[4, 8]",0.0,5.0,0.6120588779449463,1.8894920349121094,0.27044551999426913,91.0,918.0,0.0
G,D,"[5, 8]",0.0,5.0,0.280505895614624,1.7239720821380615,0.44422660887604054,91.0,919.0,0.0
Y,R,"[5, 9]",0.0,5.0,0.43984198570251465,2.0430591106414795,0.6037246946928942,91.0,920.0,0.0
,,"(6, 6)",,,,,,,,
R,U,"[5, 6]",1.0,1.0,0.36499691009521484,3.324187994003296,0.7278105987090971,92.0,921.0,0.0
Y,R,"[5, 7]",1.0,2.0,0.4151499271392822,1.8611209392547607,0.4558380494595982,92.0,922.0,0.0
Y,R,"[5, 8]",1.0,3.0,0.7073929309844971,2.0896270275115967,0.37875485575729256,92.0,923.0,0.0
G,D,"[6, 8]",1.0,4.0,0.5515871047973633,1.9095559120178223,0.3551084122444196,92.0,924.0,0.0
Y,R,"[6, 9]",1.0,5.0,0.3933849334716797,2.0798909664154053,0.6846566974984274,92.0,925.0,0.0
R,U,"[5, 9]",0.0,5.0,0.2190990447998047,1.5188441276550293,0.30385967063461927,92.0,926.0,0.0
B,L,"[5, 8]",0.0,5.0,0.4401111602783203,1.813283920288086,0.38360583291014355,92.0,927.0,0.0
Y,R,"[5, 9]",0.0,5.0,0.2937910556793213,1.8043739795684814,0.5046315558147538,92.0,928.0,0.0
Y,R,"[5, 10]",1.0,6.0,0.21544790267944336,1.4670381546020508,0.255091505803636,92.0,929.0,0.0
G,D,"[6, 10]",1.0,7.0,0.6050410270690918,2.1371419429779053,0.5253821275844064,92.0,930.0,0.0
,,"(6, 6)",,,,,,,,
R,U,"[5, 6]",1.0,1.0,0.43657898902893066,4.17287802696228,0.681454631760228,93.0,931.0,0.0
Y,R,"[5, 7]",1.0,2.0,0.24933910369873047,1.7745280265808105,0.522730309598764,93.0,932.0,0.0
Y,R,"[5, 8]",1.0,3.0,0.26369595527648926,1.9980189800262451,0.7374574479992371,93.0,933.0,0.0
G,D,"[6, 8]",1.0,4.0,0.303663969039917,1.6976139545440674,0.4017767375021349,93.0,934.0,0.0
Y,R,"[6, 9]",1.0,5.0,0.5076680183410645,1.923353910446167,0.40837412149578395,93.0,935.0,0.0
B,L,"[6, 8]",0.0,5.0,0.31302499771118164,1.7818639278411865,0.47358717158788494,93.0,936.0,0.0
B,L,"[6, 7]",0.0,5.0,0.28058791160583496,1.9522461891174316,0.6755990775550537,93.0,937.0,0.0
Y,R,"[6, 8]",0.0,5.0,0.3445870876312256,2.007657051086426,0.6665673332512351,93.0,938.0,0.0
Y,R,"[6, 9]",0.0,5.0,0.25590014457702637,1.787233829498291,0.5372327366540393,93.0,939.0,0.0
R,U,"[5, 9]",0.0,5.0,0.2641630172729492,1.9436290264129639,0.6807424111235234,93.0,940.0,0.0
,,"(6, 6)",,,,,,,,
R,U,"[5, 6]",1.0,1.0,0.42069005966186523,3.2641360759735107,0.36179529450037734,94.0,941.0,0.0
Y,R,"[5, 7]",1.0,2.0,0.40856289863586426,1.8773210048675537,0.47234409010858225,94.0,942.0,0.0
Y,R,"[5, 8]",1.0,3.0,0.6002280712127686,2.076432943344116,0.48200814469298964,94.0,943.0,0.0
G,D,"[6, 8]",1.0,4.0,0.32689785957336426,1.732391119003296,0.39788170728535915,94.0,944.0,0.0
Y,R,"[6, 9]",1.0,5.0,0.395550012588501,1.9318649768829346,0.5295221578034893,94.0,945.0,0.0
Y,R,"[6, 10]",1.0,6.0,0.5300750732421875,2.0932910442352295,0.556060378615411,94.0,946.0,0.0
R,U,"[5, 10]",1.0,7.0,0.2857539653778076,2.015638828277588,0.7382654537057313,94.0,947.0,0.0
G,D,"[6, 10]",0.0,7.0,0.2051689624786377,1.614745855331421,0.4033500785534321,94.0,948.0,0.0
Y,R,"[6, 11]",0.0,7.0,0.41047096252441406,1.9132030010223389,0.4997444707423902,94.0,949.0,0.0
B,L,"[6, 10]",0.0,7.0,0.2597670555114746,1.9063160419464111,0.6392527622142045,94.0,950.0,0.0
,,"(6, 6)",,,,,,,,
R,U,"[5, 6]",1.0,1.0,0.3089120388031006,3.9059739112854004,0.7116881988938397,95.0,951.0,0.0
Y,R,"[5, 7]",1.0,2.0,0.23228907585144043,1.9199671745300293,0.6816619874641554,95.0,952.0,0.0
Y,R,"[5, 8]",1.0,3.0,0.27468395233154297,1.5505621433258057,0.26605917279808566,95.0,953.0,0.0
G,D,"[6, 8]",1.0,4.0,0.5673930644989014,2.219170093536377,0.6514518967422733,95.0,954.0,0.0
Y,R,"[6, 9]",1.0,5.0,0.1197049617767334,1.4494271278381348,0.33455741541015327,95.0,955.0,0.0
Y,R,"[6, 10]",1.0,6.0,0.3006761074066162,1.6492741107940674,0.3504733581241528,95.0,956.0,0.0
R,U,"[5, 10]",1.0,7.0,0.34755992889404297,1.7717580795288086,0.42216835677235676,95.0,957.0,0.0
B,L,"[5, 9]",0.0,7.0,0.3460719585418701,1.9726958274841309,0.628003955745768,95.0,958.0,0.0
B,L,"[5, 8]",0.0,7.0,0.3923180103302002,1.9096848964691162,0.5210472522650894,95.0,959.0,0.0
B,L,"[5, 7]",0.0,7.0,0.2704660892486572,1.9665160179138184,0.7041135382414823,95.0,960.0,0.0
,,"(6, 6)",,,,,,,,
R,U,"[5, 6]",1.0,1.0,0.4212360382080078,3.5873119831085205,0.6913349291168055,96.0,961.0,0.0
Y,R,"[5, 7]",1.0,2.0,0.27955198287963867,1.822746992111206,0.5475871916648487,96.0,962.0,0.0
Y,R,"[5, 8]",1.0,3.0,0.42029404640197754,1.8082759380340576,0.38920122481169983,96.0,963.0,0.0
G,D,"[6, 8]",1.0,4.0,0.30123114585876465,1.602997064590454,0.3090308091477662,96.0,964.0,0.0
Y,R,"[6, 9]",1.0,5.0,0.43927717208862305,1.7826271057128906,0.34166468841796405,96.0,965.0,0.0
Y,R,"[6, 10]",1.0,6.0,0.5249710083007812,2.0399739742279053,0.5149776674869018,96.0,966.0,0.0
R,U,"[5, 10]",1.0,7.0,0.30487585067749023,1.5807170867919922,0.2623475627592517,96.0,967.0,0.0
R,U,"[4, 10]",1.0,8.0,0.3754849433898926,1.7730469703674316,0.3852706414839453,96.0,968.0,0.0
B,L,"[4, 9]",1.0,9.0,0.4578249454498291,1.89296293258667,0.4280396667716344,96.0,969.0,0.0
G,D,"[5, 9]",0.0,9.0,0.3966681957244873,2.0263400077819824,0.63764980850919,96.0,970.0,0.0
,,"(6, 6)",,,,,,,,
R,U,"[5, 6]",1.0,1.0,0.4695248603820801,4.242560148239136,0.6634655962873669,97.0,971.0,0.0
Y,R,"[5, 7]",1.0,2.0,0.17212986946105957,1.4403908252716064,0.2542628795493787,97.0,972.0,0.0
Y,R,"[5, 8]",1.0,3.0,0.4248208999633789,2.0365149974823,0.6070495965504343,97.0,973.0,0.0
G,D,"[6, 8]",1.0,4.0,0.5306768417358398,2.1066269874572754,0.5803388713744814,97.0,974.0,0.0
Y,R,"[6, 9]",1.0,5.0,0.20397377014160156,1.5408987998962402,0.33811832890732624,97.0,975.0,0.0
Y,R,"[6, 10]",1.0,6.0,0.308042049407959,1.5976300239562988,0.2856878829358834,97.0,976.0,0.0
R,U,"[5, 10]",1.0,7.0,0.29345202445983887,1.9410650730133057,0.6431413777754297,97.0,977.0,0.0
R,U,"[4, 10]",1.0,8.0,0.3040430545806885,1.8000450134277344,0.5098822991568227,97.0,978.0,0.0
G,D,"[5, 10]",0.0,8.0,0.3020501136779785,2.0058069229125977,0.7155824776039945,97.0,979.0,0.0
B,L,"[5, 9]",0.0,8.0,0.3733539581298828,1.8688111305236816,0.48452430711797845,97.0,980.0,0.0
,,"(6, 6)",,,,,,,,
R,U,"[5, 6]",1.0,1.0,0.5153751373291016,11.314534902572632,0.6323765985730458,98.0,981.0,0.0
Y,R,"[5, 7]",1.0,2.0,0.2884671688079834,1.7340500354766846,0.44982170125961496,98.0,982.0,0.0
Y,R,"[5, 8]",1.0,3.0,0.2766449451446533,1.7359561920166016,0.45237243999424603,98.0,983.0,0.0
G,D,"[6, 8]",1.0,4.0,0.23424792289733887,1.8555209636688232,0.6243499974134086,98.0,984.0,0.0
Y,R,"[6, 9]",1.0,5.0,0.39826011657714844,1.9240589141845703,0.5318311893428961,98.0,985.0,0.0
Y,R,"[6, 10]",1.0,6.0,0.24595117568969727,1.7284519672393799,0.47692651882333714,98.0,986.0,0.0
R,U,"[5, 10]",1.0,7.0,0.25617098808288574,1.8344449996948242,0.5946477112408057,98.0,987.0,0.0
R,U,"[4, 10]",1.0,8.0,0.34987592697143555,1.6690099239349365,0.33047523615313285,98.0,988.0,0.0
B,L,"[4, 9]",1.0,9.0,0.40860605239868164,1.9314618110656738,0.5118637055900841,98.0,989.0,0.0
G,D,"[5, 9]",0.0,9.0,0.9855341911315918,2.6767220497131348,0.6883476915543465,98.0,990.0,0.0
,,"(6, 6)",,,,,,,,
R,U,"[5, 6]",1.0,1.0,0.34014296531677246,3.8797640800476074,0.5012700482050494,99.0,991.0,0.0
Y,R,"[5, 7]",1.0,2.0,0.4031968116760254,1.9073481559753418,0.5085459823220269,99.0,992.0,0.0
Y,R,"[5, 8]",1.0,3.0,0.455826997756958,2.0007271766662598,0.5422840421551868,99.0,993.0,0.0
G,D,"[6, 8]",1.0,4.0,0.46718907356262207,1.9230530261993408,0.46537336915520255,99.0,994.0,0.0
Y,R,"[6, 9]",1.0,5.0,0.5518310070037842,2.053109884262085,0.5015886961288346,99.0,995.0,0.0
Y,R,"[6, 10]",1.0,6.0,0.46015310287475586,1.7595949172973633,0.29451870445849715,99.0,996.0,0.0
R,U,"[5, 10]",1.0,7.0,0.5688080787658691,2.2107038497924805,0.654833359890184,99.0,997.0,0.0
R,U,"[4, 10]",1.0,8.0,0.4101979732513428,2.041137933731079,0.6291436513306956,99.0,998.0,0.0
B,L,"[4, 9]",1.0,9.0,0.3960399627685547,2.0226359367370605,0.6182796636550731,99.0,999.0,0.0
R,U,"[3, 9]",1.0,10.0,0.2845020294189453,1.789853811264038,0.5081176412292107,99.0,1000.0,0.0
