button_choice,action_choice,coordinate_choice,reward,cumulative_reward,rt,total_trial_time,iti,block_n,trial_n,trial_type
R,U,"[5, 6]",1.0,1.0,0.70166015625,2.45491099357605,0.7388882907156382,0.0,1.0,0.0
Y,R,"[5, 7]",1.0,2.0,0.24165701866149902,1.543962001800537,0.2999196506527578,0.0,2.0,0.0
Y,R,"[5, 8]",1.0,3.0,0.3156859874725342,1.7380239963531494,0.4211560202526939,0.0,3.0,0.0
R,U,"[4, 8]",0.0,3.0,0.25531792640686035,1.7508199214935303,0.4885256470788686,0.0,4.0,0.0
R,U,"[3, 8]",0.0,3.0,0.1732480525970459,1.7572228908538818,0.5789187820567172,0.0,5.0,0.0
B,L,"[3, 7]",0.0,3.0,0.17462992668151855,1.6511139869689941,0.463523160597021,0.0,6.0,0.0
G,D,"[4, 7]",0.0,3.0,0.17160296440124512,1.5654590129852295,0.3955794656206557,0.0,7.0,0.0
R,U,"[3, 7]",0.0,3.0,0.16401290893554688,1.5009119510650635,0.32998395630624766,0.0,8.0,0.0
B,L,"[3, 6]",0.0,3.0,0.20290684700012207,1.7313978672027588,0.5277024488152842,0.0,9.0,0.0
G,D,"[4, 6]",0.0,3.0,0.8225841522216797,2.5124740600585938,0.689982487249819,0.0,10.0,0.0
,,"(6, 6)",,,,,,,,
R,U,"[5, 6]",1.0,1.0,0.44777703285217285,3.209589958190918,0.43311072023196334,1.0,11.0,0.0
Y,R,"[5, 7]",1.0,2.0,0.26889705657958984,1.7409510612487793,0.47410968650062824,1.0,12.0,0.0
Y,R,"[5, 8]",1.0,3.0,0.24254488945007324,1.5972890853881836,0.3546443620760109,1.0,13.0,0.0
G,D,"[6, 8]",1.0,4.0,0.32019996643066406,1.9132030010223389,0.6010728601055702,1.0,14.0,0.0
Y,R,"[6, 9]",1.0,5.0,0.27980589866638184,1.7758140563964844,0.493502826696956,1.0,15.0,0.0
R,U,"[5, 9]",0.0,5.0,0.16511106491088867,1.5518319606781006,0.3956849458463698,1.0,16.0,0.0
R,U,"[4, 9]",1.0,6.0,0.2944660186767578,1.7811110019683838,0.4764606220983707,1.0,17.0,0.0
B,L,"[4, 8]",0.0,6.0,0.3737800121307373,1.64847993850708,0.27520189152498026,1.0,18.0,0.0
R,U,"[3, 8]",0.0,6.0,0.276810884475708,1.7266628742218018,0.45162305579232226,1.0,19.0,0.0
Y,R,"[3, 9]",1.0,7.0,0.3584320545196533,1.6902008056640625,0.32519428823529706,1.0,20.0,0.0
,,"(6, 6)",,,,,,,,
R,U,"[5, 6]",1.0,1.0,0.7465720176696777,3.72597599029541,0.5675736901703065,2.0,21.0,0.0
Y,R,"[5, 7]",1.0,2.0,0.18973088264465332,1.905306100845337,0.7060713889367867,2.0,22.0,0.0
Y,R,"[5, 8]",1.0,3.0,0.15677499771118164,1.434135913848877,0.27395698940557656,2.0,23.0,0.0
G,D,"[6, 8]",1.0,4.0,0.4814300537109375,1.9951539039611816,0.5186948782241476,2.0,24.0,0.0
Y,R,"[6, 9]",1.0,5.0,0.1685030460357666,1.4689559936523438,0.30452405631775303,2.0,25.0,0.0
Y,R,"[6, 10]",1.0,6.0,0.2316300868988037,1.481576919555664,0.25291594661824135,2.0,26.0,0.0
R,U,"[5, 10]",1.0,7.0,0.21039104461669922,1.8761811256408691,0.661864667557643,2.0,27.0,0.0
R,U,"[4, 10]",-1.0,7.0,0.00747990608215332,5.345372915267944,0.27432439176314527,2.0,28.0,0.0
B,L,"[4, 9]",1.0,8.0,0.4686729907989502,2.141711950302124,0.6821793828698905,2.0,29.0,0.0
Y,R,"[4, 10]",0.0,8.0,0.27065205574035645,1.8789310455322266,0.6111199881795818,2.0,30.0,0.0
,,"(6, 6)",,,,,,,,
R,U,"[5, 6]",1.0,1.0,0.6858749389648438,3.343663215637207,0.40505559154263093,3.0,31.0,0.0
Y,R,"[5, 7]",1.0,2.0,0.2809269428253174,1.9046099185943604,0.6259826451419657,3.0,32.0,0.0
Y,R,"[5, 8]",1.0,3.0,0.31491994857788086,1.94865083694458,0.6414099085615373,3.0,33.0,0.0
G,D,"[6, 8]",1.0,4.0,0.26894688606262207,1.6604158878326416,0.40195230957323425,3.0,34.0,0.0
Y,R,"[6, 9]",1.0,5.0,0.21423697471618652,1.8825008869171143,0.6674953197800617,3.0,35.0,0.0
Y,R,"[6, 10]",1.0,6.0,0.21288394927978516,1.812295913696289,0.5964692426380429,3.0,36.0,0.0
R,U,"[5, 10]",1.0,7.0,0.18926382064819336,1.613893985748291,0.41054266351435564,3.0,37.0,0.0
R,U,"[4, 10]",1.0,8.0,0.467318058013916,2.1326730251312256,0.6762413394440518,3.0,38.0,0.0
B,L,"[4, 9]",1.0,9.0,0.2838480472564697,1.6609389781951904,0.3874125435023064,3.0,39.0,0.0
Y,R,"[4, 10]",0.0,9.0,0.32820892333984375,1.9397850036621094,0.6102949209053111,3.0,40.0,0.0
,,"(6, 6)",,,,,,,,
R,U,"[5, 6]",1.0,1.0,0.6020078659057617,3.8360238075256348,0.6295241275546237,4.0,41.0,0.0
Y,R,"[5, 7]",1.0,2.0,0.2407839298248291,1.5977990627288818,0.3442600916826111,4.0,42.0,0.0
Y,R,"[5, 8]",1.0,3.0,0.30145883560180664,1.5672950744628906,0.278355812146043,4.0,43.0,0.0
G,D,"[6, 8]",1.0,4.0,0.2747669219970703,1.6930420398712158,0.4211845488180735,4.0,44.0,0.0
Y,R,"[6, 9]",1.0,5.0,0.2057020664215088,1.6773560047149658,0.4650345650203478,4.0,45.0,0.0
Y,R,"[6, 10]",1.0,6.0,0.25328898429870605,1.8876359462738037,0.6357456062077451,4.0,46.0,0.0
R,U,"[5, 10]",1.0,7.0,0.17810606956481934,1.821713924407959,0.6410393286882234,4.0,47.0,0.0
R,U,"[4, 10]",1.0,8.0,0.18159008026123047,1.538996934890747,0.3634722599858787,4.0,48.0,0.0
B,L,"[4, 9]",1.0,9.0,0.2295379638671875,1.531221866607666,0.29463664172409065,4.0,49.0,0.0
Y,R,"[4, 10]",0.0,9.0,0.24781298637390137,1.866184949874878,0.6272549866186516,4.0,50.0,0.0
,,"(6, 6)",,,,,,,,
R,U,"[5, 6]",1.0,1.0,0.5261719226837158,2.832031011581421,0.6258600879604452,5.0,51.0,0.0
Y,R,"[5, 7]",1.0,2.0,0.2228848934173584,1.8743720054626465,0.6500670631031052,5.0,52.0,0.0
Y,R,"[5, 8]",1.0,3.0,0.31145381927490234,1.8680601119995117,0.551693664693987,5.0,53.0,0.0
G,D,"[6, 8]",1.0,4.0,0.6038990020751953,2.099429130554199,0.5011099657655578,5.0,54.0,0.0
Y,R,"[6, 9]",1.0,5.0,0.1976151466369629,1.8950769901275635,0.6963380865052281,5.0,55.0,0.0
Y,R,"[6, 10]",1.0,6.0,0.21370387077331543,1.5365900993347168,0.31628518906945974,5.0,56.0,0.0
R,U,"[5, 10]",1.0,7.0,0.3104209899902344,1.6723380088806152,0.35521358979550677,5.0,57.0,0.0
R,U,"[4, 10]",1.0,8.0,0.21962499618530273,1.6839649677276611,0.4722355570616457,5.0,58.0,0.0
B,L,"[4, 9]",1.0,9.0,0.27632999420166016,1.9758648872375488,0.6979199598843335,5.0,59.0,0.0
B,L,"[4, 8]",0.0,9.0,0.2000281810760498,1.8694918155670166,0.6674337966317327,5.0,60.0,0.0
,,"(6, 6)",,,,,,,,
R,U,"[5, 6]",1.0,1.0,0.5268731117248535,2.4378230571746826,0.27218102566336616,6.0,61.0,0.0
Y,R,"[5, 7]",1.0,2.0,0.21500110626220703,1.8810980319976807,0.6695020186914633,6.0,62.0,0.0
Y,R,"[5, 8]",1.0,3.0,0.22493910789489746,1.7072391510009766,0.4772480418605011,6.0,63.0,0.0
G,D,"[6, 8]",1.0,4.0,0.1967170238494873,1.5063560009002686,0.31686514596154575,6.0,64.0,0.0
Y,R,"[6, 9]",1.0,5.0,0.21495509147644043,1.7966279983520508,0.5797354373018884,6.0,65.0,0.0
Y,R,"[6, 10]",1.0,6.0,0.1848452091217041,1.9209480285644531,0.7338810113291254,6.0,66.0,0.0
R,U,"[5, 10]",1.0,7.0,0.20618796348571777,1.9396541118621826,0.7235431794392234,6.0,67.0,0.0
R,U,"[4, 10]",1.0,8.0,0.20783305168151855,1.6652989387512207,0.45577545869896785,6.0,68.0,0.0
B,L,"[4, 9]",1.0,9.0,0.21114492416381836,1.593299150466919,0.38249670268773833,6.0,69.0,0.0
G,D,"[5, 9]",0.0,9.0,0.20916104316711426,1.7799839973449707,0.5624580675188917,6.0,70.0,0.0
,,"(6, 6)",,,,,,,,
R,U,"[5, 6]",1.0,1.0,0.4878499507904053,3.193260908126831,0.6552756676452158,7.0,71.0,0.0
Y,R,"[5, 7]",1.0,2.0,0.1903688907623291,1.657560110092163,0.46307867687671445,7.0,72.0,0.0
Y,R,"[5, 8]",1.0,3.0,0.21275997161865234,1.5328822135925293,0.31271387854041405,7.0,73.0,0.0
G,D,"[6, 8]",1.0,4.0,0.23051810264587402,1.5248589515686035,0.2875652230857398,7.0,74.0,0.0
Y,R,"[6, 9]",1.0,5.0,0.1697709560394287,1.5710868835449219,0.40842297093605795,7.0,75.0,0.0
Y,R,"[6, 10]",1.0,6.0,0.1951138973236084,1.876060962677002,0.6842597086341914,7.0,76.0,0.0
R,U,"[5, 10]",1.0,7.0,0.15868020057678223,1.8498120307922363,0.6839587553018514,7.0,77.0,0.0
R,U,"[4, 10]",1.0,8.0,0.1709139347076416,1.9093880653381348,0.7432544461017059,7.0,78.0,0.0
B,L,"[4, 9]",1.0,9.0,0.19867420196533203,1.699902057647705,0.5101750106595357,7.0,79.0,0.0
R,U,"[3, 9]",1.0,10.0,0.22367095947265625,1.5160768032073975,0.2930541888932586,7.0,80.0,0.0
,,"(6, 6)",,,,,,,,
R,U,"[5, 6]",1.0,1.0,0.5532350540161133,2.3977348804473877,0.3572535136906491,8.0,81.0,0.0
Y,R,"[5, 7]",1.0,2.0,0.18103885650634766,1.7677710056304932,0.5915133909564383,8.0,82.0,0.0
Y,R,"[5, 8]",1.0,3.0,0.24730896949768066,1.9629740715026855,0.7210275229515758,8.0,83.0,0.0
G,D,"[6, 8]",1.0,4.0,0.17233705520629883,1.5565509796142578,0.37783335164107495,8.0,84.0,0.0
Y,R,"[6, 9]",1.0,5.0,0.17965006828308105,1.6653730869293213,0.49312221759077585,8.0,85.0,0.0
Y,R,"[6, 10]",1.0,6.0,0.30933189392089844,1.7087550163269043,0.4018584162228859,8.0,86.0,0.0
R,U,"[5, 10]",1.0,7.0,0.20222687721252441,1.5083990097045898,0.31032471005123485,8.0,87.0,0.0
R,U,"[4, 10]",1.0,8.0,0.23125910758972168,1.7184569835662842,0.4953041334605037,8.0,88.0,0.0
B,L,"[4, 9]",1.0,9.0,0.1811060905456543,1.8282430171966553,0.6567023798981677,8.0,89.0,0.0
R,U,"[3, 9]",1.0,10.0,0.16323590278625488,1.645198106765747,0.48535354968300043,8.0,90.0,0.0
,,"(6, 6)",,,,,,,,
R,U,"[5, 6]",1.0,1.0,0.5095322132110596,2.7221641540527344,0.2743609740452097,9.0,91.0,0.0
Y,R,"[5, 7]",1.0,2.0,0.21750521659851074,1.7311761379241943,0.5219526330932236,9.0,92.0,0.0
Y,R,"[5, 8]",1.0,3.0,0.1992020606994629,1.6125009059906006,0.4178372784283088,9.0,93.0,0.0
G,D,"[6, 8]",1.0,4.0,0.7507009506225586,2.068418025970459,0.3196708200473028,9.0,94.0,0.0
Y,R,"[6, 9]",1.0,5.0,0.16012883186340332,1.8436741828918457,0.679628728569897,9.0,95.0,0.0
Y,R,"[6, 10]",1.0,6.0,0.19984817504882812,1.8829140663146973,0.6791704449576565,9.0,96.0,0.0
R,U,"[5, 10]",1.0,7.0,0.2176198959350586,1.7795491218566895,0.5586964023290666,9.0,97.0,0.0
R,U,"[4, 10]",1.0,8.0,0.5461771488189697,2.15317702293396,0.61194435048465,9.0,98.0,0.0
B,L,"[4, 9]",1.0,9.0,0.2071552276611328,1.708143949508667,0.4869277604805834,9.0,99.0,0.0
R,U,"[3, 9]",1.0,10.0,0.1971268653869629,1.6213078498840332,0.42468614893306006,9.0,100.0,0.0
,,"(6, 6)",,,,,,,,
R,U,"[5, 6]",1.0,1.0,0.40436601638793945,2.621212959289551,0.4958237193496189,10.0,101.0,0.0
Y,R,"[5, 7]",1.0,2.0,0.16704678535461426,1.4802570343017578,0.3095422829322295,10.0,102.0,0.0
Y,R,"[5, 8]",1.0,3.0,0.19443011283874512,1.4789109230041504,0.2885224209911464,10.0,103.0,0.0
G,D,"[6, 8]",1.0,4.0,0.21511197090148926,1.738598108291626,0.5268802129830683,10.0,104.0,0.0
Y,R,"[6, 9]",1.0,5.0,0.1647930145263672,1.5019221305847168,0.34553680894585065,10.0,105.0,0.0
Y,R,"[6, 10]",1.0,6.0,0.18809103965759277,1.6855189800262451,0.48098709135996104,10.0,106.0,0.0
R,U,"[5, 10]",1.0,7.0,0.17186594009399414,1.752068042755127,0.5830862200482788,10.0,107.0,0.0
R,U,"[4, 10]",1.0,8.0,0.15070390701293945,1.5141870975494385,0.3639037255648989,10.0,108.0,0.0
B,L,"[4, 9]",1.0,9.0,0.2079920768737793,1.647463083267212,0.42793714958124074,10.0,109.0,0.0
R,U,"[3, 9]",1.0,10.0,0.22967100143432617,1.616502046585083,0.39451348183276314,10.0,110.0,0.0
,,"(6, 6)",,,,,,,,
R,U,"[5, 6]",1.0,1.0,0.5789840221405029,2.6542508602142334,0.5820705058447395,11.0,111.0,0.0
Y,R,"[5, 7]",1.0,2.0,0.17731285095214844,1.435338020324707,0.2508726631119421,11.0,112.0,0.0
Y,R,"[5, 8]",1.0,3.0,0.17797398567199707,1.911858081817627,0.7288598590778037,11.0,113.0,0.0
G,D,"[6, 8]",1.0,4.0,0.2163081169128418,1.4969429969787598,0.2762782025708048,11.0,114.0,0.0
Y,R,"[6, 9]",1.0,5.0,0.16498899459838867,1.6794230937957764,0.5220088328807164,11.0,115.0,0.0
Y,R,"[6, 10]",1.0,6.0,0.18762588500976562,1.7199161052703857,0.5419456049132301,11.0,116.0,0.0
B,L,"[6, 9]",0.0,6.0,0.1949779987335205,1.8406879901885986,0.6491677367440949,11.0,117.0,0.0
R,U,"[5, 9]",0.0,6.0,0.25195884704589844,1.7989699840545654,0.5482272309391741,11.0,118.0,0.0
B,L,"[5, 8]",0.0,6.0,0.199876070022583,1.906747817993164,0.7047681835440393,11.0,119.0,0.0
R,U,"[4, 8]",0.0,6.0,0.16590499877929688,1.8037059307098389,0.6418350758404926,11.0,120.0,0.0
,,"(6, 6)",,,,,,,,
R,U,"[5, 6]",1.0,1.0,0.5277669429779053,2.818471908569336,0.4937381956445248,12.0,121.0,0.0
Y,R,"[5, 7]",1.0,2.0,0.1653609275817871,1.7914090156555176,0.6349591786055574,12.0,122.0,0.0
Y,R,"[5, 8]",1.0,3.0,0.23620009422302246,1.6258559226989746,0.3943676818019237,12.0,123.0,0.0
G,D,"[6, 8]",1.0,4.0,0.26167893409729004,1.843324899673462,0.587401473167401,12.0,124.0,0.0
Y,R,"[6, 9]",1.0,5.0,0.22949790954589844,1.5392591953277588,0.31029604323560017,12.0,125.0,0.0
Y,R,"[6, 10]",1.0,6.0,0.41623997688293457,2.103282928466797,0.6965147229596403,12.0,126.0,0.0
B,L,"[6, 9]",0.0,6.0,0.5214941501617432,2.0186920166015625,0.48210157223304667,12.0,127.0,0.0
R,U,"[5, 9]",0.0,6.0,0.32694292068481445,1.5977880954742432,0.2633141895801351,12.0,128.0,0.0
B,L,"[5, 8]",0.0,6.0,0.5759689807891846,2.157771110534668,0.5708292819005255,12.0,129.0,0.0
R,U,"[4, 8]",0.0,6.0,0.1658170223236084,1.4652628898620605,0.3029586350543616,12.0,130.0,0.0
,,"(6, 6)",,,,,,,,
R,U,"[5, 6]",1.0,1.0,0.3678100109100342,2.844693899154663,0.49738839858775385,13.0,131.0,0.0
Y,R,"[5, 7]",1.0,2.0,0.3921339511871338,1.7000510692596436,0.2976256979399236,13.0,132.0,0.0
Y,R,"[5, 8]",1.0,3.0,0.2201528549194336,1.542013168334961,0.3228394063542406,13.0,133.0,0.0
G,D,"[6, 8]",1.0,4.0,0.29471898078918457,1.631277084350586,0.3374323172352367,13.0,134.0,0.0
Y,R,"[6, 9]",1.0,5.0,0.21145987510681152,1.9071829319000244,0.6944458716083439,13.0,135.0,0.0
Y,R,"[6, 10]",1.0,6.0,0.22400903701782227,1.591649055480957,0.38641108412827113,13.0,136.0,0.0
R,U,"[5, 10]",1.0,7.0,0.18133997917175293,1.4706051349639893,0.29015914137321847,13.0,137.0,0.0
R,U,"[4, 10]",1.0,8.0,0.20862889289855957,1.615293025970459,0.40529647593776197,13.0,138.0,0.0
B,L,"[4, 9]",1.0,9.0,0.164154052734375,1.6844470500946045,0.522985243238544,13.0,139.0,0.0
R,U,"[3, 9]",1.0,10.0,0.17821002006530762,1.8719911575317383,0.6948487417890482,13.0,140.0,0.0
,,"(6, 6)",,,,,,,,
R,U,"[5, 6]",1.0,1.0,0.537574052810669,2.2543511390686035,0.4493503922697951,14.0,141.0,0.0
Y,R,"[5, 7]",1.0,2.0,0.1663351058959961,1.5582880973815918,0.39105546586157447,14.0,142.0,0.0
Y,R,"[5, 8]",1.0,3.0,0.1627500057220459,1.704538106918335,0.5453969564381138,14.0,143.0,0.0
G,D,"[6, 8]",1.0,4.0,0.15968894958496094,1.872230052947998,0.7007407979975854,14.0,144.0,0.0
Y,R,"[6, 9]",1.0,5.0,0.16289186477661133,1.708085060119629,0.5423005929312873,14.0,145.0,0.0
Y,R,"[6, 10]",1.0,6.0,0.14793920516967773,1.4085052013397217,0.2677260108440545,14.0,146.0,0.0
R,U,"[5, 10]",1.0,7.0,0.21665692329406738,1.6402878761291504,0.424507518067406,14.0,147.0,0.0
R,U,"[4, 10]",1.0,8.0,0.23705291748046875,1.9746959209442139,0.7488682806080291,14.0,148.0,0.0
B,L,"[4, 9]",1.0,9.0,0.16457295417785645,1.6246488094329834,0.45727321685765177,14.0,149.0,0.0
R,U,"[3, 9]",1.0,10.0,0.19586491584777832,1.6930010318756104,0.5000019402262463,14.0,150.0,0.0
,,"(6, 6)",,,,,,,,
R,U,"[5, 6]",1.0,1.0,0.5131049156188965,2.9485559463500977,0.7315170739505235,15.0,151.0,0.0
Y,R,"[5, 7]",1.0,2.0,0.16482996940612793,1.6545510292053223,0.48640029676492846,15.0,152.0,0.0
Y,R,"[5, 8]",1.0,3.0,0.17487096786499023,1.8614978790283203,0.6809551410173011,15.0,153.0,0.0
G,D,"[6, 8]",1.0,4.0,0.17615199089050293,1.726853847503662,0.541423960139221,15.0,154.0,0.0
Y,R,"[6, 9]",1.0,5.0,0.18180608749389648,1.7876038551330566,0.6121297266700254,15.0,155.0,0.0
Y,R,"[6, 10]",1.0,6.0,0.15049386024475098,1.7439630031585693,0.5894637507540557,15.0,156.0,0.0
R,U,"[5, 10]",1.0,7.0,0.1922290325164795,1.9388761520385742,0.7446785368718172,15.0,157.0,0.0
R,U,"[4, 10]",1.0,8.0,0.220534086227417,1.7986969947814941,0.5934959985614952,15.0,158.0,0.0
B,L,"[4, 9]",1.0,9.0,0.19582295417785645,1.7000689506530762,0.5102725163028542,15.0,159.0,0.0
R,U,"[3, 9]",1.0,10.0,0.21175599098205566,1.5206317901611328,0.3144462110864737,15.0,160.0,0.0
,,"(6, 6)",,,,,,,,
R,U,"[5, 6]",1.0,1.0,0.3488779067993164,2.4673688411712646,0.5150309390968641,16.0,161.0,0.0
Y,R,"[5, 7]",1.0,2.0,0.10079693794250488,1.682892084121704,0.5811781375466613,16.0,162.0,0.0
Y,R,"[5, 8]",1.0,3.0,0.14837098121643066,1.5080959796905518,0.3560750985090496,16.0,163.0,0.0
G,D,"[6, 8]",1.0,4.0,0.34352803230285645,1.9411258697509766,0.5972476002499909,16.0,164.0,0.0
Y,R,"[6, 9]",1.0,5.0,0.15640783309936523,1.7751150131225586,0.6220153942878328,16.0,165.0,0.0
Y,R,"[6, 10]",1.0,6.0,0.19871997833251953,1.6795799732208252,0.48501404309373636,16.0,166.0,0.0
R,U,"[5, 10]",1.0,7.0,0.155364990234375,1.7270050048828125,0.561952761910895,16.0,167.0,0.0
R,U,"[4, 10]",1.0,8.0,0.5653159618377686,1.9051320552825928,0.3339729711203652,16.0,168.0,0.0
B,L,"[4, 9]",1.0,9.0,0.17952299118041992,1.7043719291687012,0.5213359225571397,16.0,169.0,0.0
R,U,"[3, 9]",1.0,10.0,0.12114310264587402,1.7892959117889404,0.6772387888668975,16.0,170.0,0.0
,,"(6, 6)",,,,,,,,
R,U,"[5, 6]",1.0,1.0,0.435222864151001,2.5016520023345947,0.6290580295242507,17.0,171.0,0.0
Y,R,"[5, 7]",1.0,2.0,0.16098690032958984,1.5777039527893066,0.40667724943933337,17.0,172.0,0.0
Y,R,"[5, 8]",1.0,3.0,0.17421913146972656,1.533743143081665,0.3571734058621829,17.0,173.0,0.0
G,D,"[6, 8]",1.0,4.0,0.29694199562072754,1.709378957748413,0.4165019461309859,17.0,174.0,0.0
Y,R,"[6, 9]",1.0,5.0,0.19962811470031738,1.8527519702911377,0.6521906240051575,17.0,175.0,0.0
Y,R,"[6, 10]",-1.0,5.0,0.06195688247680664,5.662592172622681,0.5315590712937754,17.0,176.0,0.0
R,U,"[5, 10]",1.0,6.0,0.167586088180542,1.4582750797271729,0.29011027172019854,17.0,177.0,0.0
R,U,"[4, 10]",1.0,7.0,0.18955707550048828,1.8222160339355469,0.6287804196327331,17.0,178.0,0.0
B,L,"[4, 9]",-1.0,7.0,0.09577202796936035,5.724699974060059,0.5531662259975423,17.0,179.0,0.0
R,U,"[3, 9]",1.0,8.0,0.24950599670410156,1.7074320316314697,0.46080378660164173,17.0,180.0,0.0
,,"(6, 6)",,,,,,,,
R,U,"[5, 6]",1.0,1.0,0.46992015838623047,2.6732609272003174,0.7170627003546574,18.0,181.0,0.0
Y,R,"[5, 7]",1.0,2.0,0.19523382186889648,1.9099209308624268,0.7106869519834363,18.0,182.0,0.0
Y,R,"[5, 8]",1.0,3.0,0.25109195709228516,1.6478300094604492,0.408404783210329,18.0,183.0,0.0
G,D,"[6, 8]",1.0,4.0,0.21509504318237305,1.6066291332244873,0.398275573306509,18.0,184.0,0.0
Y,R,"[6, 9]",1.0,5.0,0.17843294143676758,1.631836175918579,0.4466968736043604,18.0,185.0,0.0
Y,R,"[6, 10]",1.0,6.0,0.2321491241455078,1.9173130989074707,0.6803818668086834,18.0,186.0,0.0
R,U,"[5, 10]",1.0,7.0,0.16875290870666504,1.5478620529174805,0.3786784717836205,18.0,187.0,0.0
R,U,"[4, 10]",1.0,8.0,0.18968915939331055,1.7497518062591553,0.5614443813291314,18.0,188.0,0.0
B,L,"[4, 9]",1.0,9.0,0.18906903266906738,1.8443269729614258,0.6723428079170073,18.0,189.0,0.0
R,U,"[3, 9]",1.0,10.0,0.13808202743530273,1.5559852123260498,0.4285461703786608,18.0,190.0,0.0
,,"(6, 6)",,,,,,,,
R,U,"[5, 6]",1.0,1.0,0.5054631233215332,2.764254093170166,0.6757715969341269,19.0,191.0,0.0
Y,R,"[5, 7]",1.0,2.0,0.1633749008178711,1.898745059967041,0.741500450671148,19.0,192.0,0.0
Y,R,"[5, 8]",1.0,3.0,0.1815040111541748,1.6355550289154053,0.46030670889059677,19.0,193.0,0.0
G,D,"[6, 8]",1.0,4.0,0.3089790344238281,1.8555102348327637,0.5490551886869341,19.0,194.0,0.0
Y,R,"[6, 9]",1.0,5.0,0.17329907417297363,1.4995160102844238,0.31545593984741943,19.0,195.0,0.0
Y,R,"[6, 10]",1.0,6.0,0.18532395362854004,1.6745591163635254,0.4898145180632463,19.0,196.0,0.0
R,U,"[5, 10]",1.0,7.0,0.17669105529785156,1.7394301891326904,0.5624595877386267,19.0,197.0,0.0
R,U,"[4, 10]",1.0,8.0,0.2066640853881836,1.7504191398620605,0.5294481549039256,19.0,198.0,0.0
B,L,"[4, 9]",1.0,9.0,0.18760395050048828,1.8364629745483398,0.6325504740989172,19.0,199.0,0.0
R,U,"[3, 9]",-2.0,9.0,1.0814809799194336,2.4669950008392334,0.41642765172350377,19.0,200.0,0.0
,,"(6, 6)",,,,,,,,
R,U,"[5, 6]",1.0,1.0,0.40866804122924805,3.3211889266967773,0.7205272786496,20.0,201.0,0.0
Y,R,"[5, 7]",1.0,2.0,0.17384099960327148,1.5469188690185547,0.36779712094200795,20.0,202.0,0.0
Y,R,"[5, 8]",1.0,3.0,0.16318178176879883,1.6608741283416748,0.4953910068471486,20.0,203.0,0.0
G,D,"[6, 8]",1.0,4.0,0.34645509719848633,1.6724259853363037,0.33444979769712896,20.0,204.0,0.0
Y,R,"[6, 9]",1.0,5.0,0.17375397682189941,1.9246189594268799,0.7419519136250545,20.0,205.0,0.0
Y,R,"[6, 10]",1.0,6.0,0.14528107643127441,1.423140048980713,0.2821507134266655,20.0,206.0,0.0
R,U,"[5, 10]",1.0,7.0,0.21060895919799805,1.7020528316497803,0.48400946858123645,20.0,207.0,0.0
R,U,"[4, 10]",1.0,8.0,0.1615009307861328,1.8326139450073242,0.6663899023475188,20.0,208.0,0.0
B,L,"[4, 9]",1.0,9.0,0.1842210292816162,1.7390549182891846,0.555538194350371,20.0,209.0,0.0
R,U,"[3, 9]",1.0,10.0,0.1467740535736084,1.655686855316162,0.5112472485197854,20.0,210.0,0.0
,,"(6, 6)",,,,,,,,
R,U,"[5, 6]",1.0,1.0,0.4481191635131836,2.386013984680176,0.5804717355734741,21.0,211.0,0.0
Y,R,"[5, 7]",1.0,2.0,0.10883402824401855,1.5566260814666748,0.437234669336126,21.0,212.0,0.0
Y,R,"[5, 8]",1.0,3.0,0.15590691566467285,1.7895359992980957,0.6265570742399601,21.0,213.0,0.0
G,D,"[6, 8]",1.0,4.0,0.1643970012664795,1.4381840229034424,0.28171269440034064,21.0,214.0,0.0
Y,R,"[6, 9]",1.0,5.0,0.18561983108520508,1.8634860515594482,0.6780717636707122,21.0,215.0,0.0
Y,R,"[6, 10]",1.0,6.0,0.16839098930358887,1.8832910060882568,0.7278879243153951,21.0,216.0,0.0
R,U,"[5, 10]",1.0,7.0,0.17329907417297363,1.642599105834961,0.4708328842434134,21.0,217.0,0.0
R,U,"[4, 10]",1.0,8.0,0.16103196144104004,1.8211939334869385,0.6584097259369159,21.0,218.0,0.0
B,L,"[4, 9]",1.0,9.0,0.5743801593780518,2.0570998191833496,0.4823491142328486,21.0,219.0,0.0
R,U,"[3, 9]",1.0,10.0,0.19570398330688477,1.4707789421081543,0.26998053108266135,21.0,220.0,0.0
,,"(6, 6)",,,,,,,,
R,U,"[5, 6]",1.0,1.0,0.2634580135345459,2.2383978366851807,0.3915664564708171,22.0,221.0,0.0
Y,R,"[5, 7]",1.0,2.0,0.12067413330078125,1.4066908359527588,0.2983448629884133,22.0,222.0,0.0
Y,R,"[5, 8]",1.0,3.0,0.16202402114868164,1.5164940357208252,0.3480522898664748,22.0,223.0,0.0
G,D,"[6, 8]",1.0,4.0,0.19738197326660156,1.4529650211334229,0.25103753446722427,22.0,224.0,0.0
Y,R,"[6, 9]",1.0,5.0,0.16530895233154297,1.5099570751190186,0.34421765263457643,22.0,225.0,0.0
Y,R,"[6, 10]",1.0,6.0,0.16230511665344238,1.8040008544921875,0.6478806020140028,22.0,226.0,0.0
R,U,"[5, 10]",1.0,7.0,0.8026609420776367,2.3575048446655273,0.5555271244908146,22.0,227.0,0.0
R,U,"[4, 10]",1.0,8.0,0.15357208251953125,1.8816089630126953,0.7368211873801997,22.0,228.0,0.0
B,L,"[4, 9]",1.0,9.0,0.14928603172302246,1.6027648448944092,0.4565694645512945,22.0,229.0,0.0
R,U,"[3, 9]",1.0,10.0,0.1592240333557129,1.6081719398498535,0.44804653918558524,22.0,230.0,0.0
,,"(6, 6)",,,,,,,,
R,U,"[5, 6]",1.0,1.0,0.5095381736755371,2.841331958770752,0.7224163630784219,23.0,231.0,0.0
Y,R,"[5, 7]",1.0,2.0,0.16419196128845215,1.4772570133209229,0.3166738526593069,23.0,232.0,0.0
Y,R,"[5, 8]",1.0,3.0,0.1837759017944336,1.7633061408996582,0.5797414695367308,23.0,233.0,0.0
G,D,"[6, 8]",1.0,4.0,0.17219877243041992,1.544908046722412,0.35820634916177974,23.0,234.0,0.0
Y,R,"[6, 9]",1.0,5.0,0.15592098236083984,1.716907024383545,0.5582375548881064,23.0,235.0,0.0
Y,R,"[6, 10]",1.0,6.0,0.1741480827331543,1.6432020664215088,0.46813034973292994,23.0,236.0,0.0
R,U,"[5, 10]",1.0,7.0,0.16721892356872559,1.7666890621185303,0.6012398011832338,23.0,237.0,0.0
R,U,"[4, 10]",1.0,8.0,0.16162800788879395,1.5997741222381592,0.43460979562763613,23.0,238.0,0.0
B,L,"[4, 9]",1.0,9.0,0.16170978546142578,1.5113139152526855,0.34595962224699495,23.0,239.0,0.0
R,U,"[3, 9]",1.0,10.0,0.14484906196594238,1.8072259426116943,0.6528838101530231,23.0,240.0,0.0
,,"(6, 6)",,,,,,,,
R,U,"[5, 6]",1.0,1.0,0.49202489852905273,2.4310009479522705,0.4676322009018229,24.0,241.0,0.0
Y,R,"[5, 7]",1.0,2.0,0.18947315216064453,1.5905001163482666,0.3912204267506984,24.0,242.0,0.0
Y,R,"[5, 8]",-1.0,2.0,0.0398409366607666,5.689695119857788,0.5974174268049086,24.0,243.0,0.0
G,D,"[6, 8]",1.0,3.0,0.22539997100830078,1.8593881130218506,0.6233090768265861,24.0,244.0,0.0
Y,R,"[6, 9]",1.0,4.0,0.19207191467285156,1.8674421310424805,0.6738742925839191,24.0,245.0,0.0
Y,R,"[6, 10]",1.0,5.0,0.17640995979309082,1.642045021057129,0.4661749884664769,24.0,246.0,0.0
R,U,"[5, 10]",1.0,6.0,0.1943809986114502,1.8674440383911133,0.6667072565324687,24.0,247.0,0.0
R,U,"[4, 10]",1.0,7.0,0.18669891357421875,1.763767957687378,0.5807995279432652,24.0,248.0,0.0
B,L,"[4, 9]",1.0,8.0,0.17501091957092285,1.6363580226898193,0.45038058333607445,24.0,249.0,0.0
R,U,"[3, 9]",1.0,9.0,0.3626699447631836,2.0768120288848877,0.7102290510767416,24.0,250.0,0.0
,,"(6, 6)",,,,,,,,
R,U,"[5, 6]",1.0,1.0,0.524791955947876,2.377674102783203,0.5380096474091611,25.0,251.0,0.0
Y,R,"[5, 7]",1.0,2.0,0.1927180290222168,1.8227369785308838,0.6272922500501653,25.0,252.0,0.0
Y,R,"[5, 8]",1.0,3.0,0.18207192420959473,1.6666839122772217,0.49407331619192674,25.0,253.0,0.0
G,D,"[6, 8]",1.0,4.0,0.20029711723327637,1.679542064666748,0.49027038525385497,25.0,254.0,0.0
Y,R,"[6, 9]",1.0,5.0,0.18292880058288574,1.6952929496765137,0.518809330358985,25.0,255.0,0.0
Y,R,"[6, 10]",1.0,6.0,0.19794678688049316,1.5202758312225342,0.32253617984647986,25.0,256.0,0.0
R,U,"[5, 10]",1.0,7.0,0.21727919578552246,1.4986920356750488,0.2880671410259033,25.0,257.0,0.0
R,U,"[4, 10]",1.0,8.0,0.21609807014465332,1.5198290348052979,0.3076884793098715,25.0,258.0,0.0
B,L,"[4, 9]",1.0,9.0,0.19957590103149414,1.7789971828460693,0.5864062682015101,25.0,259.0,0.0
R,U,"[3, 9]",1.0,10.0,0.16625618934631348,1.5539820194244385,0.39057418506164393,25.0,260.0,0.0
,,"(6, 6)",,,,,,,,
R,U,"[5, 6]",1.0,1.0,0.41269803047180176,2.123711109161377,0.3642242247884725,26.0,261.0,0.0
Y,R,"[5, 7]",1.0,2.0,0.19086790084838867,1.707578182220459,0.5050744522946247,26.0,262.0,0.0
Y,R,"[5, 8]",1.0,3.0,0.19088006019592285,1.6869430541992188,0.49192688441550486,26.0,263.0,0.0
G,D,"[6, 8]",1.0,4.0,0.18253588676452637,1.6214990615844727,0.4467636203549074,26.0,264.0,0.0
Y,R,"[6, 9]",1.0,5.0,0.1731560230255127,1.6591510772705078,0.472543041628245,26.0,265.0,0.0
Y,R,"[6, 10]",1.0,6.0,0.18022799491882324,1.5207459926605225,0.34347781276410755,26.0,266.0,0.0
R,U,"[5, 10]",1.0,7.0,0.21950387954711914,1.7200100421905518,0.5132233971519158,26.0,267.0,0.0
R,U,"[4, 10]",1.0,8.0,0.1681349277496338,1.6163699626922607,0.44635227745669637,26.0,268.0,0.0
B,L,"[4, 9]",1.0,9.0,0.16854095458984375,1.4526381492614746,0.2824187671648532,26.0,269.0,0.0
R,U,"[3, 9]",1.0,10.0,0.23846006393432617,1.6891210079193115,0.4549439799298382,26.0,270.0,0.0
,,"(6, 6)",,,,,,,,
R,U,"[5, 6]",1.0,1.0,0.46258997917175293,2.4846739768981934,0.4561878722810036,27.0,271.0,0.0
Y,R,"[5, 7]",1.0,2.0,0.16774702072143555,1.8303461074829102,0.6696881212583683,27.0,272.0,0.0
Y,R,"[5, 8]",1.0,3.0,0.16646122932434082,1.4973130226135254,0.3335586766889032,27.0,273.0,0.0
G,D,"[6, 8]",1.0,4.0,0.2164440155029297,1.8473551273345947,0.6306643170737619,27.0,274.0,0.0
Y,R,"[6, 9]",1.0,5.0,0.16738414764404297,1.4769880771636963,0.3078336864370102,27.0,275.0,0.0
Y,R,"[6, 10]",1.0,6.0,0.19372200965881348,1.713886022567749,0.5215658588344096,27.0,276.0,0.0
R,U,"[5, 10]",1.0,7.0,0.16611409187316895,1.6480889320373535,0.48644283960199275,27.0,277.0,0.0
R,U,"[4, 10]",1.0,8.0,0.18599200248718262,1.8287990093231201,0.6481781948580752,27.0,278.0,0.0
B,L,"[4, 9]",1.0,9.0,0.22367000579833984,1.5392298698425293,0.3044204085295876,27.0,279.0,0.0
R,U,"[3, 9]",1.0,10.0,0.17035412788391113,1.5506579875946045,0.38823566034220947,27.0,280.0,0.0
,,"(6, 6)",,,,,,,,
R,U,"[5, 6]",1.0,1.0,0.41160011291503906,2.450477123260498,0.5552374350751168,28.0,281.0,0.0
Y,R,"[5, 7]",1.0,2.0,0.1423659324645996,1.4131841659545898,0.26859614811199506,28.0,282.0,0.0
Y,R,"[5, 8]",1.0,3.0,0.18169689178466797,1.6557519435882568,0.47411539411870157,28.0,283.0,0.0
G,D,"[6, 8]",1.0,4.0,0.17864584922790527,1.612696886062622,0.4367628964201354,28.0,284.0,0.0
Y,R,"[6, 9]",1.0,5.0,0.1759941577911377,1.7027239799499512,0.5226942819085809,28.0,285.0,0.0
Y,R,"[6, 10]",1.0,6.0,0.1789400577545166,1.7419381141662598,0.5648124032996613,28.0,286.0,0.0
R,U,"[5, 10]",1.0,7.0,0.1480550765991211,1.5422210693359375,0.390208816787013,28.0,287.0,0.0
R,U,"[4, 10]",1.0,8.0,0.22469592094421387,1.7555232048034668,0.52890872460998,28.0,288.0,0.0
B,L,"[4, 9]",1.0,9.0,0.17189812660217285,1.4384510517120361,0.25084710629346363,28.0,289.0,0.0
R,U,"[3, 9]",1.0,10.0,0.24060916900634766,1.9164950847625732,0.6670448805112149,28.0,290.0,0.0
,,"(6, 6)",,,,,,,,
R,U,"[5, 6]",1.0,1.0,0.5052051544189453,2.6231870651245117,0.49022715890167173,29.0,291.0,0.0
Y,R,"[5, 7]",1.0,2.0,0.19226503372192383,1.6368441581726074,0.44382494050432947,29.0,292.0,0.0
Y,R,"[5, 8]",1.0,3.0,0.19093585014343262,1.771130084991455,0.581304106680851,29.0,293.0,0.0
G,D,"[6, 8]",1.0,4.0,0.18766403198242188,1.4695961475372314,0.2680176204106322,29.0,294.0,0.0
Y,R,"[6, 9]",1.0,5.0,0.17687582969665527,1.7881059646606445,0.6057382222292444,29.0,295.0,0.0
Y,R,"[6, 10]",1.0,6.0,0.16955184936523438,1.7944118976593018,0.6334093263559991,29.0,296.0,0.0
R,U,"[5, 10]",1.0,7.0,0.17050814628601074,1.5239739418029785,0.357590948142955,29.0,297.0,0.0
R,U,"[4, 10]",1.0,8.0,0.17708301544189453,1.4480299949645996,0.27233722679206723,29.0,298.0,0.0
B,L,"[4, 9]",1.0,9.0,0.21190619468688965,1.62398099899292,0.4127633175757961,29.0,299.0,0.0
R,U,"[3, 9]",1.0,10.0,0.16603994369506836,1.8339929580688477,0.6631812073799273,29.0,300.0,0.0
,,"(6, 6)",,,,,,,,
R,U,"[5, 6]",-2.0,0.0,1.0074238777160645,2.817009925842285,0.3804397132280381,30.0,301.0,-4.0
Y,R,"[5, 7]",-999.0,0.0,0.7024950981140137,2.0134239196777344,0.3104997973626601,30.0,302.0,-4.0
Y,R,"[5, 8]",-999.0,0.0,0.38649702072143555,1.8130919933319092,0.4400975479397817,30.0,303.0,-4.0
G,D,"[6, 8]",-999.0,0.0,0.36376285552978516,1.9399590492248535,0.5798425328109018,30.0,304.0,-4.0
Y,R,"[6, 9]",-999.0,0.0,0.22674298286437988,1.6752140522003174,0.43850993645418623,30.0,305.0,-4.0
Y,R,"[6, 10]",-999.0,0.0,0.2730879783630371,1.5828118324279785,0.3212689593771687,30.0,306.0,-4.0
R,U,"[5, 10]",-999.0,0.0,0.5054168701171875,2.089141845703125,0.5935890406543807,30.0,307.0,-4.0
R,U,"[4, 10]",-999.0,0.0,0.27081894874572754,1.5668189525604248,0.31049632695781054,30.0,308.0,-4.0
R,U,"[3, 10]",-999.0,0.0,0.37662506103515625,1.7950119972229004,0.4386814223352423,30.0,309.0,-4.0
B,L,"[3, 9]",-999.0,0.0,0.4648311138153076,2.1927649974823,0.731216634988678,30.0,310.0,1.0
,,"(6, 6)",,,,,,,,
R,U,"[5, 6]",-999.0,0.0,0.7103540897369385,4.81887412071228,0.6666953500997523,31.0,311.0,-4.0
Y,R,"[5, 7]",-999.0,0.0,0.312014102935791,1.5836260318756104,0.26734920904821197,31.0,312.0,-4.0
Y,R,"[5, 8]",-999.0,0.0,0.21878385543823242,1.9032859802246094,0.6868565320343051,31.0,313.0,-4.0
R,U,"[4, 8]",-999.0,0.0,0.6356699466705322,2.051131010055542,0.42152400198227186,31.0,314.0,-4.0
R,U,"[3, 8]",-2.0,0.0,1.7093758583068848,3.1812429428100586,0.502509505423695,31.0,315.0,1.0
,,"(6, 6)",,,,,,,,
B,L,"[3, 8]",-999.0,0.0,0.8737931251525879,3.509408950805664,0.611698780487651,32.0,316.0,-5.0
B,L,"[3, 8]",-999.0,0.0,0.43486690521240234,1.8120360374450684,0.39052979761549733,32.0,317.0,-5.0
R,U,"[3, 8]",-999.0,0.0,0.3895890712738037,2.0813751220703125,0.7050145598599162,32.0,318.0,-5.0
R,U,"[3, 8]",-999.0,0.0,0.282271146774292,1.7727580070495605,0.4945844415776134,32.0,319.0,-5.0
Y,R,"[3, 9]",-999.0,0.0,0.722869873046875,2.0872581005096436,0.3651896484191328,32.0,320.0,1.0
,,"(6, 6)",,,,,,,,
R,U,"[5, 6]",1.0,1.0,0.5364668369293213,3.0694668292999268,0.5178529493861839,33.0,321.0,0.0
Y,R,"[5, 7]",1.0,2.0,0.21187400817871094,1.4792280197143555,0.2639280594805933,33.0,322.0,0.0
Y,R,"[5, 8]",1.0,3.0,0.2232191562652588,1.6034281253814697,0.38387641941590583,33.0,323.0,0.0
G,D,"[6, 8]",1.0,4.0,0.2565128803253174,1.6097590923309326,0.34350250572720287,33.0,324.0,0.0
Y,R,"[6, 9]",1.0,5.0,0.17839598655700684,1.5329840183258057,0.3598161369525757,33.0,325.0,0.0
Y,R,"[6, 10]",1.0,6.0,0.19118499755859375,1.5538339614868164,0.36363981812389534,33.0,326.0,0.0
R,U,"[5, 10]",1.0,7.0,0.1674208641052246,1.822721004486084,0.652670963182991,33.0,327.0,0.0
R,U,"[4, 10]",-1.0,7.0,0.01821279525756836,5.613982915878296,0.533332585997286,33.0,328.0,0.0
B,L,"[4, 9]",1.0,8.0,0.2620871067047119,1.6969819068908691,0.43037711566767595,33.0,329.0,0.0
R,U,"[3, 9]",1.0,9.0,0.4610731601715088,2.1914310455322266,0.721540713064009,33.0,330.0,0.0
,,"(6, 6)",,,,,,,,
R,U,"[5, 6]",1.0,1.0,0.4144301414489746,2.401700019836426,0.29023429669188305,34.0,331.0,0.0
Y,R,"[5, 7]",1.0,2.0,0.17370200157165527,1.770751953125,0.5942583581226104,34.0,332.0,0.0
Y,R,"[5, 8]",1.0,3.0,0.2295229434967041,1.6233680248260498,0.40082155532047514,34.0,333.0,0.0
G,D,"[6, 8]",1.0,4.0,0.6387491226196289,2.291390895843506,0.6588620268342684,34.0,334.0,0.0
Y,R,"[6, 9]",1.0,5.0,0.2003638744354248,1.460157871246338,0.26904038050761436,34.0,335.0,0.0
Y,R,"[6, 10]",1.0,6.0,0.26862406730651855,1.9219250679016113,0.6572627583187307,34.0,336.0,0.0
R,U,"[5, 10]",1.0,7.0,0.17712020874023438,1.8732490539550781,0.6970442307796259,34.0,337.0,0.0
R,U,"[4, 10]",1.0,8.0,0.5706110000610352,2.2002651691436768,0.6306483174145896,34.0,338.0,0.0
B,L,"[4, 9]",1.0,9.0,0.22360706329345703,1.6683411598205566,0.432430474360559,34.0,339.0,0.0
R,U,"[3, 9]",1.0,10.0,0.2589900493621826,1.6148419380187988,0.3473261789042357,34.0,340.0,0.0
,,"(6, 6)",,,,,,,,
R,U,"[5, 6]",-999.0,0.0,0.6645069122314453,2.636826992034912,0.4840313324277123,35.0,341.0,-4.0
Y,R,"[5, 7]",-999.0,0.0,0.3281090259552002,2.0785670280456543,0.7455950921008353,35.0,342.0,-4.0
Y,R,"[5, 8]",-999.0,0.0,0.23360991477966309,1.676133155822754,0.43858606237056413,35.0,343.0,-4.0
R,U,"[4, 8]",-999.0,0.0,0.6709129810333252,1.952646017074585,0.2913586321661408,35.0,344.0,-4.0
R,U,"[3, 8]",-2.0,0.0,1.236901044845581,2.8783178329467773,0.6859415271930351,35.0,345.0,1.0
,,"(6, 6)",,,,,,,,
R,U,"[5, 6]",1.0,1.0,0.7546248435974121,3.6250319480895996,0.6608429369315192,36.0,346.0,0.0
Y,R,"[5, 7]",1.0,2.0,0.5088460445404053,2.0191080570220947,0.5134187445247569,36.0,347.0,0.0
Y,R,"[5, 8]",1.0,3.0,0.19649696350097656,1.8455228805541992,0.6421339062457446,36.0,348.0,0.0
G,D,"[6, 8]",1.0,4.0,0.67014479637146,2.144807815551758,0.4870288792824241,36.0,349.0,0.0
Y,R,"[6, 9]",1.0,5.0,0.20613908767700195,1.7528719902038574,0.5565017849517127,36.0,350.0,0.0
,,"(6, 6)",,,,,,,,
G,D,"[6, 9]",-999.0,0.0,0.865307092666626,4.744451999664307,0.4009114645649549,37.0,351.0,-5.0
G,D,"[6, 9]",-999.0,0.0,0.40004897117614746,1.7874810695648193,0.3884458041354047,37.0,352.0,-5.0
G,D,"[6, 9]",-999.0,0.0,0.3917360305786133,1.95426607131958,0.5760481966051441,37.0,353.0,-5.0
B,L,"[6, 9]",-999.0,0.0,0.5118260383605957,2.1686739921569824,0.6611798733343304,37.0,354.0,-5.0
B,L,"[6, 9]",-999.0,0.0,0.33128905296325684,1.818547010421753,0.49619528901639975,37.0,355.0,-5.0
R,U,"[6, 9]",-999.0,0.0,0.689763069152832,2.2526609897613525,0.5655599166747405,37.0,356.0,-5.0
R,U,"[6, 9]",-999.0,0.0,0.3256690502166748,1.9287538528442383,0.6108109437165608,37.0,357.0,-5.0
B,L,"[6, 9]",-999.0,0.0,0.4250500202178955,1.6626949310302734,0.2571692831582996,37.0,358.0,-5.0
B,L,"[6, 9]",-999.0,0.0,0.39638209342956543,2.021340847015381,0.6283480319984995,37.0,359.0,-5.0
R,U,"[5, 9]",-2.0,0.0,1.660994052886963,3.166300058364868,0.5276722000191405,37.0,360.0,1.0
,,"(6, 6)",,,,,,,,
R,U,"[5, 6]",1.0,1.0,0.9857170581817627,4.424493074417114,0.5853158688957787,38.0,361.0,0.0
Y,R,"[5, 7]",1.0,2.0,0.18059492111206055,1.929314136505127,0.7483669391425327,38.0,362.0,0.0
Y,R,"[5, 8]",1.0,3.0,0.1833789348602295,1.8358409404754639,0.6504724413895846,38.0,363.0,0.0
G,D,"[6, 8]",1.0,4.0,0.2039041519165039,1.515678882598877,0.3163832180389648,38.0,364.0,0.0
Y,R,"[6, 9]",1.0,5.0,0.19326090812683105,1.6789560317993164,0.4784702737544442,38.0,365.0,0.0
Y,R,"[6, 10]",1.0,6.0,0.17125201225280762,1.4754419326782227,0.3206610404088,38.0,366.0,0.0
R,U,"[5, 10]",1.0,7.0,0.21126198768615723,1.6389360427856445,0.4261826424963825,38.0,367.0,0.0
R,U,"[4, 10]",1.0,8.0,0.19158220291137695,1.779435157775879,0.6054005551041264,38.0,368.0,0.0
B,L,"[4, 9]",1.0,9.0,0.17255496978759766,1.8685870170593262,0.6905507485649052,38.0,369.0,0.0
R,U,"[3, 9]",1.0,10.0,0.18486285209655762,1.439220905303955,0.2634509261086709,38.0,370.0,0.0
,,"(6, 6)",,,,,,,,
R,U,"[5, 6]",1.0,1.0,0.60965895652771,2.611557960510254,0.30830698942772505,39.0,371.0,0.0
Y,R,"[5, 7]",1.0,2.0,0.2478489875793457,1.744884967803955,0.5029089841668959,39.0,372.0,0.0
Y,R,"[5, 8]",1.0,3.0,0.1847999095916748,1.8297410011291504,0.6491803326127736,39.0,373.0,0.0
G,D,"[6, 8]",1.0,4.0,0.19266581535339355,1.876582145690918,0.6755942180509016,39.0,374.0,0.0
Y,R,"[6, 9]",1.0,5.0,0.16475701332092285,1.6712939739227295,0.5137460258061692,39.0,375.0,0.0
Y,R,"[6, 10]",1.0,6.0,0.17758607864379883,1.6619949340820312,0.4757198640685284,39.0,376.0,0.0
R,U,"[5, 10]",1.0,7.0,0.19743895530700684,1.6880738735198975,0.4970832884247884,39.0,377.0,0.0
R,U,"[4, 10]",1.0,8.0,0.16087794303894043,1.8026127815246582,0.6328831571658424,39.0,378.0,0.0
B,L,"[4, 9]",1.0,9.0,0.16077399253845215,1.5214378833770752,0.3545181898121084,39.0,379.0,0.0
R,U,"[3, 9]",1.0,10.0,0.21787095069885254,1.6542088985443115,0.44183094855247684,39.0,380.0,0.0
,,"(6, 6)",,,,,,,,
R,U,"[5, 6]",1.0,1.0,0.6338839530944824,2.9230329990386963,0.564838242041128,40.0,381.0,0.0
Y,R,"[5, 7]",1.0,2.0,0.19436907768249512,1.55830717086792,0.35665250090560985,40.0,382.0,0.0
Y,R,"[5, 8]",1.0,3.0,0.40738987922668457,1.7440130710601807,0.33387929947963496,40.0,383.0,0.0
G,D,"[6, 8]",1.0,4.0,0.20443511009216309,1.8006889820098877,0.6009456201750678,40.0,384.0,0.0
Y,R,"[6, 9]",1.0,5.0,0.15542101860046387,1.7853598594665527,0.619550246713456,40.0,385.0,0.0
Y,R,"[6, 10]",1.0,6.0,0.16505193710327148,1.537632942199707,0.3741072863787944,40.0,386.0,0.0
R,U,"[5, 10]",1.0,7.0,0.19567418098449707,1.664240837097168,0.4714979713220825,40.0,387.0,0.0
R,U,"[4, 10]",1.0,8.0,0.17343592643737793,1.656566858291626,0.47812126236302593,40.0,388.0,0.0
B,L,"[4, 9]",1.0,9.0,0.23916220664978027,1.6303889751434326,0.39175014263792396,40.0,389.0,0.0
R,U,"[3, 9]",1.0,10.0,0.17671704292297363,1.6615381240844727,0.48677382615326104,40.0,390.0,0.0
,,"(6, 6)",,,,,,,,
R,U,"[5, 6]",1.0,1.0,0.46166515350341797,2.7150731086730957,0.6680719912813038,41.0,391.0,0.0
Y,R,"[5, 7]",1.0,2.0,0.17931008338928223,1.7695550918579102,0.5876062142965339,41.0,392.0,0.0
Y,R,"[5, 8]",1.0,3.0,0.1586010456085205,1.903339147567749,0.7408248756744744,41.0,393.0,0.0
G,D,"[6, 8]",1.0,4.0,0.18058300018310547,1.8733210563659668,0.6975095234674016,41.0,394.0,0.0
G,D,"[7, 8]",0.0,4.0,0.18120098114013672,1.8689639568328857,0.6830858799845185,41.0,395.0,0.0
Y,R,"[7, 9]",0.0,4.0,0.22558307647705078,1.630897045135498,0.39749881059895487,41.0,396.0,0.0
R,U,"[6, 9]",1.0,5.0,0.20221185684204102,1.6149389743804932,0.41247068148878613,41.0,397.0,0.0
R,U,"[5, 9]",0.0,5.0,0.2085399627685547,1.5513169765472412,0.33048887583413256,41.0,398.0,0.0
B,L,"[5, 8]",0.0,5.0,0.20853900909423828,1.895442008972168,0.6755152384896477,41.0,399.0,0.0
R,U,"[4, 8]",0.0,5.0,0.3252100944519043,1.6535289287567139,0.3293377136771339,41.0,400.0,0.0
,,"(6, 6)",,,,,,,,
R,U,"[5, 6]",1.0,1.0,0.7290019989013672,2.814509868621826,0.44355370923103854,42.0,401.0,0.0
Y,R,"[5, 7]",1.0,2.0,0.20847511291503906,1.7646589279174805,0.5584841309316251,42.0,402.0,0.0
Y,R,"[5, 8]",1.0,3.0,0.19076800346374512,1.678468942642212,0.4867029463803445,42.0,403.0,0.0
G,D,"[6, 8]",1.0,4.0,0.21246004104614258,1.4806511402130127,0.26746916091071005,42.0,404.0,0.0
Y,R,"[6, 9]",1.0,5.0,0.19213199615478516,1.5371708869934082,0.3379282081777391,42.0,405.0,0.0
Y,R,"[6, 10]",1.0,6.0,0.1896800994873047,1.8374660015106201,0.6417234992886696,42.0,406.0,0.0
R,U,"[5, 10]",1.0,7.0,0.16260504722595215,1.6813068389892578,0.5231608210814582,42.0,407.0,0.0
R,U,"[4, 10]",1.0,8.0,0.1791532039642334,1.4458670616149902,0.26919201550296074,42.0,408.0,0.0
B,L,"[4, 9]",1.0,9.0,0.16608619689941406,1.5254549980163574,0.3610795055842582,42.0,409.0,0.0
R,U,"[3, 9]",1.0,10.0,0.1684110164642334,1.8632400035858154,0.7078732665402926,42.0,410.0,0.0
,,"(6, 6)",,,,,,,,
R,U,"[5, 6]",-999.0,0.0,0.6585991382598877,2.807426929473877,0.698078680029542,43.0,411.0,-4.0
Y,R,"[5, 7]",-999.0,0.0,0.2650721073150635,1.706130027770996,0.4377526146536117,43.0,412.0,-4.0
Y,R,"[5, 8]",-999.0,0.0,0.2677440643310547,1.919862985610962,0.6577543904182059,43.0,413.0,-4.0
R,U,"[4, 8]",-999.0,0.0,0.5753891468048096,2.1093790531158447,0.5501283774003101,43.0,414.0,-4.0
R,U,"[3, 8]",-999.0,0.0,0.3266890048980713,1.6507561206817627,0.3177228595101978,43.0,415.0,1.0
,,"(6, 6)",,,,,,,,
R,U,"[5, 6]",1.0,1.0,0.8118710517883301,3.188333034515381,0.37254760530659226,44.0,416.0,0.0
Y,R,"[5, 7]",1.0,2.0,0.93044114112854,2.3757290840148926,0.4482018472877153,44.0,417.0,0.0
Y,R,"[5, 8]",1.0,3.0,0.2059941291809082,1.8260471820831299,0.6240550926704971,44.0,418.0,0.0
G,D,"[6, 8]",1.0,4.0,0.20032000541687012,1.4597070217132568,0.2673923201249731,44.0,419.0,0.0
Y,R,"[6, 9]",1.0,5.0,0.20273995399475098,1.635753870010376,0.4362861957601464,44.0,420.0,0.0
,,"(6, 6)",,,,,,,,
G,D,"[6, 9]",-999.0,0.0,0.6969079971313477,4.3714599609375,0.6241635189399511,45.0,421.0,-5.0
G,D,"[6, 9]",-999.0,0.0,0.4076700210571289,2.099392890930176,0.7067693696391294,45.0,422.0,-5.0
G,D,"[6, 9]",-999.0,0.0,0.3876972198486328,1.8775591850280762,0.5011233745168656,45.0,423.0,-5.0
B,L,"[6, 9]",-999.0,0.0,0.4003779888153076,1.9392099380493164,0.5402458696320853,45.0,424.0,-5.0
B,L,"[6, 9]",-999.0,0.0,0.3028428554534912,1.8453378677368164,0.5523958889944133,45.0,425.0,-5.0
R,U,"[6, 9]",-999.0,0.0,0.46491408348083496,1.7675440311431885,0.30322143028613757,45.0,426.0,-5.0
R,U,"[6, 9]",-999.0,0.0,0.46921801567077637,2.129426956176758,0.6655812139383839,45.0,427.0,-5.0
B,L,"[6, 9]",-999.0,0.0,0.48097705841064453,1.765650987625122,0.28164329561971907,45.0,428.0,-5.0
B,L,"[6, 9]",-999.0,0.0,0.33270907402038574,1.6455609798431396,0.3104094252265908,45.0,429.0,-5.0
G,D,"[7, 9]",-999.0,0.0,0.28560304641723633,1.7716870307922363,0.49861320180953256,45.0,430.0,1.0
,,"(6, 6)",,,,,,,,
R,U,"[5, 6]",-999.0,0.0,0.6848728656768799,3.2965078353881836,0.6280983655457673,46.0,431.0,-4.0
Y,R,"[5, 7]",-999.0,0.0,0.3375110626220703,1.980989933013916,0.6591304775381122,46.0,432.0,-4.0
Y,R,"[5, 8]",-999.0,0.0,0.2406940460205078,1.8338661193847656,0.6096947268321811,46.0,433.0,-4.0
R,U,"[4, 8]",-999.0,0.0,0.4286160469055176,1.7232120037078857,0.2998100873132377,46.0,434.0,-4.0
Y,R,"[4, 9]",-999.0,0.0,0.44611096382141113,1.7157940864562988,0.26551101272996214,46.0,435.0,1.0
,,"(6, 6)",,,,,,,,
G,D,"[4, 9]",-999.0,0.0,0.7912180423736572,2.815969944000244,0.381424462510942,47.0,436.0,-5.0
G,D,"[4, 9]",-999.0,0.0,0.26069021224975586,1.753309965133667,0.48455698394244884,47.0,437.0,-5.0
G,D,"[4, 9]",-999.0,0.0,0.3376898765563965,1.8240339756011963,0.4918124213322309,47.0,438.0,-5.0
B,L,"[4, 9]",-999.0,0.0,0.3320739269256592,1.7019259929656982,0.3773822639364088,47.0,439.0,-5.0
B,L,"[4, 9]",-999.0,0.0,0.22402000427246094,1.822981834411621,0.6166662821044189,47.0,440.0,-5.0
,,"(6, 6)",,,,,,,,
R,U,"[5, 6]",-999.0,0.0,0.6248009204864502,3.490154981613159,0.4568791604180758,48.0,441.0,-4.0
Y,R,"[5, 7]",-999.0,0.0,0.52034592628479,2.2063910961151123,0.6967840437370874,48.0,442.0,-4.0
Y,R,"[5, 8]",-999.0,0.0,0.2656209468841553,1.6420769691467285,0.372004636233801,48.0,443.0,-4.0
G,D,"[6, 8]",-999.0,0.0,0.3903031349182129,1.8904590606689453,0.5122750948157451,48.0,444.0,-4.0
Y,R,"[6, 9]",-999.0,0.0,0.3272409439086914,1.896834135055542,0.5590171777496757,48.0,445.0,-4.0
Y,R,"[6, 10]",-999.0,0.0,0.31993913650512695,2.014259099960327,0.7064590050640196,48.0,446.0,-4.0
R,U,"[5, 10]",-999.0,0.0,0.30349206924438477,1.702052116394043,0.4087014690567265,48.0,447.0,-4.0
R,U,"[4, 10]",-999.0,0.0,0.26523494720458984,1.654090166091919,0.39617434439437577,48.0,448.0,-4.0
R,U,"[3, 10]",-999.0,0.0,0.33368897438049316,1.7012579441070557,0.36403182772711573,48.0,449.0,-4.0
B,L,"[3, 9]",-999.0,0.0,0.39555883407592773,1.7896690368652344,0.38687277380351043,48.0,450.0,1.0
,,"(6, 6)",,,,,,,,
B,L,"[3, 9]",-999.0,0.0,0.6220121383666992,3.091494083404541,0.47823090429347803,49.0,451.0,-5.0
B,L,"[3, 9]",-999.0,0.0,0.295853853225708,1.7058300971984863,0.41750618847134413,49.0,452.0,-5.0
R,U,"[3, 9]",-999.0,0.0,0.39118099212646484,1.9260759353637695,0.5434624563613237,49.0,453.0,-5.0
R,U,"[3, 9]",-999.0,0.0,0.1796858310699463,1.5285110473632812,0.355425239635176,49.0,454.0,-5.0
G,D,"[4, 9]",-999.0,0.0,0.44221997261047363,1.8690989017486572,0.42428526164387864,49.0,455.0,1.0
,,"(6, 6)",,,,,,,,
R,U,"[5, 6]",1.0,1.0,0.7165899276733398,3.0642569065093994,0.4386103726227977,50.0,456.0,0.0
Y,R,"[5, 7]",1.0,2.0,0.22080683708190918,1.646003007888794,0.43453850032157776,50.0,457.0,0.0
Y,R,"[5, 8]",1.0,3.0,0.34082603454589844,1.8918530941009521,0.542955956457937,50.0,458.0,0.0
G,D,"[6, 8]",1.0,4.0,0.18647384643554688,1.5335400104522705,0.359967005327679,50.0,459.0,0.0
Y,R,"[6, 9]",1.0,5.0,0.4332120418548584,1.7343740463256836,0.3110077788697101,50.0,460.0,0.0
,,"(6, 6)",,,,,,,,
R,U,"[5, 6]",-999.0,0.0,0.6232421398162842,3.0626909732818604,0.2735511668516068,51.0,461.0,-4.0
Y,R,"[5, 7]",-999.0,0.0,0.4190959930419922,1.9126877784729004,0.5027628442631045,51.0,462.0,-4.0
Y,R,"[5, 8]",-999.0,0.0,0.30243921279907227,1.6427860260009766,0.3455604734957774,51.0,463.0,-4.0
G,D,"[6, 8]",-999.0,0.0,0.4996170997619629,2.0943570137023926,0.589718627295829,51.0,464.0,-4.0
Y,R,"[6, 9]",-999.0,0.0,0.3179800510406494,1.9699158668518066,0.6599381807731384,51.0,465.0,-4.0
Y,R,"[6, 10]",-999.0,0.0,0.34134793281555176,1.7937920093536377,0.470064377391499,51.0,466.0,-4.0
R,U,"[5, 10]",-999.0,0.0,0.4294898509979248,2.1471331119537354,0.7173524883205027,51.0,467.0,-4.0
R,U,"[4, 10]",-999.0,0.0,0.20560097694396973,1.8099009990692139,0.6102548254714348,51.0,468.0,-4.0
R,U,"[3, 10]",-999.0,0.0,0.29949307441711426,1.7891628742218018,0.4993794747205463,51.0,469.0,-4.0
Y,R,"[3, 11]",-999.0,0.0,0.36644411087036133,2.047391891479492,0.6800019709055304,51.0,470.0,1.0
,,"(6, 6)",,,,,,,,
R,U,"[5, 6]",1.0,1.0,0.5251119136810303,2.8923559188842773,0.47243162713181264,52.0,471.0,0.0
Y,R,"[5, 7]",1.0,2.0,0.18396306037902832,1.7107880115509033,0.5332692039653188,52.0,472.0,0.0
Y,R,"[5, 8]",1.0,3.0,0.16824889183044434,1.441209077835083,0.27450494797659014,52.0,473.0,0.0
G,D,"[6, 8]",1.0,4.0,0.1999669075012207,1.6094880104064941,0.4172489390483187,52.0,474.0,0.0
Y,R,"[6, 9]",1.0,5.0,0.16736102104187012,1.688140869140625,0.5219486445954766,52.0,475.0,0.0
Y,R,"[6, 10]",1.0,6.0,0.16606712341308594,1.833549976348877,0.6719636153754853,52.0,476.0,0.0
R,U,"[5, 10]",1.0,7.0,0.24046802520751953,1.7643299102783203,0.5197018181392088,52.0,477.0,0.0
R,U,"[4, 10]",1.0,8.0,0.13987112045288086,1.5720951557159424,0.42521704861029674,52.0,478.0,0.0
B,L,"[4, 9]",1.0,9.0,0.194260835647583,1.6674950122833252,0.476017635796908,52.0,479.0,0.0
R,U,"[3, 9]",1.0,10.0,0.18050408363342285,1.4900929927825928,0.3162719990674438,52.0,480.0,0.0
,,"(6, 6)",,,,,,,,
R,U,"[5, 6]",-999.0,0.0,0.4477388858795166,2.4527950286865234,0.26898908934479937,53.0,481.0,-4.0
Y,R,"[5, 7]",-999.0,0.0,0.3196258544921875,1.6871140003204346,0.37283925286437536,53.0,482.0,-4.0
Y,R,"[5, 8]",-999.0,0.0,0.3082008361816406,1.87204909324646,0.5776503601695009,53.0,483.0,-4.0
R,U,"[4, 8]",-999.0,0.0,0.3784830570220947,1.7224810123443604,0.3504879590579622,53.0,484.0,-4.0
R,U,"[3, 8]",-999.0,0.0,0.6921610832214355,2.049006938934326,0.3494761830567028,53.0,485.0,1.0
,,"(6, 6)",,,,,,,,
R,U,"[5, 6]",1.0,1.0,0.5642869472503662,2.8230528831481934,0.5387887861693534,54.0,486.0,0.0
Y,R,"[5, 7]",1.0,2.0,0.18564796447753906,1.6053152084350586,0.42760847301144567,54.0,487.0,0.0
Y,R,"[5, 8]",1.0,3.0,0.40743112564086914,1.6889190673828125,0.2832969880632195,54.0,488.0,0.0
G,D,"[6, 8]",1.0,4.0,0.8693759441375732,2.2078800201416016,0.3410854228742343,54.0,489.0,0.0
Y,R,"[6, 9]",1.0,5.0,0.17173099517822266,1.5806491374969482,0.40490037190369293,54.0,490.0,0.0
,,"(6, 6)",,,,,,,,
B,L,"[6, 9]",-999.0,0.0,0.6544671058654785,3.6048030853271484,0.5595177754965924,55.0,491.0,-5.0
B,L,"[6, 9]",-999.0,0.0,0.3890550136566162,1.8874311447143555,0.5135618649976428,55.0,492.0,-5.0
R,U,"[6, 9]",-999.0,0.0,0.5120198726654053,2.0280039310455322,0.5082785934338689,55.0,493.0,-5.0
R,U,"[6, 9]",-999.0,0.0,0.23531699180603027,1.9598541259765625,0.7345130060106451,55.0,494.0,-5.0
Y,R,"[6, 10]",-999.0,0.0,0.4147021770477295,1.8373548984527588,0.42217625263246616,55.0,495.0,1.0
,,"(6, 6)",,,,,,,,
R,U,"[5, 6]",1.0,1.0,0.4152359962463379,3.310976028442383,0.7329542381817344,56.0,496.0,0.0
Y,R,"[5, 7]",1.0,2.0,0.1598360538482666,1.4725761413574219,0.3056692742004373,56.0,497.0,0.0
Y,R,"[5, 8]",1.0,3.0,0.22597599029541016,1.5878820419311523,0.36010681963825353,56.0,498.0,0.0
G,D,"[6, 8]",1.0,4.0,0.2137138843536377,1.5355808734893799,0.3290739635181156,56.0,499.0,0.0
Y,R,"[6, 9]",1.0,5.0,0.1857619285583496,1.6217098236083984,0.4339776723191527,56.0,500.0,0.0
,,"(6, 6)",,,,,,,,
R,U,"[5, 6]",1.0,1.0,0.5610589981079102,3.980936050415039,0.5649934648001776,57.0,501.0,0.0
Y,R,"[5, 7]",1.0,2.0,0.2416071891784668,1.9357481002807617,0.6836348428483321,57.0,502.0,0.0
Y,R,"[5, 8]",1.0,3.0,0.24318599700927734,1.940943956375122,0.6911058222021661,57.0,503.0,0.0
G,D,"[6, 8]",1.0,4.0,0.18390583992004395,1.5976359844207764,0.4223265653996088,57.0,504.0,0.0
Y,R,"[6, 9]",1.0,5.0,0.16592788696289062,1.5468831062316895,0.3859780023746338,57.0,505.0,0.0
Y,R,"[6, 10]",1.0,6.0,0.2738680839538574,1.722208023071289,0.4414076828709265,57.0,506.0,0.0
R,U,"[5, 10]",1.0,7.0,0.2172079086303711,1.9314069747924805,0.7225006818667243,57.0,507.0,0.0
R,U,"[4, 10]",1.0,8.0,0.8224880695343018,2.0791640281677246,0.26867147820218,57.0,508.0,0.0
B,L,"[4, 9]",1.0,9.0,0.15915894508361816,1.7283179759979248,0.563295353870686,57.0,509.0,0.0
R,U,"[3, 9]",1.0,10.0,0.16619110107421875,1.420240879058838,0.25055717953718,57.0,510.0,0.0
,,"(6, 6)",,,,,,,,
R,U,"[5, 6]",1.0,1.0,0.45667004585266113,2.4603638648986816,0.32751808776334673,58.0,511.0,0.0
Y,R,"[5, 7]",1.0,2.0,0.20146989822387695,1.757472038269043,0.5680250500733552,58.0,512.0,0.0
Y,R,"[5, 8]",1.0,3.0,0.38277506828308105,1.6792330741882324,0.297498025200462,58.0,513.0,0.0
G,D,"[6, 8]",1.0,4.0,0.17444992065429688,1.6628241539001465,0.47667446048264406,58.0,514.0,0.0
Y,R,"[6, 9]",1.0,5.0,0.1515049934387207,1.6404540538787842,0.5005066703661918,58.0,515.0,0.0
Y,R,"[6, 10]",-1.0,5.0,0.03601384162902832,5.616857051849365,0.5005070153089224,58.0,516.0,0.0
R,U,"[5, 10]",1.0,6.0,0.19877409934997559,1.6007869243621826,0.4014176718249371,58.0,517.0,0.0
R,U,"[4, 10]",1.0,7.0,0.17873501777648926,1.8843472003936768,0.7020391984468292,58.0,518.0,0.0
B,L,"[4, 9]",1.0,8.0,0.1713399887084961,1.869488000869751,0.7047888117540524,58.0,519.0,0.0
R,U,"[3, 9]",1.0,9.0,0.14569902420043945,1.8135650157928467,0.6686221876292913,58.0,520.0,0.0
,,"(6, 6)",,,,,,,,
R,U,"[5, 6]",-999.0,0.0,0.6287631988525391,2.824949026107788,0.7432507857394413,59.0,521.0,-4.0
Y,R,"[5, 7]",-999.0,0.0,0.37329983711242676,1.789402961730957,0.43283946999497064,59.0,522.0,-4.0
Y,R,"[5, 8]",-999.0,0.0,0.4443349838256836,1.8827929496765137,0.43236720939292206,59.0,523.0,-4.0
R,U,"[4, 8]",-999.0,0.0,0.3139519691467285,1.6688859462738037,0.3513079715950051,59.0,524.0,-4.0
Y,R,"[4, 9]",-2.0,0.0,1.2545831203460693,2.6951849460601807,0.4797571312569245,59.0,525.0,1.0
,,"(6, 6)",,,,,,,,
B,L,"[4, 9]",-999.0,0.0,0.6578099727630615,3.910343885421753,0.7398531938706677,60.0,526.0,-5.0
B,L,"[4, 9]",-999.0,0.0,0.285585880279541,1.7925238609313965,0.5156694185204325,60.0,527.0,-5.0
R,U,"[4, 9]",-999.0,0.0,0.4082520008087158,1.7210638523101807,0.32020068141095304,60.0,528.0,-5.0
R,U,"[4, 9]",-999.0,0.0,0.2785329818725586,1.9039719104766846,0.6238282411351325,60.0,529.0,-5.0
G,D,"[5, 9]",-999.0,0.0,0.3985099792480469,1.676936149597168,0.28442460379436946,60.0,530.0,1.0
,,"(6, 6)",,,,,,,,
R,U,"[5, 6]",1.0,1.0,0.6847450733184814,2.960667133331299,0.6279635025388661,61.0,531.0,0.0
Y,R,"[5, 7]",1.0,2.0,0.17220783233642578,1.4871509075164795,0.3320134006327131,61.0,532.0,0.0
Y,R,"[5, 8]",1.0,3.0,0.16712188720703125,1.9169199466705322,0.7486030048587786,61.0,533.0,0.0
G,D,"[6, 8]",1.0,4.0,0.2124919891357422,1.7069330215454102,0.4889753350431316,61.0,534.0,0.0
Y,R,"[6, 9]",1.0,5.0,0.1757640838623047,1.6998851299285889,0.5221707133068915,61.0,535.0,0.0
Y,R,"[6, 10]",1.0,6.0,0.19442105293273926,1.5606260299682617,0.36628028735781487,61.0,536.0,0.0
R,U,"[5, 10]",1.0,7.0,0.30081796646118164,1.8379671573638916,0.537358958532535,61.0,537.0,0.0
R,U,"[4, 10]",1.0,8.0,0.17245697975158691,1.4448261260986328,0.2658042692330822,61.0,538.0,0.0
B,L,"[4, 9]",1.0,9.0,0.2524688243865967,1.8353979587554932,0.5842021953970817,61.0,539.0,0.0
R,U,"[3, 9]",1.0,10.0,0.1731550693511963,1.7861790657043457,0.6036188910058459,61.0,540.0,0.0
,,"(6, 6)",,,,,,,,
R,U,"[5, 6]",1.0,1.0,0.6156890392303467,3.160888910293579,0.5648000330409988,62.0,541.0,0.0
R,U,"[4, 6]",0.0,1.0,0.341094970703125,1.8280119895935059,0.47598156747059095,62.0,542.0,0.0
Y,R,"[4, 7]",0.0,1.0,0.17838501930236816,1.6838080883026123,0.5096236618793375,62.0,543.0,0.0
G,D,"[5, 7]",1.0,2.0,0.21607184410095215,1.9091219902038574,0.7018375905936185,62.0,544.0,0.0
Y,R,"[5, 8]",1.0,3.0,0.18934297561645508,1.6368157863616943,0.4387561376275779,62.0,545.0,0.0
Y,R,"[5, 9]",0.0,3.0,0.33500194549560547,1.846648931503296,0.5187725595246848,62.0,546.0,0.0
R,U,"[4, 9]",1.0,4.0,0.17053794860839844,1.7708959579467773,0.6062002796198217,62.0,547.0,0.0
R,U,"[3, 9]",1.0,5.0,0.18831610679626465,1.6228001117706299,0.4291721235003378,62.0,548.0,0.0
B,L,"[3, 8]",0.0,5.0,0.2470259666442871,1.8322570323944092,0.5778209587053185,62.0,549.0,0.0
R,U,"[2, 8]",0.0,5.0,0.16350293159484863,1.5376501083374023,0.3824006542498716,62.0,550.0,0.0
,,"(6, 6)",,,,,,,,
R,U,"[5, 6]",1.0,1.0,0.522252082824707,2.3400638103485107,0.32244410945682733,63.0,551.0,0.0
Y,R,"[5, 7]",1.0,2.0,0.18997907638549805,1.6639809608459473,0.469572477552677,63.0,552.0,0.0
Y,R,"[5, 8]",1.0,3.0,0.41181206703186035,1.8486809730529785,0.4348750695331251,63.0,553.0,0.0
G,D,"[6, 8]",1.0,4.0,0.16321206092834473,1.6886019706726074,0.5232750721911876,63.0,554.0,0.0
Y,R,"[6, 9]",1.0,5.0,0.1963198184967041,1.9323608875274658,0.73881762144269,63.0,555.0,0.0
Y,R,"[6, 10]",1.0,6.0,0.16957616806030273,1.572901964187622,0.41192346420065157,63.0,556.0,0.0
R,U,"[5, 10]",1.0,7.0,0.1905670166015625,1.532412052154541,0.3276606257321236,63.0,557.0,0.0
R,U,"[4, 10]",1.0,8.0,0.3005259037017822,1.9050548076629639,0.6158806891129354,63.0,558.0,0.0
B,L,"[4, 9]",1.0,9.0,0.1819469928741455,1.929447889328003,0.7452711653663898,63.0,559.0,0.0
R,U,"[3, 9]",1.0,10.0,0.16851115226745605,1.4877870082855225,0.31667893159571797,63.0,560.0,0.0
,,"(6, 6)",,,,,,,,
R,U,"[5, 6]",-999.0,0.0,0.5569679737091064,2.549281120300293,0.34915944065101073,64.0,561.0,-4.0
Y,R,"[5, 7]",-999.0,0.0,0.4032320976257324,1.7610349655151367,0.36021458717581734,64.0,562.0,-4.0
Y,R,"[5, 8]",-999.0,0.0,0.3953251838684082,2.010072946548462,0.619856652248379,64.0,563.0,-4.0
G,D,"[6, 8]",-999.0,0.0,0.5914788246154785,2.0542800426483154,0.4743982865250036,64.0,564.0,-4.0
Y,R,"[6, 9]",-999.0,0.0,0.2655041217803955,1.974557876586914,0.7151976561290296,64.0,565.0,-4.0
Y,R,"[6, 10]",-999.0,0.0,0.22205185890197754,1.5093579292297363,0.29167180237056706,64.0,566.0,-4.0
R,U,"[5, 10]",-999.0,0.0,0.3754770755767822,1.6151909828186035,0.2567947240848229,64.0,567.0,-4.0
R,U,"[4, 10]",-999.0,0.0,0.3964560031890869,2.088252067565918,0.6947235742815899,64.0,568.0,-4.0
R,U,"[3, 10]",-999.0,0.0,0.3697381019592285,2.028679132461548,0.6733720681489053,64.0,569.0,-4.0
B,L,"[3, 9]",-999.0,0.0,0.28273582458496094,1.6985280513763428,0.42199932813578905,64.0,570.0,1.0
,,"(6, 6)",,,,,,,,
R,U,"[5, 6]",1.0,1.0,0.40765810012817383,2.888385057449341,0.2605789185078323,65.0,571.0,0.0
Y,R,"[5, 7]",1.0,2.0,0.2155919075012207,1.524446964263916,0.31825041023741685,65.0,572.0,0.0
Y,R,"[5, 8]",1.0,3.0,0.18805813789367676,1.6918861865997314,0.5099206257255606,65.0,573.0,0.0
G,D,"[6, 8]",1.0,4.0,0.18173789978027344,1.710223913192749,0.5366287205542495,65.0,574.0,0.0
G,D,"[7, 8]",0.0,4.0,0.1941061019897461,1.6224799156188965,0.4260238663014769,65.0,575.0,0.0
Y,R,"[7, 9]",0.0,4.0,0.1663808822631836,1.6196060180664062,0.46221958637788035,65.0,576.0,0.0
R,U,"[6, 9]",1.0,5.0,0.15603208541870117,1.718303918838501,0.5469850371352383,65.0,577.0,0.0
R,U,"[5, 9]",0.0,5.0,0.162506103515625,1.4446330070495605,0.27523711791746497,65.0,578.0,0.0
B,L,"[5, 8]",0.0,5.0,0.1690678596496582,1.707258939743042,0.5488950672661119,65.0,579.0,0.0
G,D,"[6, 8]",0.0,5.0,0.19828319549560547,1.8908839225769043,0.6896097492396367,65.0,580.0,0.0
,,"(6, 6)",,,,,,,,
R,U,"[5, 6]",1.0,1.0,0.4228811264038086,2.713747978210449,0.3035794566880956,66.0,581.0,0.0
Y,R,"[5, 7]",1.0,2.0,0.23023414611816406,1.9428820610046387,0.7126895664409909,66.0,582.0,0.0
Y,R,"[5, 8]",1.0,3.0,0.4033370018005371,1.842628002166748,0.4389229803717321,66.0,583.0,0.0
G,D,"[6, 8]",1.0,4.0,0.22896313667297363,1.7555980682373047,0.527763498703461,66.0,584.0,0.0
Y,R,"[6, 9]",1.0,5.0,0.6059000492095947,1.887801170349121,0.2823848910177578,66.0,585.0,0.0
Y,R,"[6, 10]",1.0,6.0,0.1908729076385498,1.7577919960021973,0.556629077616803,66.0,586.0,0.0
R,U,"[5, 10]",1.0,7.0,0.17984700202941895,1.5434589385986328,0.3669671730779743,66.0,587.0,0.0
R,U,"[4, 10]",1.0,8.0,0.17087602615356445,1.5599908828735352,0.37682397425591263,66.0,588.0,0.0
B,L,"[4, 9]",1.0,9.0,0.19987201690673828,1.8200371265411377,0.6298885666891526,66.0,589.0,0.0
R,U,"[3, 9]",1.0,10.0,0.17354917526245117,1.5051710605621338,0.318692523302475,66.0,590.0,0.0
,,"(6, 6)",,,,,,,,
B,L,"[3, 9]",-999.0,0.0,0.7525348663330078,2.649669885635376,0.4015637359201789,67.0,591.0,-5.0
B,L,"[3, 9]",-999.0,0.0,0.2785630226135254,1.7192771434783936,0.43743624203016784,67.0,592.0,-5.0
R,U,"[3, 9]",-999.0,0.0,0.33074307441711426,1.6179301738739014,0.2887837749792494,67.0,593.0,-5.0
R,U,"[3, 9]",-999.0,0.0,0.2281489372253418,1.6974740028381348,0.4693230537144117,67.0,594.0,-5.0
Y,R,"[3, 10]",-999.0,0.0,0.3341701030731201,1.9268598556518555,0.5961243336562836,67.0,595.0,1.0
,,"(6, 6)",,,,,,,,
B,L,"[3, 10]",-999.0,0.0,0.6915349960327148,4.503273010253906,0.7159396521329388,68.0,596.0,-5.0
B,L,"[3, 10]",-999.0,0.0,0.33672285079956055,1.7549071311950684,0.4209723452795645,68.0,597.0,-5.0
R,U,"[3, 10]",-999.0,0.0,0.4636549949645996,1.834226131439209,0.37190302739150205,68.0,598.0,-5.0
R,U,"[3, 10]",-999.0,0.0,0.2794489860534668,1.5762019157409668,0.2981228650964613,68.0,599.0,-5.0
Y,R,"[3, 11]",-999.0,0.0,0.36243605613708496,1.8333549499511719,0.46452988326677197,68.0,600.0,1.0
,,"(6, 6)",,,,,,,,
R,U,"[5, 6]",1.0,1.0,0.5189580917358398,3.458043098449707,0.40602362426094024,69.0,601.0,0.0
Y,R,"[5, 7]",1.0,2.0,0.20083999633789062,1.8222620487213135,0.6280207795466383,69.0,602.0,0.0
Y,R,"[5, 8]",1.0,3.0,0.17816495895385742,1.5961999893188477,0.4243795941911331,69.0,603.0,0.0
G,D,"[6, 8]",1.0,4.0,0.1860198974609375,1.583348035812378,0.4076763767532717,69.0,604.0,0.0
Y,R,"[6, 9]",1.0,5.0,0.16467690467834473,1.6188290119171143,0.45983823135343915,69.0,605.0,0.0
Y,R,"[6, 10]",1.0,6.0,0.16970109939575195,1.8974368572235107,0.7402166480085477,69.0,606.0,0.0
R,U,"[5, 10]",1.0,7.0,0.16988396644592285,1.687729835510254,0.5281487203388172,69.0,607.0,0.0
R,U,"[4, 10]",1.0,8.0,0.16679906845092773,1.8253028392791748,0.6699432240275383,69.0,608.0,0.0
B,L,"[4, 9]",1.0,9.0,0.17328190803527832,1.765321969985962,0.585338063720876,69.0,609.0,0.0
R,U,"[3, 9]",1.0,10.0,0.16663479804992676,1.8097820281982422,0.6450081454105661,69.0,610.0,0.0
,,"(6, 6)",,,,,,,,
R,U,"[5, 6]",-999.0,0.0,0.4425230026245117,2.3770508766174316,0.32229839987605957,70.0,611.0,-4.0
Y,R,"[5, 7]",-999.0,0.0,0.2732429504394531,1.9195890426635742,0.6586058685608027,70.0,612.0,-4.0
Y,R,"[5, 8]",-999.0,0.0,0.3896050453186035,1.6386489868164062,0.26380410202976856,70.0,613.0,-4.0
G,D,"[6, 8]",-999.0,0.0,0.4215388298034668,2.0964908599853516,0.6766181558734055,70.0,614.0,-4.0
Y,R,"[6, 9]",-999.0,0.0,0.19425392150878906,1.583867073059082,0.393974196905165,70.0,615.0,-4.0
Y,R,"[6, 10]",-999.0,0.0,0.20485901832580566,1.6257400512695312,0.4363799263683772,70.0,616.0,-4.0
R,U,"[5, 10]",-999.0,0.0,0.22152113914489746,1.7323651313781738,0.5184806129730942,70.0,617.0,-4.0
R,U,"[4, 10]",-999.0,0.0,0.18709802627563477,1.5068209171295166,0.3255657291621953,70.0,618.0,-4.0
R,U,"[3, 10]",-999.0,0.0,0.4131298065185547,1.8053529262542725,0.39742618188969603,70.0,619.0,-4.0
Y,R,"[3, 11]",-999.0,0.0,0.2915048599243164,1.6547257900238037,0.35243315591967955,70.0,620.0,1.0
,,"(6, 6)",,,,,,,,
R,U,"[5, 6]",1.0,1.0,0.44053101539611816,2.711383104324341,0.3302310388202688,71.0,621.0,0.0
Y,R,"[5, 7]",1.0,2.0,0.17777705192565918,1.6344830989837646,0.44792553411375907,71.0,622.0,0.0
Y,R,"[5, 8]",1.0,3.0,0.14008307456970215,1.5576889514923096,0.4056397925288153,71.0,623.0,0.0
G,D,"[6, 8]",1.0,4.0,0.18242192268371582,1.6370179653167725,0.45923383417311714,71.0,624.0,0.0
Y,R,"[6, 9]",1.0,5.0,0.13711905479431152,1.7367610931396484,0.6124392199660817,71.0,625.0,0.0
Y,R,"[6, 10]",1.0,6.0,0.17306184768676758,1.534290075302124,0.3636752014900428,71.0,626.0,0.0
R,U,"[5, 10]",1.0,7.0,0.17121410369873047,1.7562108039855957,0.5862892510941999,71.0,627.0,0.0
R,U,"[4, 10]",1.0,8.0,0.17476797103881836,1.6974928379058838,0.5170445692678279,71.0,628.0,0.0
B,L,"[4, 9]",1.0,9.0,0.16571879386901855,1.4964239597320557,0.33035978021593226,71.0,629.0,0.0
R,U,"[3, 9]",1.0,10.0,0.16768288612365723,1.7083508968353271,0.538444753403214,71.0,630.0,0.0
,,"(6, 6)",,,,,,,,
R,U,"[5, 6]",1.0,1.0,0.4569370746612549,2.3557629585266113,0.3943466290275094,72.0,631.0,0.0
Y,R,"[5, 7]",1.0,2.0,0.17818498611450195,1.4428761005401611,0.2705818764942763,72.0,632.0,0.0
Y,R,"[5, 8]",1.0,3.0,0.1597139835357666,1.7379021644592285,0.5748022261214571,72.0,633.0,0.0
G,D,"[6, 8]",-1.0,3.0,0.08937907218933105,5.463733911514282,0.32207798392938813,72.0,634.0,0.0
Y,R,"[6, 9]",1.0,4.0,0.23273801803588867,1.8208849430084229,0.5926484532193907,72.0,635.0,0.0
Y,R,"[6, 10]",1.0,5.0,0.17095398902893066,1.8665428161621094,0.6923819773384036,72.0,636.0,0.0
R,U,"[5, 10]",1.0,6.0,0.17328882217407227,1.4265978336334229,0.26944613956502,72.0,637.0,0.0
R,U,"[4, 10]",1.0,7.0,0.2799677848815918,1.8093688488006592,0.528360971768122,72.0,638.0,0.0
B,L,"[4, 9]",1.0,8.0,0.17549991607666016,1.641793966293335,0.47029737136239236,72.0,639.0,0.0
R,U,"[3, 9]",1.0,9.0,0.1920480728149414,1.9083878993988037,0.7117767949101912,72.0,640.0,0.0
,,"(6, 6)",,,,,,,,
R,U,"[5, 6]",1.0,1.0,0.47817182540893555,2.467540979385376,0.37956867177538434,73.0,641.0,0.0
Y,R,"[5, 7]",1.0,2.0,0.18050312995910645,1.7188310623168945,0.5314574848657567,73.0,642.0,0.0
Y,R,"[5, 8]",1.0,3.0,0.17688393592834473,1.8260271549224854,0.6407434285110329,73.0,643.0,0.0
G,D,"[6, 8]",1.0,4.0,0.18119192123413086,1.5522680282592773,0.37652193621320584,73.0,644.0,0.0
Y,R,"[6, 9]",1.0,5.0,0.20717716217041016,1.685619831085205,0.4787661772867983,73.0,645.0,0.0
Y,R,"[6, 10]",1.0,6.0,0.1722719669342041,1.6391589641571045,0.45114689460976864,73.0,646.0,0.0
R,U,"[5, 10]",1.0,7.0,0.1928539276123047,1.851675033569336,0.6526224762167914,73.0,647.0,0.0
R,U,"[4, 10]",1.0,8.0,0.13080692291259766,1.8778750896453857,0.7470295065650474,73.0,648.0,0.0
B,L,"[4, 9]",1.0,9.0,0.16747093200683594,1.7103090286254883,0.5408854680553699,73.0,649.0,0.0
R,U,"[3, 9]",1.0,10.0,0.20143795013427734,1.8148651123046875,0.6223325548893293,73.0,650.0,0.0
,,"(6, 6)",,,,,,,,
R,U,"[5, 6]",-2.0,0.0,1.191774845123291,3.6709041595458984,0.6930780265200305,74.0,651.0,0.0
Y,R,"[5, 7]",1.0,1.0,0.17107486724853516,1.8919589519500732,0.7350030975965033,74.0,652.0,0.0
Y,R,"[5, 8]",1.0,2.0,0.1720888614654541,1.8007550239562988,0.6191604999261953,74.0,653.0,0.0
G,D,"[6, 8]",1.0,3.0,0.29511404037475586,1.6355879306793213,0.33836090834243276,74.0,654.0,0.0
Y,R,"[6, 9]",1.0,4.0,0.32279491424560547,1.8718619346618652,0.559914493417826,74.0,655.0,0.0
Y,R,"[6, 10]",1.0,5.0,0.18807101249694824,1.4862029552459717,0.31296803010861723,74.0,656.0,0.0
R,U,"[5, 10]",1.0,6.0,0.1840379238128662,1.6242620944976807,0.437103892065681,74.0,657.0,0.0
R,U,"[4, 10]",1.0,7.0,0.1793229579925537,1.6430139541625977,0.4634350506895134,74.0,658.0,0.0
B,L,"[4, 9]",1.0,8.0,0.16733193397521973,1.7365729808807373,0.5664238377193227,74.0,659.0,0.0
R,U,"[3, 9]",1.0,9.0,0.17336297035217285,1.6384220123291016,0.4716260659562119,74.0,660.0,0.0
,,"(6, 6)",,,,,,,,
R,U,"[5, 6]",1.0,1.0,0.49943089485168457,2.656761884689331,0.6782727216005137,75.0,661.0,0.0
Y,R,"[5, 7]",1.0,2.0,0.192702054977417,1.6622929573059082,0.47384170955333105,75.0,662.0,0.0
Y,R,"[5, 8]",1.0,3.0,0.19301390647888184,1.561323881149292,0.3686880789649243,75.0,663.0,0.0
G,D,"[6, 8]",1.0,4.0,0.21352195739746094,1.5444979667663574,0.3298104174449326,75.0,664.0,0.0
Y,R,"[6, 9]",1.0,5.0,0.16840696334838867,1.4384369850158691,0.2683063659150434,75.0,665.0,0.0
Y,R,"[6, 10]",1.0,6.0,0.1819140911102295,1.5920319557189941,0.41013614042557617,75.0,666.0,0.0
R,U,"[5, 10]",1.0,7.0,0.16362500190734863,1.674612045288086,0.5179941862967727,75.0,667.0,0.0
R,U,"[4, 10]",1.0,8.0,0.17527198791503906,1.871492862701416,0.6893192979408533,75.0,668.0,0.0
B,L,"[4, 9]",1.0,9.0,0.18061614036560059,1.797071933746338,0.6197616881432197,75.0,669.0,0.0
R,U,"[3, 9]",1.0,10.0,0.19358015060424805,1.7722499370574951,0.5752298087051531,75.0,670.0,0.0
,,"(6, 6)",,,,,,,,
R,U,"[5, 6]",1.0,1.0,0.5311799049377441,2.5750110149383545,0.6502262721563893,76.0,671.0,0.0
Y,R,"[5, 7]",1.0,2.0,0.15254998207092285,1.8852009773254395,0.7352417318138641,76.0,672.0,0.0
Y,R,"[5, 8]",1.0,3.0,0.3462090492248535,1.9069459438323975,0.5589639479381654,76.0,673.0,0.0
G,D,"[6, 8]",1.0,4.0,0.20019984245300293,1.8716681003570557,0.6808576167528804,76.0,674.0,0.0
Y,R,"[6, 9]",1.0,5.0,0.16581392288208008,1.5001320838928223,0.3309602847766523,76.0,675.0,0.0
Y,R,"[6, 10]",1.0,6.0,0.1808769702911377,1.7041971683502197,0.5183465126570237,76.0,676.0,0.0
R,U,"[5, 10]",1.0,7.0,0.16695499420166016,1.5107531547546387,0.3459432370487041,76.0,677.0,0.0
R,U,"[4, 10]",1.0,8.0,0.18111681938171387,1.8850390911102295,0.6971093662165813,76.0,678.0,0.0
B,L,"[4, 9]",1.0,9.0,0.17178606986999512,1.5332820415496826,0.3641344449475544,76.0,679.0,0.0
R,U,"[3, 9]",1.0,10.0,0.17645597457885742,1.612680196762085,0.4266351010155789,76.0,680.0,0.0
,,"(6, 6)",,,,,,,,
R,U,"[5, 6]",1.0,1.0,0.44144392013549805,2.3419060707092285,0.48510516612321125,77.0,681.0,0.0
Y,R,"[5, 7]",1.0,2.0,0.17967820167541504,1.5110571384429932,0.32969752958648973,77.0,682.0,0.0
Y,R,"[5, 8]",1.0,3.0,0.19301509857177734,1.6944830417633057,0.4905119769826252,77.0,683.0,0.0
G,D,"[6, 8]",1.0,4.0,0.1633739471435547,1.602241039276123,0.44291929013723513,77.0,684.0,0.0
Y,R,"[6, 9]",-1.0,4.0,0.06818389892578125,5.874037981033325,0.7333733187713253,77.0,685.0,0.0
Y,R,"[6, 10]",1.0,5.0,0.17313194274902344,1.858738899230957,0.6919526186657039,77.0,686.0,0.0
R,U,"[5, 10]",1.0,6.0,0.2741389274597168,1.5244910717010498,0.2501480245719192,77.0,687.0,0.0
R,U,"[4, 10]",1.0,7.0,0.23465609550476074,1.9027678966522217,0.6690069426115353,77.0,688.0,0.0
B,L,"[4, 9]",1.0,8.0,0.16368794441223145,1.8762290477752686,0.7119212721164614,77.0,689.0,0.0
R,U,"[3, 9]",1.0,9.0,0.15853285789489746,1.5256869792938232,0.3546456600755991,77.0,690.0,0.0
,,"(6, 6)",,,,,,,,
B,L,"[3, 9]",-999.0,0.0,0.7777390480041504,3.283888816833496,0.521904100534369,78.0,691.0,-5.0
B,L,"[3, 9]",-999.0,0.0,0.3142688274383545,1.6328458786010742,0.3213270833334285,78.0,692.0,-5.0
R,U,"[3, 9]",-999.0,0.0,0.3096299171447754,2.022228956222534,0.7263916543771908,78.0,693.0,-5.0
R,U,"[3, 9]",-999.0,0.0,0.18129205703735352,1.436401128768921,0.26317962561227054,78.0,694.0,-5.0
B,L,"[3, 8]",-999.0,0.0,0.3323500156402588,1.657029151916504,0.3202137371319457,78.0,695.0,1.0
,,"(6, 6)",,,,,,,,
B,L,"[3, 8]",-999.0,0.0,0.6384799480438232,3.5596230030059814,0.6294921413097624,79.0,696.0,-5.0
B,L,"[3, 8]",-999.0,0.0,0.18256902694702148,1.4460639953613281,0.2592505039034292,79.0,697.0,-5.0
R,U,"[3, 8]",-999.0,0.0,0.2582089900970459,1.9295830726623535,0.6882366177279684,79.0,698.0,-5.0
R,U,"[3, 8]",-999.0,0.0,0.19712114334106445,1.925903081893921,0.7308138056813105,79.0,699.0,-5.0
B,L,"[3, 7]",-999.0,0.0,0.2535669803619385,1.6580979824066162,0.40580253379140185,79.0,700.0,1.0
,,"(6, 6)",,,,,,,,
R,U,"[5, 6]",1.0,1.0,0.5126008987426758,2.7797670364379883,0.2855880193438116,80.0,701.0,0.0
Y,R,"[5, 7]",1.0,2.0,0.17709994316101074,1.8603339195251465,0.678954202424765,80.0,702.0,0.0
Y,R,"[5, 8]",1.0,3.0,0.17786192893981934,1.5989339351654053,0.4115256523519653,80.0,703.0,0.0
G,D,"[6, 8]",1.0,4.0,0.19423198699951172,1.7487730979919434,0.5600814006449351,80.0,704.0,0.0
Y,R,"[6, 9]",1.0,5.0,0.17412519454956055,1.918628215789795,0.7451656323751515,80.0,705.0,0.0
Y,R,"[6, 10]",1.0,6.0,0.16210007667541504,1.5647931098937988,0.3934946258584517,80.0,706.0,0.0
R,U,"[5, 10]",1.0,7.0,0.6498022079467773,1.9378130435943604,0.2980934780131663,80.0,707.0,0.0
R,U,"[4, 10]",1.0,8.0,0.16699695587158203,1.6664931774139404,0.4976331973814579,80.0,708.0,0.0
B,L,"[4, 9]",1.0,9.0,0.176131010055542,1.5146141052246094,0.32913623450913787,80.0,709.0,0.0
R,U,"[3, 9]",1.0,10.0,0.15043401718139648,1.7709429264068604,0.6166448691873918,80.0,710.0,0.0
,,"(6, 6)",,,,,,,,
R,U,"[5, 6]",1.0,1.0,0.4981038570404053,2.5275139808654785,0.5439547945119337,81.0,711.0,0.0
Y,R,"[5, 7]",1.0,2.0,0.18005084991455078,1.8314030170440674,0.6584486591012133,81.0,712.0,0.0
Y,R,"[5, 8]",1.0,3.0,0.17067790031433105,1.6980140209197998,0.5398867843243311,81.0,713.0,0.0
G,D,"[6, 8]",1.0,4.0,0.17966294288635254,1.5855510234832764,0.4089180020316167,81.0,714.0,0.0
Y,R,"[6, 9]",1.0,5.0,0.15846490859985352,1.547307014465332,0.38945477596527545,81.0,715.0,0.0
Y,R,"[6, 10]",1.0,6.0,0.2054121494293213,1.859726905822754,0.6659632647566066,81.0,716.0,0.0
R,U,"[5, 10]",1.0,7.0,0.18165016174316406,1.8842358589172363,0.6997817621441134,81.0,717.0,0.0
R,U,"[4, 10]",1.0,8.0,0.17326593399047852,1.7321088314056396,0.5487220152325107,81.0,718.0,0.0
B,L,"[4, 9]",1.0,9.0,0.16791319847106934,1.84175705909729,0.6736053404780398,81.0,719.0,0.0
R,U,"[3, 9]",1.0,10.0,0.11660385131835938,1.4249839782714844,0.31555675466629435,81.0,720.0,0.0
,,"(6, 6)",,,,,,,,
G,D,"[3, 9]",-999.0,0.0,0.8013310432434082,2.7339508533477783,0.38280170625993093,82.0,721.0,-5.0
G,D,"[3, 9]",-999.0,0.0,0.33797717094421387,1.7121589183807373,0.3781990058859692,82.0,722.0,-5.0
G,D,"[3, 9]",-999.0,0.0,0.2509028911590576,1.9309918880462646,0.6921635137611147,82.0,723.0,-5.0
B,L,"[3, 9]",-999.0,0.0,0.5505781173706055,2.2098228931427,0.6687348522973964,82.0,724.0,-5.0
B,L,"[3, 9]",-999.0,0.0,0.1869800090789795,1.8569591045379639,0.6757249630848312,82.0,725.0,-5.0
R,U,"[3, 9]",-999.0,0.0,0.49807190895080566,1.9590320587158203,0.4682190269279654,82.0,726.0,-5.0
R,U,"[3, 9]",-999.0,0.0,0.2703719139099121,1.612476110458374,0.34727716116662166,82.0,727.0,-5.0
B,L,"[3, 9]",-999.0,0.0,0.30556607246398926,1.6759209632873535,0.3731379165240452,82.0,728.0,-5.0
B,L,"[3, 9]",-999.0,0.0,0.33214306831359863,2.037994861602783,0.7109283563088143,82.0,729.0,-5.0
R,U,"[2, 9]",-999.0,0.0,0.24188613891601562,1.8099989891052246,0.5543404277228101,82.0,730.0,1.0
,,"(6, 6)",,,,,,,,
R,U,"[5, 6]",1.0,1.0,0.4779839515686035,2.704547166824341,0.6421256729852813,83.0,731.0,0.0
Y,R,"[5, 7]",1.0,2.0,0.19887495040893555,1.8515470027923584,0.6601538042604052,83.0,732.0,0.0
Y,R,"[5, 8]",1.0,3.0,0.14774703979492188,1.563831090927124,0.4243032578091924,83.0,733.0,0.0
G,D,"[6, 8]",1.0,4.0,0.17768001556396484,1.6210148334503174,0.4452571145855291,83.0,734.0,0.0
Y,R,"[6, 9]",1.0,5.0,0.1739799976348877,1.7333920001983643,0.561807249950057,83.0,735.0,0.0
Y,R,"[6, 10]",1.0,6.0,0.16890192031860352,1.4658660888671875,0.31128731294358375,83.0,736.0,0.0
R,U,"[5, 10]",1.0,7.0,0.36267709732055664,1.662881851196289,0.3073467070652989,83.0,737.0,0.0
R,U,"[4, 10]",1.0,8.0,0.18472695350646973,1.700049877166748,0.5239428389879675,83.0,738.0,0.0
B,L,"[4, 9]",1.0,9.0,0.1689159870147705,1.843445062637329,0.6840922202172611,83.0,739.0,0.0
R,U,"[3, 9]",1.0,10.0,0.14120197296142578,1.5320141315460205,0.39937421447255933,83.0,740.0,0.0
,,"(6, 6)",,,,,,,,
R,U,"[5, 6]",1.0,1.0,0.5406279563903809,2.4765219688415527,0.5423322113500533,84.0,741.0,0.0
Y,R,"[5, 7]",1.0,2.0,0.1910419464111328,1.6249029636383057,0.4340885978209451,84.0,742.0,0.0
Y,R,"[5, 8]",1.0,3.0,0.21037602424621582,1.6623811721801758,0.4463340880045564,84.0,743.0,0.0
G,D,"[6, 8]",1.0,4.0,0.14970803260803223,1.421741008758545,0.2682692286076613,84.0,744.0,0.0
Y,R,"[6, 9]",1.0,5.0,0.1713550090789795,1.6032488346099854,0.4215686260782632,84.0,745.0,0.0
Y,R,"[6, 10]",-1.0,5.0,0.09183096885681152,5.630625009536743,0.468502545995766,84.0,746.0,0.0
R,U,"[5, 10]",1.0,6.0,0.15989112854003906,1.7392520904541016,0.574303152293951,84.0,747.0,0.0
R,U,"[4, 10]",1.0,7.0,0.17627811431884766,1.7209539413452148,0.5451475765563214,84.0,748.0,0.0
B,L,"[4, 9]",1.0,8.0,0.18491721153259277,1.8561639785766602,0.667933634701429,84.0,749.0,0.0
R,U,"[3, 9]",1.0,9.0,0.6877889633178711,2.106610059738159,0.42459839536766375,84.0,750.0,0.0
,,"(6, 6)",,,,,,,,
R,U,"[5, 6]",-999.0,0.0,0.44579005241394043,2.959890842437744,0.7176458181267737,85.0,751.0,-4.0
Y,R,"[5, 7]",-999.0,0.0,0.38331007957458496,1.9729528427124023,0.5906657205243203,85.0,752.0,-4.0
Y,R,"[5, 8]",-999.0,0.0,0.26448917388916016,1.9585950374603271,0.6992035430059904,85.0,753.0,-4.0
R,U,"[4, 8]",-999.0,0.0,0.3118860721588135,2.0578551292419434,0.7402076332412519,85.0,754.0,-4.0
R,U,"[3, 8]",-999.0,0.0,0.665938138961792,2.172752857208252,0.5131466914068243,85.0,755.0,1.0
,,"(6, 6)",,,,,,,,
R,U,"[5, 6]",1.0,1.0,0.4916260242462158,2.896448850631714,0.7426119311694044,86.0,756.0,0.0
Y,R,"[5, 7]",1.0,2.0,0.19217181205749512,1.5128140449523926,0.32249355415882375,86.0,757.0,0.0
Y,R,"[5, 8]",1.0,3.0,0.21046710014343262,1.4993820190429688,0.2885445173949338,86.0,758.0,0.0
G,D,"[6, 8]",1.0,4.0,0.1745162010192871,1.485239028930664,0.3070222724259909,86.0,759.0,0.0
Y,R,"[6, 9]",1.0,5.0,0.17213201522827148,1.4810798168182373,0.32144096802426253,86.0,760.0,0.0
,,"(6, 6)",,,,,,,,
R,U,"[5, 6]",-999.0,0.0,0.4216039180755615,2.784359931945801,0.2890750359921535,87.0,761.0,-4.0
Y,R,"[5, 7]",-999.0,0.0,0.470426082611084,2.012415885925293,0.5511798909642438,87.0,762.0,-4.0
Y,R,"[5, 8]",-999.0,0.0,0.2567451000213623,1.7494158744812012,0.5007854714689943,87.0,763.0,-4.0
R,U,"[4, 8]",-999.0,0.0,0.26680898666381836,1.758112907409668,0.4920469860027795,87.0,764.0,-4.0
B,L,"[4, 7]",-999.0,0.0,0.3497319221496582,1.8486759662628174,0.507439296527138,87.0,765.0,1.0
,,"(6, 6)",,,,,,,,
R,U,"[5, 6]",-999.0,0.0,0.3834810256958008,2.834990978240967,0.5589949194268443,88.0,766.0,-4.0
Y,R,"[5, 7]",-999.0,0.0,0.20243215560913086,1.8642668724060059,0.6731002960032153,88.0,767.0,-4.0
Y,R,"[5, 8]",-999.0,0.0,0.16577911376953125,1.4712650775909424,0.31125480468786754,88.0,768.0,-4.0
G,D,"[6, 8]",-999.0,0.0,0.5909578800201416,2.0554909706115723,0.48331149804483,88.0,769.0,-4.0
Y,R,"[6, 9]",-999.0,0.0,0.2832789421081543,2.0125019550323486,0.7287990064849154,88.0,770.0,-4.0
,,"(6, 6)",,,,,,,,
G,D,"[6, 9]",-999.0,0.0,0.7307529449462891,3.5901341438293457,0.3026509027002734,89.0,771.0,-5.0
G,D,"[6, 9]",-999.0,0.0,0.3042948246002197,1.6413321495056152,0.3439541584041458,89.0,772.0,-5.0
G,D,"[6, 9]",-999.0,0.0,0.3679060935974121,1.9050979614257812,0.5487542315163727,89.0,773.0,-5.0
B,L,"[6, 9]",-999.0,0.0,0.22724199295043945,1.9732520580291748,0.7384730769764123,89.0,774.0,-5.0
B,L,"[6, 9]",-1.0,0.0,0.007132053375244141,5.554857015609741,0.493466496026521,89.0,775.0,-5.0
R,U,"[6, 9]",-999.0,0.0,0.26397109031677246,1.6796081066131592,0.42315495760016275,89.0,776.0,-5.0
R,U,"[6, 9]",-999.0,0.0,0.25027990341186523,1.9030160903930664,0.6592336889555993,89.0,777.0,-5.0
B,L,"[6, 9]",-999.0,0.0,0.536247968673706,1.8820960521697998,0.35823221371726804,89.0,778.0,-5.0
B,L,"[6, 9]",-999.0,0.0,0.27535104751586914,1.8961529731750488,0.6373836053582953,89.0,779.0,-5.0
R,U,"[5, 9]",-999.0,0.0,0.32195615768432617,1.5762608051300049,0.26402942150249203,89.0,780.0,1.0
,,"(6, 6)",,,,,,,,
R,U,"[5, 6]",1.0,1.0,0.52988600730896,2.6099119186401367,0.4237206584233016,90.0,781.0,0.0
Y,R,"[5, 7]",1.0,2.0,0.176469087600708,1.7441768646240234,0.5680357553280911,90.0,782.0,0.0
Y,R,"[5, 8]",-1.0,2.0,0.0029900074005126953,5.327037811279297,0.261617248772181,90.0,783.0,0.0
G,D,"[6, 8]",1.0,3.0,0.22380709648132324,1.5877571105957031,0.36594544354634345,90.0,784.0,0.0
Y,R,"[6, 9]",1.0,4.0,0.20875287055969238,1.6399259567260742,0.42244532679703944,90.0,785.0,0.0
Y,R,"[6, 10]",1.0,5.0,0.28064894676208496,2.0158159732818604,0.7381053430679527,90.0,786.0,0.0
R,U,"[5, 10]",1.0,6.0,0.1728990077972412,1.5837368965148926,0.405290035267864,90.0,787.0,0.0
R,U,"[4, 10]",1.0,7.0,0.16343092918395996,1.556053876876831,0.39463526406069005,90.0,788.0,0.0
B,L,"[4, 9]",1.0,8.0,0.18638110160827637,1.7128889560699463,0.5406348398320455,90.0,789.0,0.0
R,U,"[3, 9]",1.0,9.0,0.15972208976745605,1.6228101253509521,0.4635329153588552,90.0,790.0,0.0
,,"(6, 6)",,,,,,,,
R,U,"[5, 6]",-999.0,0.0,0.7142560482025146,3.0972800254821777,0.59388765367187,91.0,791.0,-4.0
Y,R,"[5, 7]",-999.0,0.0,0.3650510311126709,1.853559970855713,0.497562212185663,91.0,792.0,-4.0
Y,R,"[5, 8]",-999.0,0.0,0.30634093284606934,1.893615961074829,0.591331188000916,91.0,793.0,-4.0
G,D,"[6, 8]",-999.0,0.0,0.40816807746887207,1.6942617893218994,0.3022650548676714,91.0,794.0,-4.0
Y,R,"[6, 9]",-999.0,0.0,0.4059789180755615,1.731942892074585,0.334087053307411,91.0,795.0,-4.0
Y,R,"[6, 10]",-999.0,0.0,0.3586559295654297,1.9629278182983398,0.6134329671684149,91.0,796.0,-4.0
R,U,"[5, 10]",-999.0,0.0,0.28198885917663574,1.6835780143737793,0.3971874095533351,91.0,797.0,-4.0
R,U,"[4, 10]",-999.0,0.0,0.27370500564575195,1.8072929382324219,0.5376992315387079,91.0,798.0,-4.0
R,U,"[3, 10]",-999.0,0.0,0.2638061046600342,1.5762951374053955,0.3141427980974002,91.0,799.0,-4.0
B,L,"[3, 9]",-999.0,0.0,0.33452296257019043,1.68851900100708,0.3524833140280496,91.0,800.0,1.0
,,"(6, 6)",,,,,,,,
R,U,"[5, 6]",1.0,1.0,0.3418588638305664,2.159043073654175,0.29501843870288835,92.0,801.0,0.0
Y,R,"[5, 7]",1.0,2.0,0.18092608451843262,1.7542719841003418,0.5821771292338744,92.0,802.0,0.0
Y,R,"[5, 8]",1.0,3.0,0.17721986770629883,1.888352870941162,0.70382499526872,92.0,803.0,0.0
G,D,"[6, 8]",1.0,4.0,0.19184517860412598,1.7849280834197998,0.5888106485330384,92.0,804.0,0.0
G,D,"[7, 8]",0.0,4.0,0.1936018466949463,1.5273749828338623,0.3329687677650559,92.0,805.0,0.0
Y,R,"[7, 9]",0.0,4.0,0.1761319637298584,1.9291601181030273,0.7449897563310466,92.0,806.0,0.0
R,U,"[6, 9]",-1.0,4.0,0.04631209373474121,5.68713903427124,0.5656027788027911,92.0,807.0,0.0
R,U,"[5, 9]",0.0,4.0,0.1775529384613037,1.802271842956543,0.6178335709392516,92.0,808.0,0.0
B,L,"[5, 8]",0.0,4.0,0.16847586631774902,1.4500401020050049,0.2848632314222862,92.0,809.0,0.0
R,U,"[4, 8]",0.0,4.0,0.32196688652038574,1.694854974746704,0.3628579279354053,92.0,810.0,0.0
,,"(6, 6)",,,,,,,,
R,U,"[5, 6]",1.0,1.0,0.4495711326599121,2.4074740409851074,0.5034233009977893,93.0,811.0,0.0
Y,R,"[5, 7]",1.0,2.0,0.19242000579833984,1.8557729721069336,0.6591221092983955,93.0,812.0,0.0
Y,R,"[5, 8]",1.0,3.0,0.2004411220550537,1.637666940689087,0.4471231228178361,93.0,813.0,0.0
G,D,"[6, 8]",1.0,4.0,0.2323758602142334,1.7421410083770752,0.5057489904088814,93.0,814.0,0.0
Y,R,"[6, 9]",1.0,5.0,0.1842479705810547,1.517258882522583,0.33967915926482967,93.0,815.0,0.0
Y,R,"[6, 10]",1.0,6.0,0.1784040927886963,1.6043729782104492,0.4272871151148518,93.0,816.0,0.0
R,U,"[5, 10]",1.0,7.0,0.1973741054534912,1.9366481304168701,0.7469844528055142,93.0,817.0,0.0
R,U,"[4, 10]",1.0,8.0,0.18336701393127441,1.7423591613769531,0.5561898785329047,93.0,818.0,0.0
B,L,"[4, 9]",1.0,9.0,0.16806602478027344,1.897197961807251,0.7366673739979501,93.0,819.0,0.0
R,U,"[3, 9]",1.0,10.0,0.19805407524108887,1.5689129829406738,0.3723609729366332,93.0,820.0,0.0
,,"(6, 6)",,,,,,,,
R,U,"[5, 6]",1.0,1.0,0.43287181854248047,2.3445699214935303,0.45023877239639304,94.0,821.0,0.0
Y,R,"[5, 7]",1.0,2.0,0.18651103973388672,1.7431650161743164,0.5598945815428055,94.0,822.0,0.0
Y,R,"[5, 8]",1.0,3.0,0.18103408813476562,1.7851018905639648,0.6115831273098356,94.0,823.0,0.0
G,D,"[6, 8]",1.0,4.0,0.1969308853149414,1.9288530349731445,0.7402798558145323,94.0,824.0,0.0
Y,R,"[6, 9]",1.0,5.0,0.17944693565368652,1.9010229110717773,0.7244841284613117,94.0,825.0,0.0
Y,R,"[6, 10]",1.0,6.0,0.16197490692138672,1.868924856185913,0.7101904527533931,94.0,826.0,0.0
R,U,"[5, 10]",1.0,7.0,0.2036151885986328,1.6244490146636963,0.4348680172641677,94.0,827.0,0.0
R,U,"[4, 10]",1.0,8.0,0.1922309398651123,1.731783151626587,0.5332044315070312,94.0,828.0,0.0
B,L,"[4, 9]",1.0,9.0,0.16987204551696777,1.5346400737762451,0.36786538973271055,94.0,829.0,0.0
R,U,"[3, 9]",1.0,10.0,0.21869492530822754,1.923736810684204,0.7079066903734786,94.0,830.0,0.0
,,"(6, 6)",,,,,,,,
R,U,"[5, 6]",1.0,1.0,0.3495519161224365,2.058858871459961,0.25048043626730226,95.0,831.0,0.0
Y,R,"[5, 7]",1.0,2.0,0.1582329273223877,1.877647876739502,0.7110003042922928,95.0,832.0,0.0
Y,R,"[5, 8]",1.0,3.0,0.26151490211486816,2.000541925430298,0.7448634281091894,95.0,833.0,0.0
G,D,"[6, 8]",1.0,4.0,0.201157808303833,1.6387159824371338,0.45054310608342646,95.0,834.0,0.0
Y,R,"[6, 9]",1.0,5.0,0.16141915321350098,1.8736929893493652,0.7072243698430201,95.0,835.0,0.0
Y,R,"[6, 10]",1.0,6.0,0.18185997009277344,1.771286964416504,0.5952317546670773,95.0,836.0,0.0
R,U,"[5, 10]",1.0,7.0,0.19446182250976562,1.6773488521575928,0.4727579339897831,95.0,837.0,0.0
R,U,"[4, 10]",1.0,8.0,0.32196807861328125,1.9712820053100586,0.6437237106664777,95.0,838.0,0.0
B,L,"[4, 9]",1.0,9.0,0.18220210075378418,1.6020889282226562,0.4294187115132959,95.0,839.0,0.0
R,U,"[3, 9]",1.0,10.0,0.16841506958007812,1.7233028411865234,0.5524741266688142,95.0,840.0,0.0
,,"(6, 6)",,,,,,,,
R,U,"[5, 6]",-999.0,0.0,0.371751070022583,2.121706008911133,0.27444879056934307,96.0,841.0,-4.0
Y,R,"[5, 7]",-999.0,0.0,0.36307787895202637,1.9244520664215088,0.5653136606317156,96.0,842.0,-4.0
Y,R,"[5, 8]",-999.0,0.0,0.2627689838409424,1.659409999847412,0.3914395441071773,96.0,843.0,-4.0
G,D,"[6, 8]",-999.0,0.0,0.31875085830688477,1.6639008522033691,0.35534002483993854,96.0,844.0,-4.0
Y,R,"[6, 9]",-999.0,0.0,0.38307809829711914,1.7367050647735596,0.35886708932887906,96.0,845.0,-4.0
Y,R,"[6, 10]",-999.0,0.0,0.28889989852905273,1.8601799011230469,0.5853213483851611,96.0,846.0,-4.0
R,U,"[5, 10]",-999.0,0.0,0.22722601890563965,1.6237831115722656,0.39263142369861204,96.0,847.0,-4.0
R,U,"[4, 10]",-999.0,0.0,0.22136688232421875,1.6416380405426025,0.43418708295327996,96.0,848.0,-4.0
R,U,"[3, 10]",-999.0,0.0,0.26830005645751953,1.7370631694793701,0.4711777611944848,96.0,849.0,-4.0
Y,R,"[3, 11]",-999.0,0.0,0.31394505500793457,1.6212780475616455,0.30924483381665424,96.0,850.0,1.0
,,"(6, 6)",,,,,,,,
G,D,"[3, 11]",-999.0,0.0,0.6661348342895508,2.9263980388641357,0.6522292287319373,97.0,851.0,-5.0
G,D,"[3, 11]",-999.0,0.0,0.18837785720825195,1.701080083847046,0.5198685280927369,97.0,852.0,-5.0
G,D,"[3, 11]",-999.0,0.0,0.21896004676818848,1.559013843536377,0.34562228954346685,97.0,853.0,-5.0
B,L,"[3, 11]",-999.0,0.0,0.32427000999450684,1.6619138717651367,0.340781075377698,97.0,854.0,-5.0
B,L,"[3, 11]",-999.0,0.0,0.19433808326721191,1.6349689960479736,0.44234826628205204,97.0,855.0,-5.0
R,U,"[3, 11]",-999.0,0.0,0.28411293029785156,1.9411051273345947,0.6665203766970373,97.0,856.0,-5.0
R,U,"[3, 11]",-999.0,0.0,0.16503000259399414,1.5775129795074463,0.4108657953113368,97.0,857.0,-5.0
B,L,"[3, 11]",-999.0,0.0,0.25547099113464355,1.9866747856140137,0.7476036929496919,97.0,858.0,-5.0
B,L,"[3, 11]",-999.0,0.0,0.17125320434570312,1.8861119747161865,0.7167066434605209,97.0,859.0,-5.0
G,D,"[4, 11]",-999.0,0.0,0.23431992530822754,1.9465160369873047,0.7131906790638484,97.0,860.0,1.0
,,"(6, 6)",,,,,,,,
G,D,"[4, 11]",-999.0,0.0,0.6930549144744873,2.9131009578704834,0.3932010556364747,98.0,861.0,-5.0
G,D,"[4, 11]",-999.0,0.0,0.1978311538696289,1.5677781105041504,0.37756030048806105,98.0,862.0,-5.0
G,D,"[4, 11]",-999.0,0.0,0.20518708229064941,1.8240740299224854,0.6347186215401366,98.0,863.0,-5.0
B,L,"[4, 11]",-999.0,0.0,0.18094205856323242,1.6507909297943115,0.4689889603615966,98.0,864.0,-5.0
B,L,"[4, 11]",-999.0,0.0,0.17179393768310547,1.7261981964111328,0.5616424618259903,98.0,865.0,-5.0
R,U,"[4, 11]",-999.0,0.0,0.21414685249328613,1.8018620014190674,0.5968922742156157,98.0,866.0,-5.0
R,U,"[4, 11]",-999.0,0.0,0.16956806182861328,1.6679298877716064,0.4982107751670918,98.0,867.0,-5.0
B,L,"[4, 11]",-999.0,0.0,0.2278151512145996,1.6197810173034668,0.3847283542666999,98.0,868.0,-5.0
B,L,"[4, 11]",-999.0,0.0,0.16513490676879883,1.4385499954223633,0.27338090264272413,98.0,869.0,-5.0
G,D,"[5, 11]",-999.0,0.0,0.24994397163391113,1.631208896636963,0.3876788955850123,98.0,870.0,1.0
,,"(6, 6)",,,,,,,,
G,D,"[5, 11]",-999.0,0.0,0.6468260288238525,3.2103521823883057,0.6644396608104686,99.0,871.0,-5.0
G,D,"[5, 11]",-999.0,0.0,0.1817770004272461,1.5824589729309082,0.3970591484448194,99.0,872.0,-5.0
G,D,"[5, 11]",-999.0,0.0,0.19047999382019043,1.6156940460205078,0.42961807489505466,99.0,873.0,-5.0
B,L,"[5, 11]",-999.0,0.0,0.3156590461730957,1.8671369552612305,0.5463238197288356,99.0,874.0,-5.0
B,L,"[5, 11]",-999.0,0.0,0.16605782508850098,1.8061699867248535,0.6358199033129388,99.0,875.0,-5.0
R,U,"[5, 11]",-999.0,0.0,0.1870119571685791,1.5223140716552734,0.3416539664770112,99.0,876.0,-5.0
R,U,"[5, 11]",-999.0,0.0,0.18834805488586426,1.5620629787445068,0.38706292308349466,99.0,877.0,-5.0
B,L,"[5, 11]",-999.0,0.0,0.24773597717285156,1.964900016784668,0.7182853848425401,99.0,878.0,-5.0
B,L,"[5, 11]",-999.0,0.0,0.15801095962524414,1.761789083480835,0.6133864604354217,99.0,879.0,-5.0
G,D,"[6, 11]",-999.0,0.0,0.2032911777496338,1.9509620666503906,0.7475808642492463,99.0,880.0,1.0
,,"(6, 6)",,,,,,,,
R,U,"[5, 6]",1.0,1.0,0.633540153503418,2.914017915725708,0.2787257363521253,100.0,881.0,0.0
Y,R,"[5, 7]",1.0,2.0,0.20101499557495117,1.5261600017547607,0.33809625639339097,100.0,882.0,0.0
Y,R,"[5, 8]",1.0,3.0,0.18027186393737793,1.814258098602295,0.6353809122045566,100.0,883.0,0.0
G,D,"[6, 8]",1.0,4.0,0.1893939971923828,1.9103031158447266,0.7287926560424165,100.0,884.0,0.0
Y,R,"[6, 9]",1.0,5.0,0.1625978946685791,1.904534101486206,0.7338632087488548,100.0,885.0,0.0
Y,R,"[6, 10]",1.0,6.0,0.1816539764404297,1.9013938903808594,0.7180399034598149,100.0,886.0,0.0
R,U,"[5, 10]",1.0,7.0,0.17060494422912598,1.7208409309387207,0.5389370933102655,100.0,887.0,0.0
R,U,"[4, 10]",1.0,8.0,0.19487905502319336,1.4636290073394775,0.26952526389375625,100.0,888.0,0.0
B,L,"[4, 9]",1.0,9.0,0.19719219207763672,1.5468759536743164,0.34969828396351016,100.0,889.0,0.0
R,U,"[3, 9]",1.0,10.0,0.1702711582183838,1.8519799709320068,0.684635322708248,100.0,890.0,0.0
,,"(6, 6)",,,,,,,,
R,U,"[5, 6]",1.0,1.0,0.4505288600921631,2.373713970184326,0.3086680786011065,101.0,891.0,0.0
Y,R,"[5, 7]",1.0,2.0,0.1569509506225586,1.4291579723358154,0.2711974608706263,101.0,892.0,0.0
Y,R,"[5, 8]",-1.0,2.0,0.04577994346618652,5.561513185501099,0.449070024519691,101.0,893.0,0.0
G,D,"[6, 8]",1.0,3.0,0.20750689506530762,1.6725361347198486,0.45493055691742673,101.0,894.0,0.0
Y,R,"[6, 9]",1.0,4.0,0.21976995468139648,1.8414311408996582,0.6297428884554732,101.0,895.0,0.0
Y,R,"[6, 10]",1.0,5.0,0.18491411209106445,1.8762791156768799,0.6889358090396555,101.0,896.0,0.0
R,U,"[5, 10]",1.0,6.0,0.1790940761566162,1.8245301246643066,0.6468547405106413,101.0,897.0,0.0
R,U,"[4, 10]",1.0,7.0,0.2059459686279297,1.5160861015319824,0.29656480693706516,101.0,898.0,0.0
B,L,"[4, 9]",1.0,8.0,0.1690809726715088,1.4319469928741455,0.26182266600566456,101.0,899.0,0.0
R,U,"[3, 9]",1.0,9.0,0.2054910659790039,1.799849033355713,0.5946334459923683,101.0,900.0,0.0
,,"(6, 6)",,,,,,,,
R,U,"[5, 6]",1.0,1.0,0.3691530227661133,5.08453893661499,0.7122919034147641,102.0,901.0,0.0
Y,R,"[5, 7]",1.0,2.0,0.19734501838684082,1.7957651615142822,0.5914893436019455,102.0,902.0,0.0
Y,R,"[5, 8]",1.0,3.0,0.1819911003112793,1.5359880924224854,0.36111413793136626,102.0,903.0,0.0
G,D,"[6, 8]",1.0,4.0,0.24472904205322266,1.8060100078582764,0.5668874072105861,102.0,904.0,0.0
Y,R,"[6, 9]",1.0,5.0,0.17298603057861328,1.4833688735961914,0.30047579805965996,102.0,905.0,0.0
Y,R,"[6, 10]",1.0,6.0,0.21164798736572266,1.549623966217041,0.3334032052269911,102.0,906.0,0.0
R,U,"[5, 10]",1.0,7.0,0.23365306854248047,1.5863380432128906,0.3529845184648481,102.0,907.0,0.0
R,U,"[4, 10]",1.0,8.0,0.34369707107543945,1.7479438781738281,0.4008621575739265,102.0,908.0,0.0
B,L,"[4, 9]",1.0,9.0,0.21532607078552246,1.9453840255737305,0.7292785378327624,102.0,909.0,0.0
R,U,"[3, 9]",1.0,10.0,0.16329598426818848,1.866926908493042,0.6960282676842904,102.0,910.0,0.0
,,"(6, 6)",,,,,,,,
R,U,"[5, 6]",1.0,1.0,0.6117949485778809,3.395582914352417,0.6916537750954789,103.0,911.0,0.0
Y,R,"[5, 7]",1.0,2.0,0.19035601615905762,1.6950829029083252,0.5035667345513242,103.0,912.0,0.0
Y,R,"[5, 8]",1.0,3.0,0.20025992393493652,1.4513850212097168,0.2551920596406234,103.0,913.0,0.0
G,D,"[6, 8]",1.0,4.0,0.2212080955505371,1.7946019172668457,0.5827275544609372,103.0,914.0,0.0
Y,R,"[6, 9]",1.0,5.0,0.19321203231811523,1.579679012298584,0.37928951181657644,103.0,915.0,0.0
Y,R,"[6, 10]",1.0,6.0,0.20983290672302246,1.6137900352478027,0.3930125511367156,103.0,916.0,0.0
R,U,"[5, 10]",1.0,7.0,0.17487621307373047,1.4443728923797607,0.2708223944222914,103.0,917.0,0.0
R,U,"[4, 10]",1.0,8.0,0.17194080352783203,1.73801589012146,0.5751003951058049,103.0,918.0,0.0
B,L,"[4, 9]",1.0,9.0,0.1597120761871338,1.68174409866333,0.5236170869740551,103.0,919.0,0.0
R,U,"[3, 9]",1.0,10.0,0.1751410961151123,1.8326730728149414,0.6560958053484012,103.0,920.0,0.0
,,"(6, 6)",,,,,,,,
R,U,"[5, 6]",1.0,1.0,0.4293811321258545,2.8756279945373535,0.6317422008451814,104.0,921.0,0.0
Y,R,"[5, 7]",1.0,2.0,0.205460786819458,1.551184892654419,0.3498150949655233,104.0,922.0,0.0
Y,R,"[5, 8]",1.0,3.0,0.30965280532836914,1.6158649921417236,0.29906753361605787,104.0,923.0,0.0
G,D,"[6, 8]",1.0,4.0,0.18680906295776367,1.892564058303833,0.7078053589734521,104.0,924.0,0.0
Y,R,"[6, 9]",1.0,5.0,0.18257999420166016,1.6440529823303223,0.46876046803278093,104.0,925.0,0.0
Y,R,"[6, 10]",1.0,6.0,0.24742889404296875,1.5912909507751465,0.34337236876779903,104.0,926.0,0.0
R,U,"[5, 10]",1.0,7.0,0.20003414154052734,1.79441499710083,0.6042819876396099,104.0,927.0,0.0
R,U,"[4, 10]",1.0,8.0,0.18195486068725586,1.7547581195831299,0.5757023082480512,104.0,928.0,0.0
B,L,"[4, 9]",1.0,9.0,0.1731419563293457,1.7489280700683594,0.5746115916094889,104.0,929.0,0.0
R,U,"[3, 9]",1.0,10.0,0.1691141128540039,1.458754062652588,0.30025877264435563,104.0,930.0,0.0
,,"(6, 6)",,,,,,,,
R,U,"[5, 6]",1.0,1.0,0.378878116607666,2.4276909828186035,0.5775317493117704,105.0,931.0,0.0
Y,R,"[5, 7]",1.0,2.0,0.23971295356750488,1.6756720542907715,0.43664554610254697,105.0,932.0,0.0
Y,R,"[5, 8]",1.0,3.0,0.19651508331298828,1.545569896697998,0.34907141495053307,105.0,933.0,0.0
G,D,"[6, 8]",1.0,4.0,0.20173406600952148,1.5989441871643066,0.3979294640313294,105.0,934.0,0.0
Y,R,"[6, 9]",1.0,5.0,0.14348983764648438,1.5328900814056396,0.38084587062518743,105.0,935.0,0.0
Y,R,"[6, 10]",1.0,6.0,0.17496418952941895,1.5905439853668213,0.40462653118559516,105.0,936.0,0.0
R,U,"[5, 10]",1.0,7.0,0.17944097518920898,1.5662789344787598,0.3875382072534534,105.0,937.0,0.0
R,U,"[4, 10]",1.0,8.0,0.17687201499938965,1.608569860458374,0.4293853610087193,105.0,938.0,0.0
B,L,"[4, 9]",1.0,9.0,0.17228293418884277,1.6735198497772217,0.4861617247173508,105.0,939.0,0.0
R,U,"[3, 9]",1.0,10.0,0.17777490615844727,1.6389780044555664,0.458450883625953,105.0,940.0,0.0
,,"(6, 6)",,,,,,,,
R,U,"[5, 6]",1.0,1.0,0.37105798721313477,2.6068341732025146,0.7149731928884719,106.0,941.0,0.0
Y,R,"[5, 7]",1.0,2.0,0.19549894332885742,1.860849142074585,0.6591719102270617,106.0,942.0,0.0
Y,R,"[5, 8]",1.0,3.0,0.17455291748046875,1.7943909168243408,0.6202538239808236,106.0,943.0,0.0
G,D,"[6, 8]",1.0,4.0,0.21858501434326172,1.519644021987915,0.30684588238360405,106.0,944.0,0.0
Y,R,"[6, 9]",1.0,5.0,0.33984804153442383,2.0700559616088867,0.726825114947169,106.0,945.0,0.0
Y,R,"[6, 10]",1.0,6.0,0.18434596061706543,1.9090368747711182,0.7354586085233968,106.0,946.0,0.0
R,U,"[5, 10]",1.0,7.0,0.1604909896850586,1.8678340911865234,0.7033039602092042,106.0,947.0,0.0
R,U,"[4, 10]",1.0,8.0,0.1937720775604248,1.6336100101470947,0.4371635313810418,106.0,948.0,0.0
B,L,"[4, 9]",1.0,9.0,0.2576119899749756,1.9804999828338623,0.717337465575733,106.0,949.0,0.0
R,U,"[3, 9]",1.0,10.0,0.177109956741333,1.6004729270935059,0.41803234879071194,106.0,950.0,0.0
,,"(6, 6)",,,,,,,,
R,U,"[5, 6]",1.0,1.0,0.7706670761108398,2.882689952850342,0.4507076618308799,107.0,951.0,0.0
Y,R,"[5, 7]",1.0,2.0,0.19682884216308594,1.5490291118621826,0.3496682158397605,107.0,952.0,0.0
Y,R,"[5, 8]",1.0,3.0,0.20575308799743652,1.893537998199463,0.6928530402995245,107.0,953.0,0.0
G,D,"[6, 8]",1.0,4.0,0.1864478588104248,1.8294990062713623,0.6557356925848608,107.0,954.0,0.0
Y,R,"[6, 9]",1.0,5.0,0.17422699928283691,1.7640938758850098,0.5868892400530299,107.0,955.0,0.0
Y,R,"[6, 10]",1.0,6.0,0.17402219772338867,1.6998498439788818,0.5364821355011401,107.0,956.0,0.0
R,U,"[5, 10]",1.0,7.0,0.5875051021575928,2.116497039794922,0.5197702230164768,107.0,957.0,0.0
R,U,"[4, 10]",1.0,8.0,0.19874095916748047,1.4592430591583252,0.26237225306547113,107.0,958.0,0.0
B,L,"[4, 9]",1.0,9.0,0.5470490455627441,2.196362018585205,0.641901575614213,107.0,959.0,0.0
R,U,"[3, 9]",1.0,10.0,0.1716618537902832,1.5944850444793701,0.4195966955659871,107.0,960.0,0.0
,,"(6, 6)",,,,,,,,
R,U,"[5, 6]",1.0,1.0,0.42393994331359863,2.5652949810028076,0.5680911382098162,108.0,961.0,0.0
Y,R,"[5, 7]",1.0,2.0,0.20302987098693848,1.5560438632965088,0.3576465808876121,108.0,962.0,0.0
Y,R,"[5, 8]",1.0,3.0,0.24098491668701172,1.8355400562286377,0.5929706599988038,108.0,963.0,0.0
G,D,"[6, 8]",1.0,4.0,0.17972493171691895,1.8882701396942139,0.7143696558413377,108.0,964.0,0.0
Y,R,"[6, 9]",1.0,5.0,0.16064000129699707,1.8067100048065186,0.6378004336227565,108.0,965.0,0.0
Y,R,"[6, 10]",1.0,6.0,0.16928696632385254,1.6266651153564453,0.4645683499503391,108.0,966.0,0.0
R,U,"[5, 10]",1.0,7.0,0.21424603462219238,1.9182910919189453,0.6992902722844628,108.0,967.0,0.0
R,U,"[4, 10]",1.0,8.0,0.3981480598449707,1.7505559921264648,0.35016692051119674,108.0,968.0,0.0
B,L,"[4, 9]",1.0,9.0,0.20566987991333008,1.9195830821990967,0.7028365360717659,108.0,969.0,0.0
R,U,"[3, 9]",1.0,10.0,0.17592191696166992,1.5316109657287598,0.3513438470097365,108.0,970.0,0.0
,,"(6, 6)",,,,,,,,
R,U,"[5, 6]",1.0,1.0,0.43349194526672363,2.3614859580993652,0.41261286247335466,109.0,971.0,0.0
Y,R,"[5, 7]",1.0,2.0,0.17197203636169434,1.4522228240966797,0.265014052314043,109.0,972.0,0.0
Y,R,"[5, 8]",1.0,3.0,0.18483281135559082,1.6829969882965088,0.4977529755381964,109.0,973.0,0.0
G,D,"[6, 8]",1.0,4.0,0.20068693161010742,1.7912490367889404,0.5888235328063124,109.0,974.0,0.0
Y,R,"[6, 9]",1.0,5.0,0.16967105865478516,1.6686899662017822,0.5075397986185782,109.0,975.0,0.0
Y,R,"[6, 10]",1.0,6.0,0.1694960594177246,1.8218789100646973,0.6626799896288371,109.0,976.0,0.0
R,U,"[5, 10]",1.0,7.0,0.24717211723327637,1.6291940212249756,0.3754517816080189,109.0,977.0,0.0
R,U,"[4, 10]",1.0,8.0,0.17846012115478516,1.4367361068725586,0.2622832899726265,109.0,978.0,0.0
B,L,"[4, 9]",1.0,9.0,0.20043396949768066,1.8732030391693115,0.6682768238580736,109.0,979.0,0.0
R,U,"[3, 9]",1.0,10.0,0.15278887748718262,1.6408369541168213,0.49264321250187965,109.0,980.0,0.0
,,"(6, 6)",,,,,,,,
R,U,"[5, 6]",1.0,1.0,0.38855981826782227,2.4658689498901367,0.5749577287719739,110.0,981.0,0.0
Y,R,"[5, 7]",-1.0,1.0,0.03814411163330078,5.71787691116333,0.6261050956058123,110.0,982.0,0.0
Y,R,"[5, 8]",1.0,2.0,0.19116497039794922,1.5431358814239502,0.35289043537460746,110.0,983.0,0.0
G,D,"[6, 8]",1.0,3.0,0.2031090259552002,1.8846099376678467,0.6872402824412928,110.0,984.0,0.0
Y,R,"[6, 9]",1.0,4.0,0.1988379955291748,1.565629005432129,0.36976152489869074,110.0,985.0,0.0
Y,R,"[6, 10]",1.0,5.0,0.244049072265625,1.932286024093628,0.6849734388874142,110.0,986.0,0.0
R,U,"[5, 10]",1.0,6.0,0.20170307159423828,1.7443969249725342,0.5461436205523993,110.0,987.0,0.0
R,U,"[4, 10]",1.0,7.0,0.17483901977539062,1.4513449668884277,0.2643386280866682,110.0,988.0,0.0
B,L,"[4, 9]",1.0,8.0,0.21198487281799316,1.9568331241607666,0.7376479459796828,110.0,989.0,0.0
R,U,"[3, 9]",1.0,9.0,0.1806631088256836,1.717514991760254,0.5384255647878131,110.0,990.0,0.0
,,"(6, 6)",,,,,,,,
R,U,"[5, 6]",1.0,1.0,0.4855690002441406,2.6312568187713623,0.4364300935074106,111.0,991.0,0.0
Y,R,"[5, 7]",1.0,2.0,0.24461913108825684,1.7561180591583252,0.5089472329783018,111.0,992.0,0.0
Y,R,"[5, 8]",1.0,3.0,0.2966599464416504,1.731666088104248,0.4407912980414412,111.0,993.0,0.0
G,D,"[6, 8]",1.0,4.0,0.19831109046936035,1.5407161712646484,0.34813659513611506,111.0,994.0,0.0
Y,R,"[6, 9]",1.0,5.0,0.18422889709472656,1.6325910091400146,0.44734617758556233,111.0,995.0,0.0
Y,R,"[6, 10]",1.0,6.0,0.18490195274353027,1.5783390998840332,0.3924014085518041,111.0,996.0,0.0
R,U,"[5, 10]",1.0,7.0,0.17935514450073242,1.799126148223877,0.6246355852865582,111.0,997.0,0.0
R,U,"[4, 10]",1.0,8.0,0.18919992446899414,1.7164030075073242,0.5243252141377337,111.0,998.0,0.0
B,L,"[4, 9]",1.0,9.0,0.16955995559692383,1.6490988731384277,0.4901634640289164,111.0,999.0,0.0
R,U,"[3, 9]",1.0,10.0,0.19354009628295898,1.7238972187042236,0.5306014844523473,111.0,1000.0,0.0
