button_choice,action_choice,coordinate_choice,reward,cumulative_reward,rt,total_trial_time,iti,block_n,trial_n,trial_type
R,U,"[5, 6]",1.0,1.0,0.5318479537963867,2.2550268173217773,0.6224391162500584,0.0,1.0,0.0
Y,R,"[5, 7]",1.0,2.0,0.30563807487487793,1.7901818752288818,0.39593079819917376,0.0,2.0,0.0
Y,R,"[5, 8]",1.0,3.0,0.2422161102294922,1.7049708366394043,0.36755585686443076,0.0,3.0,0.0
G,D,"[6, 8]",1.0,4.0,0.23456811904907227,1.6577420234680176,0.3254021212208304,0.0,4.0,0.0
Y,R,"[6, 9]",1.0,5.0,0.21389222145080566,1.6213231086730957,0.3132305813322342,0.0,5.0,0.0
Y,R,"[6, 10]",1.0,6.0,0.2629098892211914,1.9740450382232666,0.6202227383433037,0.0,6.0,0.0
B,L,"[6, 9]",0.0,6.0,0.207719087600708,2.0082638263702393,0.6951517261988844,0.0,7.0,0.0
R,U,"[5, 9]",0.0,6.0,0.37955594062805176,2.205453872680664,0.7337080144423345,0.0,8.0,0.0
R,U,"[4, 9]",1.0,7.0,0.1878058910369873,1.9296979904174805,0.6467546723193904,0.0,9.0,0.0
Y,R,"[4, 10]",1.0,8.0,0.26044797897338867,1.679919958114624,0.3093456673867831,0.0,10.0,0.0
,,"(6, 6)",,,,,,,,
R,U,"[5, 6]",1.0,1.0,0.38671398162841797,3.4139089584350586,0.2731587188841812,1.0,11.0,0.0
Y,R,"[5, 7]",1.0,2.0,0.24335217475891113,1.7728500366210938,0.4291273037449235,1.0,12.0,0.0
Y,R,"[5, 8]",1.0,3.0,0.17865800857543945,1.5558459758758545,0.28518870050468176,1.0,13.0,0.0
G,D,"[6, 8]",1.0,4.0,0.26192307472229004,1.6635499000549316,0.29857120431312884,1.0,14.0,0.0
Y,R,"[6, 9]",1.0,5.0,0.1942460536956787,1.8142991065979004,0.5126373576599588,1.0,15.0,0.0
Y,R,"[6, 10]",-1.0,5.0,0.055548906326293945,5.946131944656372,0.7417558450793245,1.0,16.0,0.0
R,U,"[5, 10]",1.0,6.0,0.22405195236206055,1.7405109405517578,0.4157285924961686,1.0,17.0,0.0
R,U,"[4, 10]",1.0,7.0,0.2011411190032959,1.9909141063690186,0.6896335152849342,1.0,18.0,0.0
Y,R,"[4, 11]",0.0,7.0,0.21975111961364746,1.5841410160064697,0.27408598260862715,1.0,19.0,0.0
Y,R,"[4, 10]",-3.0,7.0,0.6132888793945312,2.1308608055114746,0.42147426584840947,1.0,20.0,0.0
,,"(6, 6)",,,,,,,,
R,U,"[5, 6]",1.0,1.0,0.39943695068359375,2.9697680473327637,0.37458854333957275,2.0,21.0,0.0
Y,R,"[5, 7]",1.0,2.0,0.2913038730621338,1.8370859622955322,0.4448717636217738,2.0,22.0,0.0
Y,R,"[5, 8]",1.0,3.0,0.23397207260131836,1.6204309463500977,0.2987634270440649,2.0,23.0,0.0
G,D,"[6, 8]",1.0,4.0,0.31856489181518555,2.131053924560547,0.7125782895509367,2.0,24.0,0.0
Y,R,"[6, 9]",1.0,5.0,0.21516799926757812,1.7667720317840576,0.44632275155960527,2.0,25.0,0.0
Y,R,"[6, 10]",1.0,6.0,0.23755311965942383,1.8575739860534668,0.5204190394788312,2.0,26.0,0.0
R,U,"[5, 10]",1.0,7.0,0.19310688972473145,1.6126480102539062,0.3164679225162279,2.0,27.0,0.0
R,U,"[4, 10]",1.0,8.0,0.21186399459838867,1.9688000679016113,0.6518458571396919,2.0,28.0,0.0
B,L,"[4, 9]",1.0,9.0,0.2072010040283203,2.056041955947876,0.7407499952929602,2.0,29.0,0.0
Y,R,"[4, 10]",0.0,9.0,0.18213105201721191,1.7452778816223145,0.4695395479181521,2.0,30.0,0.0
,,"(6, 6)",,,,,,,,
R,U,"[5, 6]",1.0,1.0,0.527230978012085,2.5851998329162598,0.32154316694190155,3.0,31.0,0.0
Y,R,"[5, 7]",1.0,2.0,0.219893217086792,2.053179979324341,0.7408633211980147,3.0,32.0,0.0
Y,R,"[5, 8]",1.0,3.0,0.24874091148376465,1.9845890998840332,0.6421890777032706,3.0,33.0,0.0
G,D,"[6, 8]",1.0,4.0,0.20620393753051758,1.8702828884124756,0.562490308737851,3.0,34.0,0.0
Y,R,"[6, 9]",1.0,5.0,0.21577000617980957,1.6067688465118408,0.28601697022368744,3.0,35.0,0.0
Y,R,"[6, 10]",1.0,6.0,0.25394606590270996,2.0223538875579834,0.6746862072231745,3.0,36.0,0.0
R,U,"[5, 10]",1.0,7.0,0.29845094680786133,1.8660328388214111,0.4742745616677096,3.0,37.0,0.0
R,U,"[4, 10]",1.0,8.0,0.28341197967529297,1.8110079765319824,0.4351863441551256,3.0,38.0,0.0
B,L,"[4, 9]",1.0,9.0,0.20990586280822754,1.6501390933990479,0.3353401687281364,3.0,39.0,0.0
R,U,"[3, 9]",1.0,10.0,0.20476603507995605,1.873117208480835,0.5748978303524417,3.0,40.0,0.0
,,"(6, 6)",,,,,,,,
R,U,"[5, 6]",1.0,1.0,0.35180187225341797,2.553251028060913,0.7445754654941608,4.0,41.0,0.0
Y,R,"[5, 7]",1.0,2.0,0.17516779899597168,1.64599609375,0.374157628860779,4.0,42.0,0.0
Y,R,"[5, 8]",1.0,3.0,0.22391796112060547,1.5942630767822266,0.2684901526811914,4.0,43.0,0.0
G,D,"[6, 8]",1.0,4.0,0.2569410800933838,1.8625268936157227,0.497504005016979,4.0,44.0,0.0
R,U,"[5, 8]",0.0,4.0,0.1932840347290039,1.8480629920959473,0.5453684446551331,4.0,45.0,0.0
Y,R,"[5, 9]",0.0,4.0,0.2638669013977051,1.7915198802947998,0.43693965400818446,4.0,46.0,0.0
R,U,"[4, 9]",1.0,5.0,0.17151689529418945,1.9872119426727295,0.6906216537636216,4.0,47.0,0.0
R,U,"[3, 9]",1.0,6.0,0.20842790603637695,1.7547240257263184,0.44542496776204304,4.0,48.0,0.0
B,L,"[3, 8]",0.0,6.0,0.38640904426574707,2.0324859619140625,0.5609672964230177,4.0,49.0,0.0
Y,R,"[3, 9]",0.0,6.0,0.2663719654083252,1.6250009536743164,0.26959339479589683,4.0,50.0,0.0
,,"(6, 6)",,,,,,,,
R,U,"[5, 6]",1.0,1.0,0.255687952041626,2.0375888347625732,0.3737497226784045,5.0,51.0,0.0
Y,R,"[5, 7]",1.0,2.0,0.2703440189361572,1.6666269302368164,0.30715353287340175,5.0,52.0,0.0
Y,R,"[5, 8]",1.0,3.0,0.21268701553344727,1.6414690017700195,0.33164964261318153,5.0,53.0,0.0
G,D,"[6, 8]",1.0,4.0,0.2075669765472412,1.6131138801574707,0.2949781933150001,5.0,54.0,0.0
R,U,"[5, 8]",0.0,4.0,0.20557212829589844,1.7141821384429932,0.4088368645789581,5.0,55.0,0.0
Y,R,"[5, 9]",0.0,4.0,0.20202016830444336,1.8679749965667725,0.5766530736690112,5.0,56.0,0.0
R,U,"[4, 9]",1.0,5.0,0.14333009719848633,1.6877121925354004,0.44780990103501406,5.0,57.0,0.0
R,U,"[3, 9]",1.0,6.0,0.20622014999389648,1.9823260307312012,0.6631666473827122,5.0,58.0,0.0
B,L,"[3, 8]",0.0,6.0,0.18786001205444336,1.912769079208374,0.6259629085008326,5.0,59.0,0.0
R,U,"[2, 8]",0.0,6.0,0.15890097618103027,1.6051061153411865,0.347956237976297,5.0,60.0,0.0
,,"(6, 6)",,,,,,,,
R,U,"[5, 6]",1.0,1.0,0.2746999263763428,2.0413191318511963,0.38909338484727013,6.0,61.0,0.0
Y,R,"[5, 7]",1.0,2.0,0.22784090042114258,1.8707571029663086,0.5429339963503885,6.0,62.0,0.0
Y,R,"[5, 8]",1.0,3.0,0.21613621711730957,1.7772490978240967,0.4703504646263656,6.0,63.0,0.0
G,D,"[6, 8]",1.0,4.0,0.21033787727355957,1.707362174987793,0.3942554912160339,6.0,64.0,0.0
R,U,"[5, 8]",0.0,4.0,0.2236800193786621,1.614598035812378,0.29234075101370427,6.0,65.0,0.0
R,U,"[4, 8]",0.0,4.0,0.2109689712524414,1.7197518348693848,0.4118586691723619,6.0,66.0,0.0
R,U,"[3, 8]",0.0,4.0,0.17934703826904297,1.778782844543457,0.5072396341380373,6.0,67.0,0.0
R,U,"[2, 8]",0.0,4.0,0.14194607734680176,1.7240760326385498,0.481285505783125,6.0,68.0,0.0
Y,R,"[2, 9]",0.0,4.0,0.23950409889221191,1.9250469207763672,0.5727744691536689,6.0,69.0,0.0
Y,R,"[2, 10]",-1.0,4.0,0.021121978759765625,5.721930980682373,0.577931896101193,6.0,70.0,0.0
,,"(6, 6)",,,,,,,,
R,U,"[5, 6]",1.0,1.0,0.3539860248565674,2.339426040649414,0.5672386746481975,7.0,71.0,0.0
Y,R,"[5, 7]",1.0,2.0,0.31212806701660156,2.165496826171875,0.7492181000045025,7.0,72.0,0.0
Y,R,"[5, 8]",1.0,3.0,0.213392972946167,1.972524881362915,0.6550691029825898,7.0,73.0,0.0
R,U,"[4, 8]",0.0,3.0,0.24265217781066895,1.8741459846496582,0.5293285282964039,7.0,74.0,0.0
Y,R,"[4, 9]",1.0,4.0,0.3194401264190674,1.9071271419525146,0.4863677425424225,7.0,75.0,0.0
Y,R,"[4, 10]",1.0,5.0,0.3132741451263428,1.7036919593811035,0.29016854845135576,7.0,76.0,0.0
G,D,"[5, 10]",1.0,6.0,0.2693309783935547,2.028749942779541,0.6683791184318522,7.0,77.0,0.0
R,U,"[4, 10]",0.0,6.0,0.2251729965209961,1.8915071487426758,0.5598007991065737,7.0,78.0,0.0
R,U,"[3, 10]",0.0,6.0,0.2545900344848633,1.6636531352996826,0.3071991525344643,7.0,79.0,0.0
R,U,"[2, 10]",0.0,6.0,0.23282694816589355,2.0304529666900635,0.7039242482450143,7.0,80.0,0.0
,,"(6, 6)",,,,,,,,
R,U,"[5, 6]",1.0,1.0,0.403170108795166,4.178076982498169,0.5154376665046434,8.0,81.0,0.0
Y,R,"[5, 7]",1.0,2.0,0.4171290397644043,1.8344440460205078,0.3166781385304442,8.0,82.0,0.0
Y,R,"[5, 8]",1.0,3.0,0.2606799602508545,1.6891798973083496,0.3223988279683203,8.0,83.0,0.0
G,D,"[6, 8]",1.0,4.0,0.2613661289215088,2.0814108848571777,0.7200066964009624,8.0,84.0,0.0
Y,R,"[6, 9]",1.0,5.0,0.23076510429382324,2.0652849674224854,0.7352803892359285,8.0,85.0,0.0
Y,R,"[6, 10]",1.0,6.0,0.3214528560638428,2.1014320850372314,0.6867578333029005,8.0,86.0,0.0
R,U,"[5, 10]",1.0,7.0,0.4499480724334717,1.9221580028533936,0.3758029039574911,8.0,87.0,0.0
R,U,"[4, 10]",1.0,8.0,0.2297360897064209,1.9557950496673584,0.6313004626947725,8.0,88.0,0.0
B,L,"[4, 9]",1.0,9.0,0.2268681526184082,1.6141769886016846,0.27910451656176105,8.0,89.0,0.0
Y,R,"[4, 10]",0.0,9.0,0.3269529342651367,1.757166862487793,0.33607172988830875,8.0,90.0,0.0
,,"(6, 6)",,,,,,,,
R,U,"[5, 6]",1.0,1.0,0.36334896087646484,2.586679220199585,0.739038531505913,9.0,91.0,0.0
Y,R,"[5, 7]",1.0,2.0,0.21077609062194824,1.867548942565918,0.5566152696197869,9.0,92.0,0.0
Y,R,"[5, 8]",1.0,3.0,0.21231794357299805,1.9982318878173828,0.6880591375348483,9.0,93.0,0.0
G,D,"[6, 8]",1.0,4.0,0.20926189422607422,1.6039700508117676,0.29225574086726797,9.0,94.0,0.0
R,U,"[5, 8]",0.0,4.0,0.23405790328979492,1.7386908531188965,0.4141667243167072,9.0,95.0,0.0
Y,R,"[5, 9]",0.0,4.0,0.24497199058532715,1.7667789459228516,0.41425184480047633,9.0,96.0,0.0
R,U,"[4, 9]",1.0,5.0,0.18039798736572266,1.5766048431396484,0.29099974207657203,9.0,97.0,0.0
R,U,"[3, 9]",1.0,6.0,0.24958491325378418,1.6746799945831299,0.33225739916151037,9.0,98.0,0.0
G,D,"[4, 9]",0.0,6.0,0.17123889923095703,1.847350835800171,0.5792479628053687,9.0,99.0,0.0
Y,R,"[4, 10]",1.0,7.0,0.21052098274230957,1.6313118934631348,0.3108121600601078,9.0,100.0,0.0
,,"(6, 6)",,,,,,,,
R,U,"[5, 6]",1.0,1.0,0.14501690864562988,3.0638790130615234,0.6241761359410417,10.0,101.0,0.0
Y,R,"[5, 7]",1.0,2.0,0.1839289665222168,1.7383639812469482,0.4627770920310572,10.0,102.0,0.0
Y,R,"[5, 8]",1.0,3.0,0.2198781967163086,1.7315878868103027,0.4108917657598819,10.0,103.0,0.0
G,D,"[6, 8]",1.0,4.0,0.20919394493103027,1.7251930236816406,0.4193955416144261,10.0,104.0,0.0
Y,R,"[6, 9]",1.0,5.0,0.23675107955932617,1.5941359996795654,0.2636944176899642,10.0,105.0,0.0
Y,R,"[6, 10]",1.0,6.0,0.2946629524230957,2.131405830383301,0.7278609400567722,10.0,106.0,0.0
R,U,"[5, 10]",1.0,7.0,0.22720909118652344,1.9830729961395264,0.6608927630748076,10.0,107.0,0.0
R,U,"[4, 10]",1.0,8.0,0.17869806289672852,1.9302630424499512,0.6579521446180077,10.0,108.0,0.0
B,L,"[4, 9]",1.0,9.0,0.22132396697998047,1.9264190196990967,0.6177019635965861,10.0,109.0,0.0
Y,R,"[4, 10]",0.0,9.0,0.17890691757202148,1.777946949005127,0.4955490058907785,10.0,110.0,0.0
,,"(6, 6)",,,,,,,,
R,U,"[5, 6]",1.0,1.0,0.11019015312194824,2.177093982696533,0.6557807005301879,11.0,111.0,0.0
Y,R,"[5, 7]",1.0,2.0,0.10009312629699707,1.9431090354919434,0.7488565329933305,11.0,112.0,0.0
Y,R,"[5, 8]",1.0,3.0,0.17083001136779785,1.774238109588623,0.48981189111450585,11.0,113.0,0.0
G,D,"[6, 8]",1.0,4.0,0.23018693923950195,1.701261043548584,0.3744742030001598,11.0,114.0,0.0
Y,R,"[6, 9]",1.0,5.0,0.24109387397766113,1.971782922744751,0.6292735292302445,11.0,115.0,0.0
Y,R,"[6, 10]",1.0,6.0,0.19681811332702637,1.9141731262207031,0.6102067004462033,11.0,116.0,0.0
R,U,"[5, 10]",1.0,7.0,0.17883896827697754,1.7618858814239502,0.48872062009884965,11.0,117.0,0.0
R,U,"[4, 10]",1.0,8.0,0.11748003959655762,1.6874468326568604,0.4761499298029342,11.0,118.0,0.0
Y,R,"[4, 11]",-1.0,8.0,0.04607820510864258,5.805481910705566,0.6313183822994567,11.0,119.0,0.0
Y,R,"[4, 10]",-3.0,8.0,0.2289869785308838,2.012120008468628,0.676661621904985,11.0,120.0,0.0
,,"(6, 6)",,,,,,,,
R,U,"[5, 6]",1.0,1.0,0.19477200508117676,1.8679771423339844,0.2782595674479092,12.0,121.0,0.0
Y,R,"[5, 7]",1.0,2.0,0.23420214653015137,1.9499781131744385,0.6279354181866024,12.0,122.0,0.0
Y,R,"[5, 8]",1.0,3.0,0.2081758975982666,1.5593421459197998,0.2542852855989038,12.0,123.0,0.0
G,D,"[6, 8]",1.0,4.0,0.23696398735046387,2.0366110801696777,0.7069768269220139,12.0,124.0,0.0
Y,R,"[6, 9]",1.0,5.0,0.23821401596069336,2.0811331272125244,0.7213074885621851,12.0,125.0,0.0
Y,R,"[6, 10]",1.0,6.0,0.17905402183532715,1.748317003250122,0.4699584354735105,12.0,126.0,0.0
R,U,"[5, 10]",1.0,7.0,0.2238619327545166,1.9906330108642578,0.6604742800582284,12.0,127.0,0.0
R,U,"[4, 10]",1.0,8.0,0.17848992347717285,1.63356614112854,0.36075029021042365,12.0,128.0,0.0
B,L,"[4, 9]",1.0,9.0,0.21211719512939453,2.0373780727386475,0.7310501802246401,12.0,129.0,0.0
R,U,"[3, 9]",1.0,10.0,0.17004895210266113,1.9875068664550781,0.7185642657763969,12.0,130.0,0.0
,,"(6, 6)",,,,,,,,
R,U,"[5, 6]",1.0,1.0,0.28101587295532227,2.394690990447998,0.6132297943070957,13.0,131.0,0.0
Y,R,"[5, 7]",1.0,2.0,0.20960497856140137,1.7307679653167725,0.4107555161844488,13.0,132.0,0.0
Y,R,"[5, 8]",1.0,3.0,0.20002222061157227,1.7633838653564453,0.4741413780995144,13.0,133.0,0.0
G,D,"[6, 8]",1.0,4.0,0.17620182037353516,1.6982738971710205,0.4223559819576212,13.0,134.0,0.0
Y,R,"[6, 9]",1.0,5.0,0.17106914520263672,1.7041130065917969,0.42639937432082126,13.0,135.0,0.0
Y,R,"[6, 10]",1.0,6.0,0.20028209686279297,1.8015460968017578,0.5112535789999371,13.0,136.0,0.0
R,U,"[5, 10]",1.0,7.0,0.3723769187927246,2.037698984146118,0.5654492566705345,13.0,137.0,0.0
R,U,"[4, 10]",1.0,8.0,0.1872880458831787,1.8624069690704346,0.5778037879265373,13.0,138.0,0.0
B,L,"[4, 9]",1.0,9.0,0.22529006004333496,1.8520801067352295,0.5298784547645785,13.0,139.0,0.0
R,U,"[3, 9]",1.0,10.0,0.17760801315307617,1.7724308967590332,0.48563619128123464,13.0,140.0,0.0
,,"(6, 6)",,,,,,,,
R,U,"[5, 6]",1.0,1.0,0.15477705001831055,2.042280912399292,0.511145227953421,14.0,141.0,0.0
Y,R,"[5, 7]",1.0,2.0,0.17145800590515137,1.936675786972046,0.6809518042593887,14.0,142.0,0.0
Y,R,"[5, 8]",1.0,3.0,0.1653459072113037,1.526669979095459,0.25802182532765267,14.0,143.0,0.0
G,D,"[6, 8]",1.0,4.0,0.24499106407165527,1.7765238285064697,0.4342923630434921,14.0,144.0,0.0
Y,R,"[6, 9]",1.0,5.0,0.1932070255279541,1.7984468936920166,0.49910866097464357,14.0,145.0,0.0
Y,R,"[6, 10]",1.0,6.0,0.27226996421813965,1.7366929054260254,0.3526330967811316,14.0,146.0,0.0
B,L,"[6, 9]",0.0,6.0,0.25284600257873535,1.8477680683135986,0.5002824793018253,14.0,147.0,0.0
R,U,"[5, 9]",0.0,6.0,0.11791491508483887,1.5753588676452637,0.3590034310073346,14.0,148.0,0.0
R,U,"[4, 9]",1.0,7.0,0.23625802993774414,1.652540922164917,0.328294989264844,14.0,149.0,0.0
B,L,"[4, 8]",0.0,7.0,0.4511849880218506,2.2448198795318604,0.7058606936283044,14.0,150.0,0.0
,,"(6, 6)",,,,,,,,
R,U,"[5, 6]",1.0,1.0,0.33093810081481934,3.1673269271850586,0.5234388421787668,15.0,151.0,0.0
Y,R,"[5, 7]",1.0,2.0,0.20244598388671875,1.835949182510376,0.5426568017646932,15.0,152.0,0.0
Y,R,"[5, 8]",1.0,3.0,0.20801997184753418,1.9237711429595947,0.6162315419563026,15.0,153.0,0.0
G,D,"[6, 8]",1.0,4.0,0.17171692848205566,1.7494871616363525,0.48245656421321964,15.0,154.0,0.0
R,U,"[5, 8]",0.0,4.0,0.23456215858459473,1.9594910144805908,0.6251626583019754,15.0,155.0,0.0
Y,R,"[5, 9]",0.0,4.0,0.19985699653625488,1.7615571022033691,0.4700353009746717,15.0,156.0,0.0
R,U,"[4, 9]",1.0,5.0,0.2106928825378418,2.01235294342041,0.6987263230285569,15.0,157.0,0.0
R,U,"[3, 9]",-1.0,5.0,0.0637509822845459,5.931977033615112,0.7305594091840103,15.0,158.0,0.0
B,L,"[3, 8]",0.0,5.0,0.2758660316467285,1.7177720069885254,0.332064206683643,15.0,159.0,0.0
G,D,"[4, 8]",0.0,5.0,0.20614910125732422,1.7839529514312744,0.4658580220838882,15.0,160.0,0.0
,,"(6, 6)",,,,,,,,
R,U,"[5, 6]",1.0,1.0,0.18428611755371094,3.0597219467163086,0.3089697085590284,16.0,161.0,0.0
Y,R,"[5, 7]",1.0,2.0,0.2296278476715088,1.947450876235962,0.62256479635368,16.0,162.0,0.0
Y,R,"[5, 8]",1.0,3.0,0.23461413383483887,1.6193618774414062,0.2922672106292419,16.0,163.0,0.0
G,D,"[6, 8]",1.0,4.0,0.29422807693481445,2.13922381401062,0.7476792006439228,16.0,164.0,0.0
Y,R,"[6, 9]",1.0,5.0,0.2009282112121582,1.939875841140747,0.6375953213829091,16.0,165.0,0.0
Y,R,"[6, 10]",1.0,6.0,0.2472999095916748,1.6991589069366455,0.3536379539353866,16.0,166.0,0.0
R,U,"[5, 10]",1.0,7.0,0.23366308212280273,1.8289299011230469,0.49943344472187406,16.0,167.0,0.0
R,U,"[4, 10]",1.0,8.0,0.18009614944458008,1.5649619102478027,0.2809507723347583,16.0,168.0,0.0
B,L,"[4, 9]",1.0,9.0,0.3474080562591553,1.706496000289917,0.2540819540024454,16.0,169.0,0.0
R,U,"[3, 9]",1.0,10.0,0.2431938648223877,1.6572530269622803,0.31112220546455954,16.0,170.0,0.0
,,"(6, 6)",,,,,,,,
R,U,"[5, 6]",1.0,1.0,0.2649872303009033,2.187786817550659,0.4820885331396695,17.0,171.0,0.0
Y,R,"[5, 7]",1.0,2.0,0.195451021194458,1.6628060340881348,0.3616113743244251,17.0,172.0,0.0
Y,R,"[5, 8]",1.0,3.0,0.18045282363891602,1.6254820823669434,0.3537688483690484,17.0,173.0,0.0
G,D,"[6, 8]",1.0,4.0,0.17180299758911133,1.5531439781188965,0.273598509235544,17.0,174.0,0.0
Y,R,"[6, 9]",1.0,5.0,0.21604299545288086,1.91715407371521,0.6069459773917016,17.0,175.0,0.0
Y,R,"[6, 10]",1.0,6.0,0.18239212036132812,1.5776450634002686,0.3014798593240592,17.0,176.0,0.0
R,U,"[5, 10]",1.0,7.0,0.2578439712524414,1.7919738292694092,0.4266087519752189,17.0,177.0,0.0
R,U,"[4, 10]",1.0,8.0,0.19072604179382324,1.7711260318756104,0.4809177301420587,17.0,178.0,0.0
B,L,"[4, 9]",1.0,9.0,0.16226601600646973,1.5439610481262207,0.2752173992297931,17.0,179.0,0.0
R,U,"[3, 9]",1.0,10.0,0.3170139789581299,2.1184542179107666,0.7097291257521099,17.0,180.0,0.0
,,"(6, 6)",,,,,,,,
R,U,"[5, 6]",1.0,1.0,0.12091493606567383,1.9447801113128662,0.4714016898224139,18.0,181.0,0.0
Y,R,"[5, 7]",1.0,2.0,0.17230892181396484,1.9024889469146729,0.6236381187498874,18.0,182.0,0.0
Y,R,"[5, 8]",1.0,3.0,0.1901700496673584,1.7625949382781982,0.4698047202743456,18.0,183.0,0.0
G,D,"[6, 8]",1.0,4.0,0.17420411109924316,1.5407929420471191,0.2606323962240144,18.0,184.0,0.0
Y,R,"[6, 9]",1.0,5.0,0.4295480251312256,1.8122317790985107,0.2895263096166059,18.0,185.0,0.0
Y,R,"[6, 10]",1.0,6.0,0.19539499282836914,1.7431659698486328,0.4490124947823807,18.0,186.0,0.0
R,U,"[5, 10]",1.0,7.0,0.2013990879058838,1.8737878799438477,0.572712690252821,18.0,187.0,0.0
R,U,"[4, 10]",1.0,8.0,0.14658617973327637,1.6171770095825195,0.3734679287126442,18.0,188.0,0.0
B,L,"[4, 9]",1.0,9.0,0.25615715980529785,1.6492650508880615,0.2893420749522581,18.0,189.0,0.0
R,U,"[3, 9]",1.0,10.0,0.20047712326049805,1.8778009414672852,0.583555263570896,18.0,190.0,0.0
,,"(6, 6)",,,,,,,,
R,U,"[5, 6]",1.0,1.0,0.35329198837280273,2.4937310218811035,0.5105001722579112,19.0,191.0,0.0
Y,R,"[5, 7]",1.0,2.0,0.2391529083251953,1.6134610176086426,0.27410741332538496,19.0,192.0,0.0
Y,R,"[5, 8]",1.0,3.0,0.1914660930633545,2.019944906234741,0.7270140846963008,19.0,193.0,0.0
G,D,"[6, 8]",1.0,4.0,0.3258638381958008,1.9181568622589111,0.4952284256136972,19.0,194.0,0.0
Y,R,"[6, 9]",1.0,5.0,0.23712801933288574,1.6334829330444336,0.2956042619674476,19.0,195.0,0.0
Y,R,"[6, 10]",1.0,6.0,0.2308671474456787,1.7497642040252686,0.4284832433187427,19.0,196.0,0.0
R,U,"[5, 10]",1.0,7.0,0.16969919204711914,1.8067641258239746,0.5516876953941953,19.0,197.0,0.0
R,U,"[4, 10]",1.0,8.0,0.1741030216217041,1.6319169998168945,0.35057630076830454,19.0,198.0,0.0
B,L,"[4, 9]",1.0,9.0,0.4317770004272461,1.9077529907226562,0.3747994120009242,19.0,199.0,0.0
R,U,"[3, 9]",1.0,10.0,0.22173190116882324,2.033806085586548,0.7249467662231047,19.0,200.0,0.0
,,"(6, 6)",,,,,,,,
R,U,"[5, 6]",1.0,1.0,0.2255110740661621,2.355844020843506,0.6974196905826522,20.0,201.0,0.0
Y,R,"[5, 7]",1.0,2.0,0.20952701568603516,2.0332448482513428,0.7138259744611868,20.0,202.0,0.0
Y,R,"[5, 8]",1.0,3.0,0.1961510181427002,1.734097957611084,0.43159588515440417,20.0,203.0,0.0
G,D,"[6, 8]",1.0,4.0,0.24244403839111328,1.7500989437103271,0.39836488042407153,20.0,204.0,0.0
R,U,"[5, 8]",0.0,4.0,0.3048229217529297,1.9714109897613525,0.5528714010379054,20.0,205.0,0.0
Y,R,"[5, 9]",0.0,4.0,0.19539499282836914,1.5488629341125488,0.2518935512408508,20.0,206.0,0.0
R,U,"[4, 9]",1.0,5.0,0.24520206451416016,1.6724121570587158,0.3240640854375806,20.0,207.0,0.0
R,U,"[3, 9]",1.0,6.0,0.26435089111328125,1.7431089878082275,0.38384853792777046,20.0,208.0,0.0
B,L,"[3, 8]",0.0,6.0,0.24139881134033203,1.7788448333740234,0.42929480432041733,20.0,209.0,0.0
Y,R,"[3, 9]",0.0,6.0,0.3054819107055664,2.0997910499572754,0.6954942929057655,20.0,210.0,0.0
,,"(6, 6)",,,,,,,,
R,U,"[5, 6]",1.0,1.0,0.33771300315856934,2.9833569526672363,0.6621745346910871,21.0,211.0,0.0
Y,R,"[5, 7]",1.0,2.0,0.19838190078735352,1.6290810108184814,0.34138269958254847,21.0,212.0,0.0
Y,R,"[5, 8]",1.0,3.0,0.22700214385986328,1.8672749996185303,0.541693305434376,21.0,213.0,0.0
G,D,"[6, 8]",1.0,4.0,0.18457603454589844,1.8930549621582031,0.6181401762382557,21.0,214.0,0.0
Y,R,"[6, 9]",-1.0,4.0,0.08843302726745605,5.656893968582153,0.44170791620059147,21.0,215.0,0.0
Y,R,"[6, 10]",1.0,5.0,0.2323930263519287,1.7987771034240723,0.4736448755317168,21.0,216.0,0.0
R,U,"[5, 10]",1.0,6.0,0.5641040802001953,2.034397840499878,0.37470337677233856,21.0,217.0,0.0
R,U,"[4, 10]",1.0,7.0,0.21879005432128906,1.8714659214019775,0.5626186435164514,21.0,218.0,0.0
G,D,"[5, 10]",0.0,7.0,0.22037506103515625,1.8231239318847656,0.5023964969958632,21.0,219.0,0.0
Y,R,"[5, 11]",0.0,7.0,0.26864194869995117,1.6366989612579346,0.2727300131435698,21.0,220.0,0.0
,,"(6, 6)",,,,,,,,
R,U,"[5, 6]",1.0,1.0,0.2083139419555664,2.3182120323181152,0.6738324867064316,22.0,221.0,0.0
Y,R,"[5, 7]",1.0,2.0,0.16764211654663086,1.7797839641571045,0.5202828338136631,22.0,222.0,0.0
Y,R,"[5, 8]",1.0,3.0,0.1842179298400879,1.9076001644134521,0.6276799953275851,22.0,223.0,0.0
G,D,"[6, 8]",1.0,4.0,0.12859392166137695,1.5783600807189941,0.35626634884275754,22.0,224.0,0.0
R,U,"[5, 8]",0.0,4.0,0.4828219413757324,2.2522971630096436,0.6748269889750769,22.0,225.0,0.0
Y,R,"[5, 9]",0.0,4.0,0.18193793296813965,1.708294153213501,0.43337339016364806,22.0,226.0,0.0
R,U,"[4, 9]",1.0,5.0,0.19508004188537598,1.7924590110778809,0.49244063494559565,22.0,227.0,0.0
R,U,"[3, 9]",1.0,6.0,0.18675684928894043,1.9689011573791504,0.6943593594074058,22.0,228.0,0.0
Y,R,"[3, 10]",0.0,6.0,0.23413395881652832,1.6463561058044434,0.3243207268596357,22.0,229.0,0.0
Y,R,"[3, 11]",0.0,6.0,0.22208094596862793,1.813931941986084,0.4882071610090149,22.0,230.0,0.0
,,"(6, 6)",,,,,,,,
R,U,"[5, 6]",1.0,1.0,0.16071009635925293,2.789992094039917,0.3780911795305889,23.0,231.0,0.0
Y,R,"[5, 7]",1.0,2.0,0.2189488410949707,1.9340991973876953,0.628631597155461,23.0,232.0,0.0
Y,R,"[5, 8]",1.0,3.0,0.20470499992370605,1.8285140991210938,0.5403982810861674,23.0,233.0,0.0
G,D,"[6, 8]",1.0,4.0,0.12018084526062012,1.8543369770050049,0.6446807333853352,23.0,234.0,0.0
Y,R,"[6, 9]",1.0,5.0,0.18769001960754395,1.7059929370880127,0.43409039937014887,23.0,235.0,0.0
Y,R,"[6, 10]",1.0,6.0,0.20557093620300293,1.9109010696411133,0.5948113108796312,23.0,236.0,0.0
B,L,"[6, 9]",0.0,6.0,0.21444201469421387,1.8709139823913574,0.5656600032180412,23.0,237.0,0.0
R,U,"[5, 9]",0.0,6.0,0.4240720272064209,2.06593918800354,0.5316839777106703,23.0,238.0,0.0
R,U,"[4, 9]",1.0,7.0,0.2684769630432129,2.106456995010376,0.7382308996194813,23.0,239.0,0.0
B,L,"[4, 8]",0.0,7.0,0.6648571491241455,2.36423397064209,0.6022179200804105,23.0,240.0,0.0
,,"(6, 6)",,,,,,,,
R,U,"[5, 6]",1.0,1.0,0.14492177963256836,3.085127115249634,0.6541016813865649,24.0,241.0,0.0
Y,R,"[5, 7]",1.0,2.0,0.20996904373168945,1.6814029216766357,0.36866778938578476,24.0,242.0,0.0
Y,R,"[5, 8]",1.0,3.0,0.25494885444641113,2.0285840034484863,0.680352785809557,24.0,243.0,0.0
G,D,"[6, 8]",1.0,4.0,0.20581603050231934,2.0287961959838867,0.7089713861787554,24.0,244.0,0.0
R,U,"[5, 8]",-1.0,4.0,0.06965303421020508,5.461043119430542,0.270283107405929,24.0,245.0,0.0
Y,R,"[5, 9]",0.0,4.0,0.27193498611450195,1.9139740467071533,0.5340090307627571,24.0,246.0,0.0
R,U,"[4, 9]",1.0,5.0,0.2876100540161133,1.6791839599609375,0.2966382033043554,24.0,247.0,0.0
R,U,"[3, 9]",1.0,6.0,0.2991931438446045,1.8601641654968262,0.4566376676781452,24.0,248.0,0.0
G,D,"[4, 9]",0.0,6.0,0.3191540241241455,2.042747974395752,0.6324714060182566,24.0,249.0,0.0
Y,R,"[4, 10]",1.0,7.0,0.17108583450317383,1.6510748863220215,0.3671580485660873,24.0,250.0,0.0
,,"(6, 6)",,,,,,,,
R,U,"[5, 6]",1.0,1.0,0.3654661178588867,2.416383981704712,0.5000105528783492,25.0,251.0,0.0
Y,R,"[5, 7]",-1.0,1.0,0.006691932678222656,5.807101011276245,0.6734327663091646,25.0,252.0,0.0
Y,R,"[5, 8]",1.0,2.0,0.2653520107269287,2.0277488231658936,0.6676972168493905,25.0,253.0,0.0
G,D,"[6, 8]",1.0,3.0,0.20475006103515625,1.8765239715576172,0.5778833302910706,25.0,254.0,0.0
Y,R,"[6, 9]",1.0,4.0,0.2263939380645752,1.7918479442596436,0.4694743018234246,25.0,255.0,0.0
Y,R,"[6, 10]",1.0,5.0,0.2052750587463379,1.7750167846679688,0.46124924399993644,25.0,256.0,0.0
R,U,"[5, 10]",1.0,6.0,0.20355010032653809,1.568713903427124,0.2800788282034078,25.0,257.0,0.0
R,U,"[4, 10]",1.0,7.0,0.2629859447479248,2.069556951522827,0.6990956236228553,25.0,258.0,0.0
B,L,"[4, 9]",1.0,8.0,0.41936612129211426,2.2259819507598877,0.7084328165295533,25.0,259.0,0.0
R,U,"[3, 9]",1.0,9.0,0.15488886833190918,1.9370639324188232,0.6953785359355628,25.0,260.0,0.0
,,"(6, 6)",,,,,,,,
R,U,"[5, 6]",1.0,1.0,0.18439006805419922,2.1970040798187256,0.6423711171648833,26.0,261.0,0.0
Y,R,"[5, 7]",1.0,2.0,0.19537806510925293,1.6618680953979492,0.3710089195694761,26.0,262.0,0.0
Y,R,"[5, 8]",1.0,3.0,0.20856690406799316,2.0155880451202393,0.703066560074771,26.0,263.0,0.0
G,D,"[6, 8]",1.0,4.0,0.21773886680603027,1.9928359985351562,0.6791036272010552,26.0,264.0,0.0
Y,R,"[6, 9]",1.0,5.0,0.2518458366394043,1.9459929466247559,0.5918965247308823,26.0,265.0,0.0
Y,R,"[6, 10]",1.0,6.0,0.22548317909240723,1.6599018573760986,0.3353124172840687,26.0,266.0,0.0
R,U,"[5, 10]",1.0,7.0,0.4999048709869385,2.096446990966797,0.49813123808153037,26.0,267.0,0.0
R,U,"[4, 10]",1.0,8.0,0.19175100326538086,1.6662650108337402,0.3644228613772907,26.0,268.0,0.0
B,L,"[4, 9]",1.0,9.0,0.8614821434020996,2.3434090614318848,0.3745215033926871,26.0,269.0,0.0
R,U,"[3, 9]",1.0,10.0,0.2127981185913086,1.657485008239746,0.3485486810983702,26.0,270.0,0.0
,,"(6, 6)",,,,,,,,
R,U,"[5, 6]",1.0,1.0,0.23075389862060547,2.3239388465881348,0.655525883899247,27.0,271.0,0.0
Y,R,"[5, 7]",1.0,2.0,0.2783961296081543,1.7525110244750977,0.37489101863987573,27.0,272.0,0.0
Y,R,"[5, 8]",1.0,3.0,0.21038508415222168,2.0103631019592285,0.7016703271408382,27.0,273.0,0.0
G,D,"[6, 8]",1.0,4.0,0.3128519058227539,1.9489378929138184,0.534038129102558,27.0,274.0,0.0
Y,R,"[6, 9]",1.0,5.0,0.24765682220458984,1.8893342018127441,0.5399991181588484,27.0,275.0,0.0
Y,R,"[6, 10]",1.0,6.0,0.1990671157836914,1.6513419151306152,0.3580114619432026,27.0,276.0,0.0
R,U,"[5, 10]",1.0,7.0,0.22571706771850586,2.0498600006103516,0.7409148874840781,27.0,277.0,0.0
R,U,"[4, 10]",1.0,8.0,0.23416805267333984,2.040904998779297,0.7151144200105379,27.0,278.0,0.0
B,L,"[4, 9]",1.0,9.0,0.4010798931121826,1.8749120235443115,0.3736101238001416,27.0,279.0,0.0
R,U,"[3, 9]",1.0,10.0,0.3065018653869629,1.8391129970550537,0.4293178010187681,27.0,280.0,0.0
,,"(6, 6)",,,,,,,,
R,U,"[5, 6]",1.0,1.0,0.145766019821167,2.121289014816284,0.4672396779883189,28.0,281.0,0.0
Y,R,"[5, 7]",1.0,2.0,0.20980191230773926,1.6743171215057373,0.3581173218693679,28.0,282.0,0.0
Y,R,"[5, 8]",1.0,3.0,0.21601605415344238,2.0538787841796875,0.7448732759268513,28.0,283.0,0.0
G,D,"[6, 8]",1.0,4.0,0.21097421646118164,1.834744930267334,0.5298667789201033,28.0,284.0,0.0
Y,R,"[6, 9]",1.0,5.0,0.22390103340148926,1.8623378276824951,0.5254184334850113,28.0,285.0,0.0
Y,R,"[6, 10]",1.0,6.0,0.20289993286132812,1.8315608501434326,0.5402343478805256,28.0,286.0,0.0
R,U,"[5, 10]",1.0,7.0,0.4048118591308594,1.7647149562835693,0.2719239426664805,28.0,287.0,0.0
R,U,"[4, 10]",1.0,8.0,0.22011399269104004,1.6587228775024414,0.3470825815961238,28.0,288.0,0.0
G,D,"[5, 10]",0.0,8.0,0.7151548862457275,2.453022003173828,0.6330910789460653,28.0,289.0,0.0
R,U,"[4, 10]",0.0,8.0,0.10716700553894043,1.5705881118774414,0.3539348583241768,28.0,290.0,0.0
,,"(6, 6)",,,,,,,,
R,U,"[5, 6]",1.0,1.0,0.39453887939453125,2.2505979537963867,0.33789744384465553,29.0,291.0,0.0
Y,R,"[5, 7]",1.0,2.0,0.1957089900970459,1.7678849697113037,0.4721703118079304,29.0,292.0,0.0
Y,R,"[5, 8]",1.0,3.0,0.1767292022705078,1.9716618061065674,0.6936587709813792,29.0,293.0,0.0
G,D,"[6, 8]",1.0,4.0,0.21199798583984375,1.7190048694610596,0.41280416425524374,29.0,294.0,0.0
Y,R,"[6, 9]",1.0,5.0,0.2776148319244385,1.638658046722412,0.25177482852213834,29.0,295.0,0.0
Y,R,"[6, 10]",1.0,6.0,0.3152930736541748,1.7634220123291016,0.3481453400418904,29.0,296.0,0.0
R,U,"[5, 10]",-1.0,6.0,0.07276105880737305,5.852902889251709,0.6173782634496574,29.0,297.0,0.0
R,U,"[4, 10]",1.0,7.0,0.2969939708709717,2.0201661586761475,0.6206282798515534,29.0,298.0,0.0
B,L,"[4, 9]",1.0,8.0,0.27536797523498535,1.6743769645690918,0.29537586167602464,29.0,299.0,0.0
R,U,"[3, 9]",1.0,9.0,0.2270359992980957,1.7007739543914795,0.37947668833889586,29.0,300.0,0.0
,,"(6, 6)",,,,,,,,
R,U,"[5, 6]",1.0,1.0,0.1821439266204834,3.490828037261963,0.6532734012359104,30.0,301.0,0.0
Y,R,"[5, 7]",1.0,2.0,0.19489622116088867,1.9339728355407715,0.6371106330138065,30.0,302.0,0.0
Y,R,"[5, 8]",1.0,3.0,0.4683370590209961,1.8525350093841553,0.28987053831481274,30.0,303.0,0.0
G,D,"[6, 8]",1.0,4.0,0.5009660720825195,1.963763952255249,0.37022317118267745,30.0,304.0,0.0
Y,R,"[6, 9]",1.0,5.0,0.14659404754638672,1.957780122756958,0.7110775594163538,30.0,305.0,0.0
Y,R,"[6, 10]",1.0,6.0,0.22494196891784668,2.0401549339294434,0.717635942177413,30.0,306.0,0.0
R,U,"[5, 10]",1.0,7.0,0.435168981552124,1.9442529678344727,0.41221220017608645,30.0,307.0,0.0
R,U,"[4, 10]",1.0,8.0,0.11563396453857422,1.5162417888641357,0.3118361914976956,30.0,308.0,0.0
B,L,"[4, 9]",1.0,9.0,0.272907018661499,1.8295378684997559,0.457873589958365,30.0,309.0,0.0
R,U,"[3, 9]",1.0,10.0,0.2026197910308838,1.9112169742584229,0.6189526524223858,30.0,310.0,0.0
,,"(6, 6)",,,,,,,,
R,U,"[5, 6]",1.0,1.0,0.16985416412353516,2.181040048599243,0.5832987113793986,31.0,311.0,0.0
Y,R,"[5, 7]",1.0,2.0,0.2116560935974121,1.9773988723754883,0.6604149120405713,31.0,312.0,0.0
Y,R,"[5, 8]",1.0,3.0,0.2297048568725586,1.6743998527526855,0.35175570661187855,31.0,313.0,0.0
G,D,"[6, 8]",1.0,4.0,0.24145293235778809,1.9714040756225586,0.6228744870731846,31.0,314.0,0.0
Y,R,"[6, 9]",1.0,5.0,0.10477280616760254,1.4443659782409668,0.250874489132176,31.0,315.0,0.0
Y,R,"[6, 10]",1.0,6.0,0.29761505126953125,1.903437852859497,0.5040856886287779,31.0,316.0,0.0
R,U,"[5, 10]",1.0,7.0,0.43332910537719727,2.1143760681152344,0.5850357233428186,31.0,317.0,0.0
R,U,"[4, 10]",1.0,8.0,0.2089400291442871,1.704246997833252,0.3893516020824507,31.0,318.0,0.0
B,L,"[4, 9]",1.0,9.0,0.2618849277496338,1.6918091773986816,0.3312113731680828,31.0,319.0,0.0
R,U,"[3, 9]",1.0,10.0,0.24682283401489258,2.006404161453247,0.6538061145398318,31.0,320.0,0.0
,,"(6, 6)",,,,,,,,
R,U,"[5, 6]",1.0,1.0,0.21124601364135742,2.229016065597534,0.5994979602979933,32.0,321.0,0.0
Y,R,"[5, 7]",-1.0,1.0,0.045601844787597656,5.566751003265381,0.38290529601621537,32.0,322.0,0.0
Y,R,"[5, 8]",1.0,2.0,0.2768099308013916,2.0290589332580566,0.6450523512487887,32.0,323.0,0.0
G,D,"[6, 8]",1.0,3.0,0.23008513450622559,1.6657369136810303,0.3443111740252525,32.0,324.0,0.0
Y,R,"[6, 9]",1.0,4.0,0.23243308067321777,1.9557538032531738,0.633089146641155,32.0,325.0,0.0
Y,R,"[6, 10]",1.0,5.0,0.30774903297424316,1.8861968517303467,0.4694342760602783,32.0,326.0,0.0
R,U,"[5, 10]",1.0,6.0,0.2693779468536377,1.812985897064209,0.4491539517650449,32.0,327.0,0.0
R,U,"[4, 10]",1.0,7.0,0.28255200386047363,1.9076528549194336,0.5232156925212692,32.0,328.0,0.0
B,L,"[4, 9]",1.0,8.0,0.19563579559326172,1.5641191005706787,0.2709120247945766,32.0,329.0,0.0
R,U,"[3, 9]",1.0,9.0,0.19972610473632812,1.9837150573730469,0.687453827879137,32.0,330.0,0.0
,,"(6, 6)",,,,,,,,
R,U,"[5, 6]",-1.0,0.0,0.08892297744750977,5.821522951126099,0.30917076371723395,33.0,331.0,0.0
Y,R,"[5, 7]",1.0,1.0,0.3338639736175537,2.0307891368865967,0.6063898878538362,33.0,332.0,0.0
Y,R,"[5, 8]",1.0,2.0,0.21246695518493652,1.6388461589813232,0.3287003000618793,33.0,333.0,0.0
G,D,"[6, 8]",1.0,3.0,0.25798892974853516,1.9896740913391113,0.6347667355006477,33.0,334.0,0.0
B,L,"[6, 7]",0.0,3.0,0.25892186164855957,1.6642670631408691,0.2992470023048,33.0,335.0,0.0
R,U,"[5, 7]",0.0,3.0,0.21647000312805176,1.6784679889678955,0.36090624993137016,33.0,336.0,0.0
R,U,"[4, 7]",0.0,3.0,0.38272595405578613,2.1960411071777344,0.7231949138607667,33.0,337.0,0.0
R,U,"[3, 7]",0.0,3.0,0.18069911003112793,1.6321821212768555,0.35573265345689,33.0,338.0,0.0
Y,R,"[3, 8]",0.0,3.0,0.27421998977661133,2.015537977218628,0.6378560458439168,33.0,339.0,0.0
B,L,"[3, 7]",0.0,3.0,0.10343408584594727,1.9250118732452393,0.7291005492742628,33.0,340.0,0.0
,,"(6, 6)",,,,,,,,
R,U,"[5, 6]",1.0,1.0,0.14421391487121582,2.6433820724487305,0.4560447706550915,34.0,341.0,0.0
Y,R,"[5, 7]",1.0,2.0,0.19999408721923828,1.7580578327178955,0.4641628496873594,34.0,342.0,0.0
Y,R,"[5, 8]",1.0,3.0,0.21808600425720215,1.923557996749878,0.6042825462698611,34.0,343.0,0.0
G,D,"[6, 8]",1.0,4.0,0.2701568603515625,1.7155139446258545,0.3531033798610075,34.0,344.0,0.0
Y,R,"[6, 9]",1.0,5.0,0.2876322269439697,2.0962209701538086,0.6827715003059759,34.0,345.0,0.0
Y,R,"[6, 10]",1.0,6.0,0.22166109085083008,2.0111448764801025,0.6938710327955495,34.0,346.0,0.0
R,U,"[5, 10]",1.0,7.0,0.23964786529541016,1.784142017364502,0.44442322722105976,34.0,347.0,0.0
R,U,"[4, 10]",1.0,8.0,0.28434300422668457,2.1078531742095947,0.7352280157459588,34.0,348.0,0.0
B,L,"[4, 9]",1.0,9.0,0.21862411499023438,1.584752082824707,0.2703604553689641,34.0,349.0,0.0
R,U,"[3, 9]",1.0,10.0,0.23907804489135742,2.0471999645233154,0.7170857405215421,34.0,350.0,0.0
,,"(6, 6)",,,,,,,,
R,U,"[5, 6]",1.0,1.0,0.4422619342803955,2.5527780055999756,0.2702010047978055,35.0,351.0,0.0
Y,R,"[5, 7]",1.0,2.0,0.23995399475097656,1.7180531024932861,0.3715629219400623,35.0,352.0,0.0
Y,R,"[5, 8]",1.0,3.0,0.13406085968017578,1.7842271327972412,0.5554662934431625,35.0,353.0,0.0
G,D,"[6, 8]",1.0,4.0,0.8361330032348633,2.263331890106201,0.3356169853777074,35.0,354.0,0.0
Y,R,"[6, 9]",1.0,5.0,0.47239089012145996,2.0575809478759766,0.4762668402041855,35.0,355.0,0.0
Y,R,"[6, 10]",1.0,6.0,0.41234493255615234,2.1315720081329346,0.6244580006759969,35.0,356.0,0.0
R,U,"[5, 10]",1.0,7.0,0.23302602767944336,2.0135631561279297,0.6878738282518488,35.0,357.0,0.0
R,U,"[4, 10]",1.0,8.0,0.21070289611816406,1.9270789623260498,0.6150237028837577,35.0,358.0,0.0
Y,R,"[4, 11]",0.0,8.0,0.45704102516174316,2.2416348457336426,0.673098592901336,35.0,359.0,0.0
R,U,"[3, 11]",0.0,8.0,0.29164886474609375,1.961008071899414,0.5674901910680678,35.0,360.0,0.0
,,"(6, 6)",,,,,,,,
R,U,"[5, 6]",1.0,1.0,0.19794607162475586,2.2171990871429443,0.6348646504070472,36.0,361.0,0.0
Y,R,"[5, 7]",1.0,2.0,0.14430999755859375,1.7875471115112305,0.5388558180554635,36.0,362.0,0.0
Y,R,"[5, 8]",1.0,3.0,0.1828930377960205,1.6330490112304688,0.3554639013760324,36.0,363.0,0.0
R,U,"[4, 8]",-1.0,3.0,0.0075190067291259766,5.684174060821533,0.5558719812293655,36.0,364.0,0.0
Y,R,"[4, 9]",1.0,4.0,0.8321821689605713,2.6739470958709717,0.746092299939761,36.0,365.0,0.0
Y,R,"[4, 10]",1.0,5.0,0.20575499534606934,1.7482271194458008,0.44455272701121384,36.0,366.0,0.0
R,U,"[3, 10]",0.0,5.0,0.26632213592529297,1.6238219738006592,0.26859363376215867,36.0,367.0,0.0
R,U,"[2, 10]",0.0,5.0,0.24222493171691895,2.04044508934021,0.6918697503903204,36.0,368.0,0.0
G,D,"[3, 10]",0.0,5.0,0.21356987953186035,1.8968870639801025,0.5886457807380698,36.0,369.0,0.0
R,U,"[2, 10]",0.0,5.0,0.16256213188171387,1.886457920074463,0.6249494831886241,36.0,370.0,0.0
,,"(6, 6)",,,,,,,,
R,U,"[5, 6]",1.0,1.0,0.135728120803833,1.921504020690918,0.3134466392140833,37.0,371.0,0.0
Y,R,"[5, 7]",1.0,2.0,0.20291709899902344,1.8021349906921387,0.4987431846851012,37.0,372.0,0.0
Y,R,"[5, 8]",1.0,3.0,0.2088930606842041,1.8573379516601562,0.5392232118447204,37.0,373.0,0.0
G,D,"[6, 8]",1.0,4.0,0.22085905075073242,1.6060760021209717,0.27880221834270835,37.0,374.0,0.0
Y,R,"[6, 9]",1.0,5.0,0.2238631248474121,1.7599060535430908,0.43849945704161536,37.0,375.0,0.0
Y,R,"[6, 10]",1.0,6.0,0.26839709281921387,1.8795998096466064,0.5179401787456412,37.0,376.0,0.0
R,U,"[5, 10]",1.0,7.0,0.352679967880249,1.945417881011963,0.4966330567445252,37.0,377.0,0.0
R,U,"[4, 10]",1.0,8.0,0.23073196411132812,1.8323700428009033,0.4955675821433303,37.0,378.0,0.0
B,L,"[4, 9]",1.0,9.0,0.190993070602417,1.8114290237426758,0.523589744436696,37.0,379.0,0.0
R,U,"[3, 9]",1.0,10.0,0.19765496253967285,1.9823169708251953,0.6882742770565807,37.0,380.0,0.0
,,"(6, 6)",,,,,,,,
R,U,"[5, 6]",1.0,1.0,0.3133280277252197,2.336627960205078,0.3758179058538339,38.0,381.0,0.0
Y,R,"[5, 7]",1.0,2.0,0.14581799507141113,1.7688930034637451,0.5278240360914626,38.0,382.0,0.0
Y,R,"[5, 8]",1.0,3.0,0.21623992919921875,1.7148640155792236,0.4096824815610041,38.0,383.0,0.0
R,U,"[4, 8]",-2.0,3.0,1.1101479530334473,2.7743418216705322,0.6335132850443461,38.0,384.0,0.0
G,D,"[5, 8]",0.0,3.0,0.4882619380950928,2.060832977294922,0.46113169189721603,38.0,385.0,0.0
R,U,"[4, 8]",0.0,3.0,0.3050520420074463,2.1357810497283936,0.7298186516724334,38.0,386.0,0.0
R,U,"[3, 8]",-1.0,3.0,0.0019638538360595703,5.613432168960571,0.4766995674131398,38.0,387.0,0.0
R,U,"[2, 8]",0.0,3.0,0.20687484741210938,1.932229995727539,0.6253274637571187,38.0,388.0,0.0
Y,R,"[2, 9]",0.0,3.0,0.22129487991333008,1.6978180408477783,0.38991213391649787,38.0,389.0,0.0
B,L,"[2, 8]",0.0,3.0,0.2914750576019287,1.7109830379486084,0.3176027868013076,38.0,390.0,0.0
,,"(6, 6)",,,,,,,,
R,U,"[5, 6]",1.0,1.0,0.38434696197509766,4.486102104187012,0.6365433832895764,39.0,391.0,0.0
Y,R,"[5, 7]",1.0,2.0,0.20898008346557617,1.8477580547332764,0.5343137347096001,39.0,392.0,0.0
Y,R,"[5, 8]",1.0,3.0,0.29117894172668457,1.663465976715088,0.2646416702955431,39.0,393.0,0.0
G,D,"[6, 8]",1.0,4.0,0.3835921287536621,1.8408629894256592,0.3553497549309154,39.0,394.0,0.0
Y,R,"[6, 9]",1.0,5.0,0.2504441738128662,1.964878797531128,0.6199348838471803,39.0,395.0,0.0
Y,R,"[6, 10]",1.0,6.0,0.2711458206176758,1.7594480514526367,0.3961412145330212,39.0,396.0,0.0
R,U,"[5, 10]",1.0,7.0,0.4196629524230957,2.250067949295044,0.7292437031621164,39.0,397.0,0.0
R,U,"[4, 10]",1.0,8.0,0.25568723678588867,2.09283709526062,0.7220160418122008,39.0,398.0,0.0
B,L,"[4, 9]",1.0,9.0,0.2722799777984619,1.725602149963379,0.34792829763826555,39.0,399.0,0.0
R,U,"[3, 9]",1.0,10.0,0.7959041595458984,2.597515106201172,0.6949660571327807,39.0,400.0,0.0
,,"(6, 6)",,,,,,,,
R,U,"[5, 6]",1.0,1.0,0.12366008758544922,2.0341010093688965,0.47911509408126435,40.0,401.0,0.0
Y,R,"[5, 7]",1.0,2.0,0.19250202178955078,1.7786281108856201,0.47436617731557174,40.0,402.0,0.0
Y,R,"[5, 8]",1.0,3.0,0.2608048915863037,2.0118181705474854,0.6526365035410118,40.0,403.0,0.0
G,D,"[6, 8]",1.0,4.0,0.2361598014831543,1.7490160465240479,0.41841493414614894,40.0,404.0,0.0
Y,R,"[6, 9]",1.0,5.0,0.25214314460754395,1.7047231197357178,0.35648127651289496,40.0,405.0,0.0
Y,R,"[6, 10]",1.0,6.0,0.22614479064941406,1.7443389892578125,0.41732881220150114,40.0,406.0,0.0
G,D,"[7, 10]",0.0,6.0,0.2860260009765625,1.7139461040496826,0.33136109963216404,40.0,407.0,0.0
R,U,"[6, 10]",0.0,6.0,0.26445603370666504,1.6634321212768555,0.2947459621085788,40.0,408.0,0.0
R,U,"[5, 10]",1.0,7.0,0.25934481620788574,1.6835510730743408,0.3280337743580728,40.0,409.0,0.0
B,L,"[5, 9]",0.0,7.0,0.5390019416809082,2.293297052383423,0.6544391274840821,40.0,410.0,0.0
,,"(6, 6)",,,,,,,,
R,U,"[5, 6]",1.0,1.0,0.2961089611053467,2.8483779430389404,0.6527111705188184,41.0,411.0,0.0
Y,R,"[5, 7]",1.0,2.0,0.20073485374450684,1.915895938873291,0.6185941195566622,41.0,412.0,0.0
Y,R,"[5, 8]",1.0,3.0,0.24327492713928223,2.043210029602051,0.6949312493583232,41.0,413.0,0.0
G,D,"[6, 8]",1.0,4.0,0.19798588752746582,1.539228916168213,0.25120520601954305,41.0,414.0,0.0
Y,R,"[6, 9]",1.0,5.0,0.4858129024505615,1.9315321445465088,0.3492575912824315,41.0,415.0,0.0
Y,R,"[6, 10]",1.0,6.0,0.2904989719390869,2.019129991531372,0.6180937662607494,41.0,416.0,0.0
R,U,"[5, 10]",1.0,7.0,0.24991893768310547,2.0109968185424805,0.6622534419006852,41.0,417.0,0.0
R,U,"[4, 10]",1.0,8.0,0.2361149787902832,1.6617250442504883,0.3075955346275087,41.0,418.0,0.0
B,L,"[4, 9]",1.0,9.0,0.7591979503631592,2.3166961669921875,0.4573973414409551,41.0,419.0,0.0
Y,R,"[4, 10]",-2.0,9.0,1.0023400783538818,2.470526933670044,0.4444826756771656,41.0,420.0,0.0
,,"(6, 6)",,,,,,,,
R,U,"[5, 6]",1.0,1.0,0.21466302871704102,2.9254119396209717,0.4863749701487742,42.0,421.0,0.0
Y,R,"[5, 7]",1.0,2.0,0.23196911811828613,1.722355842590332,0.39242998635512233,42.0,422.0,0.0
Y,R,"[5, 8]",1.0,3.0,0.22965002059936523,1.763028860092163,0.43840888387424787,42.0,423.0,0.0
G,D,"[6, 8]",1.0,4.0,0.2129230499267578,1.7258188724517822,0.41426306154550885,42.0,424.0,0.0
Y,R,"[6, 9]",1.0,5.0,0.19489312171936035,1.56709885597229,0.2645677836961059,42.0,425.0,0.0
Y,R,"[6, 10]",1.0,6.0,0.23426318168640137,2.053579092025757,0.7177371997095234,42.0,426.0,0.0
R,U,"[5, 10]",1.0,7.0,0.14773988723754883,1.8673679828643799,0.6185061963129013,42.0,427.0,0.0
R,U,"[4, 10]",1.0,8.0,0.19838786125183105,1.670456886291504,0.37254820464417004,42.0,428.0,0.0
B,L,"[4, 9]",1.0,9.0,0.2317202091217041,2.0419979095458984,0.7145098889514392,42.0,429.0,0.0
R,U,"[3, 9]",1.0,10.0,0.23031997680664062,2.060405969619751,0.7243649675299049,42.0,430.0,0.0
,,"(6, 6)",,,,,,,,
R,U,"[5, 6]",1.0,1.0,0.4061698913574219,2.636976957321167,0.4615732861756927,43.0,431.0,0.0
Y,R,"[5, 7]",1.0,2.0,0.24428606033325195,2.0643539428710938,0.7254549906637933,43.0,432.0,0.0
Y,R,"[5, 8]",1.0,3.0,0.20037603378295898,1.6362309455871582,0.34542638699780204,43.0,433.0,0.0
G,D,"[6, 8]",1.0,4.0,0.2839210033416748,1.8947100639343262,0.5232892982709649,43.0,434.0,0.0
B,L,"[6, 7]",0.0,4.0,0.3013029098510742,2.1006951332092285,0.7069384159397681,43.0,435.0,0.0
Y,R,"[6, 8]",0.0,4.0,0.22684216499328613,1.706115961074829,0.3799950370508703,43.0,436.0,0.0
R,U,"[5, 8]",0.0,4.0,0.2412700653076172,2.084033966064453,0.7303694640768008,43.0,437.0,0.0
R,U,"[4, 8]",0.0,4.0,0.21979308128356934,1.6306397914886475,0.3112571997248137,43.0,438.0,0.0
G,D,"[5, 8]",0.0,4.0,0.2821919918060303,1.821669101715088,0.4494095858390719,43.0,439.0,0.0
Y,R,"[5, 9]",0.0,4.0,0.22766613960266113,1.80485200881958,0.4708090589856762,43.0,440.0,0.0
,,"(6, 6)",,,,,,,,
R,U,"[5, 6]",1.0,1.0,0.2520749568939209,2.017612934112549,0.3717809871518965,44.0,441.0,0.0
Y,R,"[5, 7]",1.0,2.0,0.21518778800964355,1.6078550815582275,0.2964333492399144,44.0,442.0,0.0
Y,R,"[5, 8]",1.0,3.0,0.2577040195465088,1.7574119567871094,0.3869985629478744,44.0,443.0,0.0
G,D,"[6, 8]",1.0,4.0,0.23405003547668457,1.8261549472808838,0.4962714053337373,44.0,444.0,0.0
Y,R,"[6, 9]",1.0,5.0,0.23101592063903809,1.7632229328155518,0.4261174433914024,44.0,445.0,0.0
Y,R,"[6, 10]",1.0,6.0,0.13304901123046875,1.711935043334961,0.48793287627178067,44.0,446.0,0.0
R,U,"[5, 10]",1.0,7.0,0.2347121238708496,1.7939159870147705,0.465253011704629,44.0,447.0,0.0
R,U,"[4, 10]",1.0,8.0,0.2682499885559082,1.952510118484497,0.5842181207248891,44.0,448.0,0.0
B,L,"[4, 9]",1.0,9.0,0.1631920337677002,1.779534101486206,0.5136391265996474,44.0,449.0,0.0
R,U,"[3, 9]",-1.0,9.0,0.055264949798583984,5.6406309604644775,0.4542155407207135,44.0,450.0,0.0
,,"(6, 6)",,,,,,,,
R,U,"[5, 6]",1.0,1.0,0.5173180103302002,2.5905699729919434,0.6611019690906865,45.0,451.0,0.0
Y,R,"[5, 7]",1.0,2.0,0.2170121669769287,2.0210890769958496,0.7153777320428125,45.0,452.0,0.0
Y,R,"[5, 8]",1.0,3.0,0.21762800216674805,1.6235301494598389,0.3059528008488127,45.0,453.0,0.0
G,D,"[6, 8]",1.0,4.0,0.489976167678833,1.9637410640716553,0.36951039292528864,45.0,454.0,0.0
Y,R,"[6, 9]",1.0,5.0,0.27640509605407715,2.037249803543091,0.6564069322737835,45.0,455.0,0.0
Y,R,"[6, 10]",1.0,6.0,0.2511608600616455,1.6666738986968994,0.3232722944983427,45.0,456.0,0.0
R,U,"[5, 10]",1.0,7.0,0.21332311630249023,1.5776898860931396,0.2677110816913477,45.0,457.0,0.0
R,U,"[4, 10]",1.0,8.0,0.2122039794921875,1.8405649662017822,0.5246878978796573,45.0,458.0,0.0
B,L,"[4, 9]",1.0,9.0,0.17954301834106445,1.621959924697876,0.34676327752895586,45.0,459.0,0.0
R,U,"[3, 9]",1.0,10.0,0.650130033493042,2.396804094314575,0.6432199472530444,45.0,460.0,0.0
,,"(6, 6)",,,,,,,,
R,U,"[5, 6]",1.0,1.0,0.38820695877075195,2.5230062007904053,0.7159596763786038,46.0,461.0,0.0
Y,R,"[5, 7]",1.0,2.0,0.15264391899108887,1.8406181335449219,0.590056966829495,46.0,462.0,0.0
Y,R,"[5, 8]",1.0,3.0,0.1940479278564453,1.6070349216461182,0.3138813964633879,46.0,463.0,0.0
G,D,"[6, 8]",1.0,4.0,0.2293097972869873,1.9121959209442139,0.5757013442893233,46.0,464.0,0.0
Y,R,"[6, 9]",-1.0,4.0,0.01964402198791504,5.593570947647095,0.4525540312070524,46.0,465.0,0.0
Y,R,"[6, 10]",1.0,5.0,0.2452220916748047,1.8748760223388672,0.5272576859914462,46.0,466.0,0.0
R,U,"[5, 10]",1.0,6.0,0.2695488929748535,2.045728921890259,0.6894821655066892,46.0,467.0,0.0
R,U,"[4, 10]",1.0,7.0,0.21847987174987793,1.6377758979797363,0.32756202253073413,46.0,468.0,0.0
B,L,"[4, 9]",1.0,8.0,0.8811249732971191,2.679241895675659,0.7063345586756044,46.0,469.0,0.0
R,U,"[3, 9]",1.0,9.0,0.22884392738342285,1.966925859451294,0.6399931984406406,46.0,470.0,0.0
,,"(6, 6)",,,,,,,,
R,U,"[5, 6]",1.0,1.0,0.538093090057373,6.1959309577941895,0.31925434173724687,47.0,471.0,0.0
Y,R,"[5, 7]",1.0,2.0,0.2999989986419678,2.1282410621643066,0.730386507053535,47.0,472.0,0.0
Y,R,"[5, 8]",1.0,3.0,0.2135601043701172,2.0564088821411133,0.7366866673723896,47.0,473.0,0.0
G,D,"[6, 8]",1.0,4.0,0.17370080947875977,1.8155608177185059,0.5358046363619751,47.0,474.0,0.0
Y,R,"[6, 9]",1.0,5.0,0.21206307411193848,1.9276700019836426,0.6132321200622903,47.0,475.0,0.0
Y,R,"[6, 10]",1.0,6.0,0.23299884796142578,1.8052830696105957,0.4686166448103901,47.0,476.0,0.0
R,U,"[5, 10]",1.0,7.0,0.26552605628967285,1.87900710105896,0.5142716747935145,47.0,477.0,0.0
Y,R,"[5, 11]",0.0,7.0,0.21909189224243164,1.6310739517211914,0.311959024500706,47.0,478.0,0.0
B,L,"[5, 10]",0.0,7.0,0.5238029956817627,2.0984201431274414,0.4768701236293309,47.0,479.0,0.0
R,U,"[4, 10]",1.0,8.0,0.25236010551452637,2.0842180252075195,0.7445365137361948,47.0,480.0,0.0
,,"(6, 6)",,,,,,,,
R,U,"[5, 6]",1.0,1.0,0.14268779754638672,1.9949519634246826,0.43928554829528316,48.0,481.0,0.0
Y,R,"[5, 7]",1.0,2.0,0.2631049156188965,1.9979019165039062,0.6369073884676715,48.0,482.0,0.0
Y,R,"[5, 8]",1.0,3.0,0.10668516159057617,1.7415189743041992,0.5284786376427653,48.0,483.0,0.0
G,D,"[6, 8]",1.0,4.0,0.28460693359375,1.7503411769866943,0.37884981924549754,48.0,484.0,0.0
Y,R,"[6, 9]",1.0,5.0,0.22062301635742188,1.8008270263671875,0.47967837922109136,48.0,485.0,0.0
Y,R,"[6, 10]",1.0,6.0,0.23374104499816895,1.9680609703063965,0.6308619364281691,48.0,486.0,0.0
R,U,"[5, 10]",1.0,7.0,0.27120494842529297,1.972027063369751,0.6027247390456741,48.0,487.0,0.0
R,U,"[4, 10]",1.0,8.0,0.2787761688232422,1.7959880828857422,0.415599385633938,48.0,488.0,0.0
Y,R,"[4, 11]",0.0,8.0,0.5774350166320801,2.248311996459961,0.5635837932117023,48.0,489.0,0.0
R,U,"[3, 11]",0.0,8.0,0.2194211483001709,1.8700320720672607,0.5503373800568077,48.0,490.0,0.0
,,"(6, 6)",,,,,,,,
R,U,"[5, 6]",1.0,1.0,0.19884085655212402,2.2841010093688965,0.6509391536196987,49.0,491.0,0.0
Y,R,"[5, 7]",1.0,2.0,0.22242403030395508,1.9900619983673096,0.6574842569306375,49.0,492.0,0.0
Y,R,"[5, 8]",1.0,3.0,0.18242096900939941,1.941504955291748,0.6655346896157113,49.0,493.0,0.0
G,D,"[6, 8]",1.0,4.0,0.25109291076660156,1.625101089477539,0.27430788763024355,49.0,494.0,0.0
Y,R,"[6, 9]",1.0,5.0,0.3723018169403076,2.0960028171539307,0.6199089864658356,49.0,495.0,0.0
Y,R,"[6, 10]",1.0,6.0,0.22743892669677734,2.0047268867492676,0.6745061801494825,49.0,496.0,0.0
R,U,"[5, 10]",1.0,7.0,0.18743109703063965,1.5648078918457031,0.2730497207276943,49.0,497.0,0.0
R,U,"[4, 10]",1.0,8.0,0.4507319927215576,2.204460859298706,0.6603165493420315,49.0,498.0,0.0
B,L,"[4, 9]",1.0,9.0,0.18561100959777832,1.6941540241241455,0.4214139342440271,49.0,499.0,0.0
R,U,"[3, 9]",1.0,10.0,0.22016501426696777,1.8333067893981934,0.5211762303847478,49.0,500.0,0.0
,,"(6, 6)",,,,,,,,
R,U,"[5, 6]",1.0,1.0,0.2305591106414795,2.085921049118042,0.35717855808755605,50.0,501.0,0.0
Y,R,"[5, 7]",1.0,2.0,0.15184903144836426,1.496669054031372,0.2538506368126424,50.0,502.0,0.0
Y,R,"[5, 8]",1.0,3.0,0.19441795349121094,1.8728718757629395,0.5766075223061486,50.0,503.0,0.0
G,D,"[6, 8]",1.0,4.0,0.21901893615722656,1.8534011840820312,0.5464008126334527,50.0,504.0,0.0
Y,R,"[6, 9]",1.0,5.0,0.17340493202209473,1.748331069946289,0.4614955212204747,50.0,505.0,0.0
Y,R,"[6, 10]",1.0,6.0,0.2352612018585205,1.9869811534881592,0.664812893235047,50.0,506.0,0.0
R,U,"[5, 10]",1.0,7.0,0.1760568618774414,2.001584053039551,0.7163436054918895,50.0,507.0,0.0
R,U,"[4, 10]",1.0,8.0,0.3702731132507324,1.8533439636230469,0.38663912747955353,50.0,508.0,0.0
R,U,"[3, 10]",0.0,8.0,0.15979290008544922,2.003145933151245,0.7393487569656632,50.0,509.0,0.0
R,U,"[2, 10]",0.0,8.0,0.2498478889465332,2.0700302124023438,0.7258607237075361,50.0,510.0,0.0
,,"(6, 6)",,,,,,,,
R,U,"[5, 6]",1.0,1.0,0.26709914207458496,2.2743098735809326,0.5169477191478208,51.0,511.0,0.0
Y,R,"[5, 7]",1.0,2.0,0.1739060878753662,1.9638009071350098,0.6805713292212425,51.0,512.0,0.0
Y,R,"[5, 8]",1.0,3.0,0.21306800842285156,2.0251379013061523,0.7056043277564827,51.0,513.0,0.0
G,D,"[6, 8]",-1.0,3.0,0.07733702659606934,5.772374868392944,0.5612280760688144,51.0,514.0,0.0
Y,R,"[6, 9]",1.0,4.0,0.18070507049560547,1.902862787246704,0.6307030471971051,51.0,515.0,0.0
Y,R,"[6, 10]",1.0,5.0,0.24597597122192383,1.7914609909057617,0.4388697381846292,51.0,516.0,0.0
R,U,"[5, 10]",1.0,6.0,0.2846260070800781,1.6853082180023193,0.307621606379261,51.0,517.0,0.0
R,U,"[4, 10]",1.0,7.0,0.25536489486694336,1.9230549335479736,0.5636994982310872,51.0,518.0,0.0
B,L,"[4, 9]",1.0,8.0,0.20289993286132812,1.7512178421020508,0.44828177600618213,51.0,519.0,0.0
R,U,"[3, 9]",1.0,9.0,0.2279350757598877,2.0771069526672363,0.7417290745335025,51.0,520.0,0.0
,,"(6, 6)",,,,,,,,
R,U,"[5, 6]",1.0,1.0,0.1823270320892334,2.418583869934082,0.5604277956106213,52.0,521.0,0.0
Y,R,"[5, 7]",1.0,2.0,0.2655670642852783,2.0750539302825928,0.718443620315341,52.0,522.0,0.0
Y,R,"[5, 8]",1.0,3.0,0.23371195793151855,1.7891008853912354,0.45783505998928997,52.0,523.0,0.0
G,D,"[6, 8]",1.0,4.0,0.2277979850769043,1.6836647987365723,0.3581675271743002,52.0,524.0,0.0
B,L,"[6, 7]",0.0,4.0,0.2634890079498291,1.835326910018921,0.47667936092706725,52.0,525.0,0.0
Y,R,"[6, 8]",0.0,4.0,0.255465030670166,1.8979668617248535,0.5412753755381867,52.0,526.0,0.0
R,U,"[5, 8]",0.0,4.0,0.20105195045471191,1.8573880195617676,0.5652359125908354,52.0,527.0,0.0
R,U,"[4, 8]",0.0,4.0,0.19135308265686035,1.5937860012054443,0.2924426761880448,52.0,528.0,0.0
Y,R,"[4, 9]",1.0,5.0,0.27791881561279297,2.0722720623016357,0.6977113038674622,52.0,529.0,0.0
Y,R,"[4, 10]",-2.0,5.0,1.027513027191162,2.7917230129241943,0.7224796919119532,52.0,530.0,0.0
,,"(6, 6)",,,,,,,,
R,U,"[5, 6]",1.0,1.0,0.14954495429992676,1.932650089263916,0.30556277556720124,53.0,531.0,0.0
Y,R,"[5, 7]",1.0,2.0,0.23482298851013184,2.0701282024383545,0.7418660784536936,53.0,532.0,0.0
Y,R,"[5, 8]",1.0,3.0,0.27190208435058594,1.741868019104004,0.38395037116921743,53.0,533.0,0.0
G,D,"[6, 8]",1.0,4.0,0.2231910228729248,1.955949068069458,0.6229806079871982,53.0,534.0,0.0
R,U,"[5, 8]",0.0,4.0,0.2313981056213379,1.6727728843688965,0.34606415250388084,53.0,535.0,0.0
Y,R,"[5, 9]",0.0,4.0,0.29776692390441895,2.1394128799438477,0.734893897095366,53.0,536.0,0.0
R,U,"[4, 9]",1.0,5.0,0.19472718238830566,1.8434889316558838,0.5454995761725043,53.0,537.0,0.0
R,U,"[3, 9]",1.0,6.0,0.21406793594360352,1.8390049934387207,0.534171695501573,53.0,538.0,0.0
B,L,"[3, 8]",0.0,6.0,0.3879830837249756,2.0056140422821045,0.5064251141905964,53.0,539.0,0.0
R,U,"[2, 8]",0.0,6.0,0.18990087509155273,1.7553541660308838,0.46167459139515565,53.0,540.0,0.0
,,"(6, 6)",,,,,,,,
R,U,"[5, 6]",1.0,1.0,0.126021146774292,2.0901739597320557,0.3352750746909234,54.0,541.0,0.0
Y,R,"[5, 7]",1.0,2.0,0.21389508247375488,1.8733839988708496,0.5583543529126959,54.0,542.0,0.0
Y,R,"[5, 8]",1.0,3.0,0.18231415748596191,1.6355490684509277,0.36075727641100297,54.0,543.0,0.0
G,D,"[6, 8]",-1.0,3.0,0.07705998420715332,5.497689962387085,0.29171036783384824,54.0,544.0,0.0
Y,R,"[6, 9]",1.0,4.0,0.22873997688293457,1.837472915649414,0.5121722946284674,54.0,545.0,0.0
Y,R,"[6, 10]",-1.0,4.0,0.02172708511352539,5.816557884216309,0.6784057417931016,54.0,546.0,0.0
Y,R,"[6, 11]",0.0,4.0,0.3236050605773926,1.8900070190429688,0.46848147949707164,54.0,547.0,0.0
R,U,"[5, 11]",0.0,4.0,0.22160601615905762,2.025102138519287,0.6933079416034376,54.0,548.0,0.0
R,U,"[4, 11]",0.0,4.0,0.1793808937072754,1.9088330268859863,0.6354982877202652,54.0,549.0,0.0
R,U,"[3, 11]",0.0,4.0,0.5162889957427979,1.8889350891113281,0.274673929677211,54.0,550.0,0.0
,,"(6, 6)",,,,,,,,
R,U,"[5, 6]",1.0,1.0,0.15921401977539062,2.966542959213257,0.6574738169557196,55.0,551.0,0.0
Y,R,"[5, 7]",1.0,2.0,0.2701420783996582,1.8484580516815186,0.48928232025853263,55.0,552.0,0.0
Y,R,"[5, 8]",1.0,3.0,0.3101818561553955,2.1509110927581787,0.7398940666083347,55.0,553.0,0.0
G,D,"[6, 8]",1.0,4.0,0.2540888786315918,1.7156100273132324,0.3392131638237132,55.0,554.0,0.0
Y,R,"[6, 9]",1.0,5.0,0.46637892723083496,1.917851209640503,0.35694081614708334,55.0,555.0,0.0
Y,R,"[6, 10]",1.0,6.0,0.3037137985229492,2.003416061401367,0.6101604494956572,55.0,556.0,0.0
R,U,"[5, 10]",1.0,7.0,0.2767770290374756,1.6520729064941406,0.2791028716562661,55.0,557.0,0.0
R,U,"[4, 10]",1.0,8.0,0.47779393196105957,1.874871015548706,0.3038396819373925,55.0,558.0,0.0
B,L,"[4, 9]",1.0,9.0,0.4052109718322754,1.944153070449829,0.4310546182361458,55.0,559.0,0.0
R,U,"[3, 9]",1.0,10.0,0.23727083206176758,2.0648560523986816,0.7291045226780886,55.0,560.0,0.0
,,"(6, 6)",,,,,,,,
R,U,"[5, 6]",1.0,1.0,0.5564649105072021,2.0354628562927246,0.2649277403351608,56.0,561.0,0.0
Y,R,"[5, 7]",1.0,2.0,0.36625003814697266,2.0125739574432373,0.5436985992299044,56.0,562.0,0.0
Y,R,"[5, 8]",1.0,3.0,0.25124502182006836,1.9175009727478027,0.5777714780053167,56.0,563.0,0.0
R,U,"[4, 8]",0.0,3.0,0.3224680423736572,1.9472739696502686,0.5251093132999598,56.0,564.0,0.0
Y,R,"[4, 9]",1.0,4.0,0.5604519844055176,2.276520013809204,0.6180968213145508,56.0,565.0,0.0
Y,R,"[4, 10]",1.0,5.0,0.20713496208190918,1.6501760482788086,0.351771586218844,56.0,566.0,0.0
R,U,"[3, 10]",0.0,5.0,0.28899097442626953,1.8830039501190186,0.48467739594107717,56.0,567.0,0.0
R,U,"[2, 10]",0.0,5.0,0.19978594779968262,1.9169790744781494,0.6180811873119583,56.0,568.0,0.0
B,L,"[2, 9]",0.0,5.0,0.3081059455871582,1.8894450664520264,0.47426390217445347,56.0,569.0,0.0
R,U,"[1, 9]",0.0,5.0,0.2716100215911865,1.660456895828247,0.2847957352566587,56.0,570.0,0.0
,,"(6, 6)",,,,,,,,
R,U,"[5, 6]",1.0,1.0,0.20265507698059082,2.1519010066986084,0.5197435706321373,57.0,571.0,0.0
Y,R,"[5, 7]",1.0,2.0,0.23682212829589844,1.904721975326538,0.5745562459258118,57.0,572.0,0.0
Y,R,"[5, 8]",1.0,3.0,0.23992395401000977,1.6265208721160889,0.3010810307021896,57.0,573.0,0.0
G,D,"[6, 8]",1.0,4.0,0.4864201545715332,2.024482011795044,0.4420603841877212,57.0,574.0,0.0
Y,R,"[6, 9]",1.0,5.0,0.2417430877685547,1.594567060470581,0.2534011928856577,57.0,575.0,0.0
Y,R,"[6, 10]",1.0,6.0,0.5904881954193115,2.1580448150634766,0.4612066599071053,57.0,576.0,0.0
R,U,"[5, 10]",1.0,7.0,0.5388000011444092,2.0195019245147705,0.36402577399064007,57.0,577.0,0.0
R,U,"[4, 10]",1.0,8.0,0.24444103240966797,1.7585508823394775,0.4057926684832884,57.0,578.0,0.0
B,L,"[4, 9]",1.0,9.0,0.496610164642334,1.8536288738250732,0.2595433963896686,57.0,579.0,0.0
R,U,"[3, 9]",1.0,10.0,0.3037381172180176,2.0302419662475586,0.6393426322685083,57.0,580.0,0.0
,,"(6, 6)",,,,,,,,
R,U,"[5, 6]",1.0,1.0,0.2078099250793457,2.1995651721954346,0.5723148901095686,58.0,581.0,0.0
Y,R,"[5, 7]",1.0,2.0,0.2079169750213623,1.5922420024871826,0.28144481751180656,58.0,582.0,0.0
Y,R,"[5, 8]",1.0,3.0,0.35999608039855957,1.7992889881134033,0.3305337367976261,58.0,583.0,0.0
G,D,"[6, 8]",1.0,4.0,0.330841064453125,2.0328681468963623,0.5962662489676582,58.0,584.0,0.0
Y,R,"[6, 9]",1.0,5.0,0.10669207572937012,1.7931060791015625,0.5728503988612728,58.0,585.0,0.0
Y,R,"[6, 10]",1.0,6.0,0.17228913307189941,1.893561840057373,0.6162661683315289,58.0,586.0,0.0
R,U,"[5, 10]",-1.0,6.0,0.05048799514770508,5.78062891960144,0.5968393361806894,58.0,587.0,0.0
R,U,"[4, 10]",1.0,7.0,0.3736248016357422,1.9856159687042236,0.4990329610439417,58.0,588.0,0.0
R,U,"[3, 10]",0.0,7.0,0.25227999687194824,1.6874349117279053,0.33665510275031435,58.0,589.0,0.0
R,U,"[2, 10]",0.0,7.0,0.3119051456451416,1.8329761028289795,0.41937924659130693,58.0,590.0,0.0
,,"(6, 6)",,,,,,,,
R,U,"[5, 6]",1.0,1.0,0.34077882766723633,2.9554429054260254,0.6245903061169975,59.0,591.0,0.0
Y,R,"[5, 7]",1.0,2.0,0.3185760974884033,1.9860260486602783,0.5772303986427666,59.0,592.0,0.0
Y,R,"[5, 8]",1.0,3.0,0.41930484771728516,2.0291640758514404,0.5229808356232141,59.0,593.0,0.0
G,D,"[6, 8]",1.0,4.0,0.23210692405700684,2.0533299446105957,0.7261708523292238,59.0,594.0,0.0
Y,R,"[6, 9]",1.0,5.0,0.21280694007873535,1.8729779720306396,0.5657983773860873,59.0,595.0,0.0
Y,R,"[6, 10]",1.0,6.0,0.20186996459960938,1.7849950790405273,0.48428353017812525,59.0,596.0,0.0
G,D,"[7, 10]",0.0,6.0,0.6251130104064941,2.2584621906280518,0.525872150660513,59.0,597.0,0.0
R,U,"[6, 10]",0.0,6.0,0.16335296630859375,1.6610898971557617,0.4037828910013681,59.0,598.0,0.0
B,L,"[6, 9]",0.0,6.0,0.23907899856567383,1.744671106338501,0.3983177725208863,59.0,599.0,0.0
R,U,"[5, 9]",0.0,6.0,0.22540998458862305,2.040053129196167,0.7046556921495236,59.0,600.0,0.0
,,"(6, 6)",,,,,,,,
R,U,"[5, 6]",1.0,1.0,0.22319483757019043,2.1903860569000244,0.578439967196811,60.0,601.0,0.0
Y,R,"[5, 7]",-1.0,1.0,0.09029197692871094,5.710174083709717,0.4884965704484289,60.0,602.0,0.0
Y,R,"[5, 8]",1.0,2.0,0.21487092971801758,1.640885829925537,0.3294805000006136,60.0,603.0,0.0
Y,R,"[5, 9]",0.0,2.0,0.19488310813903809,1.6677019596099854,0.36377697857803376,60.0,604.0,0.0
R,U,"[4, 9]",1.0,3.0,0.17420411109924316,1.717970848083496,0.43158050302298095,60.0,605.0,0.0
R,U,"[3, 9]",1.0,4.0,0.2684030532836914,1.837756872177124,0.46927122247906483,60.0,606.0,0.0
B,L,"[3, 8]",0.0,4.0,0.20910310745239258,1.9602138996124268,0.6458954827450277,60.0,607.0,0.0
R,U,"[2, 8]",0.0,4.0,0.18335890769958496,1.7679119110107422,0.4806028108122103,60.0,608.0,0.0
R,U,"[1, 8]",0.0,4.0,0.6920790672302246,2.477243185043335,0.6742841219720825,60.0,609.0,0.0
Y,R,"[1, 9]",0.0,4.0,0.11069393157958984,1.677588939666748,0.4685977840070372,60.0,610.0,0.0
,,"(6, 6)",,,,,,,,
R,U,"[5, 6]",1.0,1.0,0.259429931640625,3.1815969944000244,0.7332271549947429,61.0,611.0,0.0
Y,R,"[5, 7]",1.0,2.0,0.22829914093017578,1.8891801834106445,0.5558082841564782,61.0,612.0,0.0
Y,R,"[5, 8]",1.0,3.0,0.24689483642578125,1.66646409034729,0.3224511596001065,61.0,613.0,0.0
G,D,"[6, 8]",1.0,4.0,0.313309907913208,1.9373822212219238,0.5262509397272646,61.0,614.0,0.0
Y,R,"[6, 9]",1.0,5.0,0.33284997940063477,1.7621738910675049,0.3385422459880506,61.0,615.0,0.0
Y,R,"[6, 10]",1.0,6.0,0.25810813903808594,1.9903709888458252,0.6285627275068989,61.0,616.0,0.0
R,U,"[5, 10]",1.0,7.0,0.18877601623535156,1.5510199069976807,0.27992578629638587,61.0,617.0,0.0
R,U,"[4, 10]",1.0,8.0,0.40419793128967285,1.986536979675293,0.4827899504075146,61.0,618.0,0.0
B,L,"[4, 9]",1.0,9.0,0.8730530738830566,2.4190218448638916,0.4352152041717397,61.0,619.0,0.0
R,U,"[3, 9]",1.0,10.0,0.23046207427978516,1.5985150337219238,0.2672013044954574,61.0,620.0,0.0
,,"(6, 6)",,,,,,,,
R,U,"[5, 6]",1.0,1.0,0.47917604446411133,2.357583999633789,0.44106103517183814,62.0,621.0,0.0
Y,R,"[5, 7]",1.0,2.0,0.2780940532684326,1.9551520347595215,0.5793923981659768,62.0,622.0,0.0
Y,R,"[5, 8]",1.0,3.0,0.27028393745422363,1.9304888248443604,0.5598359618253231,62.0,623.0,0.0
G,D,"[6, 8]",1.0,4.0,0.21967506408691406,1.5652170181274414,0.2588106887891005,62.0,624.0,0.0
Y,R,"[6, 9]",1.0,5.0,0.24397611618041992,1.798638105392456,0.4570231511437753,62.0,625.0,0.0
Y,R,"[6, 10]",1.0,6.0,0.22084999084472656,1.8438279628753662,0.5341309601243055,62.0,626.0,0.0
R,U,"[5, 10]",1.0,7.0,0.6367759704589844,2.44979190826416,0.7169553838059689,62.0,627.0,0.0
R,U,"[4, 10]",1.0,8.0,0.2657968997955322,2.0402588844299316,0.6739236944628171,62.0,628.0,0.0
B,L,"[4, 9]",1.0,9.0,0.18141794204711914,1.8780460357666016,0.601801231179989,62.0,629.0,0.0
R,U,"[3, 9]",1.0,10.0,0.2301640510559082,1.8361728191375732,0.5046784968493825,62.0,630.0,0.0
,,"(6, 6)",,,,,,,,
R,U,"[5, 6]",1.0,1.0,0.22468900680541992,2.1538078784942627,0.29210723780780945,63.0,631.0,0.0
Y,R,"[5, 7]",1.0,2.0,0.2986409664154053,2.1004140377044678,0.7087250766293645,63.0,632.0,0.0
Y,R,"[5, 8]",1.0,3.0,0.20275402069091797,1.5789539813995361,0.2878873190600097,63.0,633.0,0.0
G,D,"[6, 8]",1.0,4.0,0.2349720001220703,1.629669189453125,0.3008760854631779,63.0,634.0,0.0
Y,R,"[6, 9]",1.0,5.0,0.22998690605163574,1.658174991607666,0.32574741030370724,63.0,635.0,0.0
Y,R,"[6, 10]",1.0,6.0,0.24489593505859375,1.7642419338226318,0.4231573171748073,63.0,636.0,0.0
R,U,"[5, 10]",1.0,7.0,0.21859478950500488,1.823193073272705,0.5127630583720348,63.0,637.0,0.0
R,U,"[4, 10]",1.0,8.0,0.26189684867858887,1.971364974975586,0.6006845172302935,63.0,638.0,0.0
B,L,"[4, 9]",1.0,9.0,0.18039989471435547,1.5581550598144531,0.2757354028844278,63.0,639.0,0.0
R,U,"[3, 9]",1.0,10.0,0.24263811111450195,1.755465030670166,0.4143213953501272,63.0,640.0,0.0
,,"(6, 6)",,,,,,,,
R,U,"[5, 6]",1.0,1.0,0.3772928714752197,2.7724738121032715,0.5699437900569481,64.0,641.0,0.0
Y,R,"[5, 7]",1.0,2.0,0.20150995254516602,1.577543020248413,0.28101770927301895,64.0,642.0,0.0
Y,R,"[5, 8]",1.0,3.0,0.23946094512939453,2.0716781616210938,0.7188462018679653,64.0,643.0,0.0
G,D,"[6, 8]",1.0,4.0,0.14175200462341309,1.558459997177124,0.3110104129031958,64.0,644.0,0.0
Y,R,"[6, 9]",1.0,5.0,0.19082379341125488,1.7239091396331787,0.4346828157738889,64.0,645.0,0.0
Y,R,"[6, 10]",1.0,6.0,0.20842409133911133,1.9597690105438232,0.6443328094497236,64.0,646.0,0.0
R,U,"[5, 10]",1.0,7.0,0.16836905479431152,1.9637670516967773,0.7080043620587667,64.0,647.0,0.0
R,U,"[4, 10]",1.0,8.0,0.17471790313720703,1.7744131088256836,0.4992116078497047,64.0,648.0,0.0
B,L,"[4, 9]",1.0,9.0,0.19841814041137695,1.6004140377044678,0.2996255530271912,64.0,649.0,0.0
R,U,"[3, 9]",1.0,10.0,0.23221898078918457,1.8548359870910645,0.5209832577954756,64.0,650.0,0.0
,,"(6, 6)",,,,,,,,
R,U,"[5, 6]",1.0,1.0,0.13513493537902832,2.030302047729492,0.5512759124832878,65.0,651.0,0.0
Y,R,"[5, 7]",1.0,2.0,0.20772695541381836,1.820249080657959,0.5046782913718233,65.0,652.0,0.0
Y,R,"[5, 8]",1.0,3.0,0.28738999366760254,2.1102988719940186,0.7146745956487007,65.0,653.0,0.0
G,D,"[6, 8]",1.0,4.0,0.22346806526184082,1.6814429759979248,0.34652288237818757,65.0,654.0,0.0
Y,R,"[6, 9]",1.0,5.0,0.24005508422851562,1.9064221382141113,0.552608692047081,65.0,655.0,0.0
Y,R,"[6, 10]",1.0,6.0,0.18097305297851562,1.5337600708007812,0.25325866974201944,65.0,656.0,0.0
R,U,"[5, 10]",1.0,7.0,0.2567100524902344,1.641618013381958,0.2781311481932822,65.0,657.0,0.0
R,U,"[4, 10]",1.0,8.0,0.31426095962524414,1.985806941986084,0.5802175498530511,65.0,658.0,0.0
B,L,"[4, 9]",1.0,9.0,0.18623805046081543,1.6817748546600342,0.39547282225294494,65.0,659.0,0.0
R,U,"[3, 9]",1.0,10.0,0.20164799690246582,1.5522119998931885,0.2645181554400496,65.0,660.0,0.0
,,"(6, 6)",,,,,,,,
R,U,"[5, 6]",1.0,1.0,0.30097198486328125,2.181493043899536,0.4957125926246747,66.0,661.0,0.0
Y,R,"[5, 7]",1.0,2.0,0.2332620620727539,1.5731499195098877,0.2523250749702173,66.0,662.0,0.0
Y,R,"[5, 8]",1.0,3.0,0.258882999420166,1.8523809909820557,0.48781158638125727,66.0,663.0,0.0
G,D,"[6, 8]",1.0,4.0,0.2225661277770996,1.714172124862671,0.3852778650128002,66.0,664.0,0.0
Y,R,"[6, 9]",1.0,5.0,0.1692190170288086,1.7771689891815186,0.5126312884516662,66.0,665.0,0.0
Y,R,"[6, 10]",1.0,6.0,0.20046210289001465,2.019390821456909,0.7313615518836816,66.0,666.0,0.0
R,U,"[5, 10]",-1.0,6.0,0.06148791313171387,5.4732749462127686,0.27148707557485174,66.0,667.0,0.0
R,U,"[4, 10]",1.0,7.0,0.2846109867095947,1.846343994140625,0.46771602851445965,66.0,668.0,0.0
G,D,"[5, 10]",0.0,7.0,0.5191950798034668,2.041330099105835,0.42566867983085227,66.0,669.0,0.0
R,U,"[4, 10]",0.0,7.0,0.21279287338256836,1.7411320209503174,0.43339313915627053,66.0,670.0,0.0
,,"(6, 6)",,,,,,,,
R,U,"[5, 6]",1.0,1.0,0.2698650360107422,2.2980639934539795,0.3648067189117551,67.0,671.0,0.0
Y,R,"[5, 7]",1.0,2.0,0.24394798278808594,1.6279990673065186,0.2761346891014544,67.0,672.0,0.0
Y,R,"[5, 8]",1.0,3.0,0.2679939270019531,1.9326810836791992,0.5752082578661266,67.0,673.0,0.0
G,D,"[6, 8]",1.0,4.0,0.23679804801940918,1.6768758296966553,0.3521974278019621,67.0,674.0,0.0
R,U,"[5, 8]",0.0,4.0,0.5684280395507812,2.323330879211426,0.6585629342501209,67.0,675.0,0.0
Y,R,"[5, 9]",0.0,4.0,0.2638061046600342,1.7049579620361328,0.3470210836028047,67.0,676.0,0.0
R,U,"[4, 9]",1.0,5.0,0.14308810234069824,1.8966948986053467,0.6433849659572399,67.0,677.0,0.0
R,U,"[3, 9]",1.0,6.0,0.18075013160705566,1.7817959785461426,0.5085382967814358,67.0,678.0,0.0
B,L,"[3, 8]",0.0,6.0,0.4145190715789795,2.0566999912261963,0.5485795782556595,67.0,679.0,0.0
R,U,"[2, 8]",-1.0,6.0,0.0734858512878418,5.925858974456787,0.707888641028676,67.0,680.0,0.0
,,"(6, 6)",,,,,,,,
R,U,"[5, 6]",1.0,1.0,0.3172180652618408,2.4003658294677734,0.6909954668567526,68.0,681.0,0.0
Y,R,"[5, 7]",1.0,2.0,0.23215198516845703,1.7273039817810059,0.4019372861951714,68.0,682.0,0.0
Y,R,"[5, 8]",1.0,3.0,0.22530293464660645,1.9687199592590332,0.6369556175093611,68.0,683.0,0.0
G,D,"[6, 8]",1.0,4.0,0.24846196174621582,1.6597399711608887,0.31359389515189023,68.0,684.0,0.0
Y,R,"[6, 9]",1.0,5.0,0.2750120162963867,1.9482572078704834,0.5615648128078767,68.0,685.0,0.0
Y,R,"[6, 10]",1.0,6.0,0.20277190208435059,1.6284680366516113,0.34019945399621765,68.0,686.0,0.0
R,U,"[5, 10]",1.0,7.0,0.25530314445495605,1.995656967163086,0.6356043409319294,68.0,687.0,0.0
R,U,"[4, 10]",1.0,8.0,0.16643404960632324,1.5261731147766113,0.26203769475056543,68.0,688.0,0.0
B,L,"[4, 9]",1.0,9.0,0.32170701026916504,2.060349941253662,0.6551795198044226,68.0,689.0,0.0
R,U,"[3, 9]",1.0,10.0,0.25493597984313965,1.6345489025115967,0.27350983761561315,68.0,690.0,0.0
,,"(6, 6)",,,,,,,,
R,U,"[5, 6]",1.0,1.0,0.19817805290222168,2.8776328563690186,0.5173610273662573,69.0,691.0,0.0
Y,R,"[5, 7]",1.0,2.0,0.23229002952575684,1.8874011039733887,0.5546451339766575,69.0,692.0,0.0
Y,R,"[5, 8]",1.0,3.0,0.23926210403442383,1.672339916229248,0.32728178584462353,69.0,693.0,0.0
G,D,"[6, 8]",1.0,4.0,0.4872548580169678,2.300055980682373,0.7267591015062583,69.0,694.0,0.0
Y,R,"[6, 9]",1.0,5.0,0.20922088623046875,1.6719071865081787,0.3656892630503496,69.0,695.0,0.0
Y,R,"[6, 10]",1.0,6.0,0.2601020336151123,2.0320639610290527,0.6640375735019013,69.0,696.0,0.0
R,U,"[5, 10]",1.0,7.0,0.22339391708374023,1.9104728698730469,0.5744811574316939,69.0,697.0,0.0
R,U,"[4, 10]",1.0,8.0,0.25536203384399414,1.966883897781372,0.6079649180015054,69.0,698.0,0.0
B,L,"[4, 9]",1.0,9.0,0.19903182983398438,1.8837659358978271,0.5918239198342576,69.0,699.0,0.0
R,U,"[3, 9]",1.0,10.0,0.21929311752319336,1.9971342086791992,0.6886926812081774,69.0,700.0,0.0
,,"(6, 6)",,,,,,,,
R,U,"[5, 6]",1.0,1.0,0.21498799324035645,1.9678370952606201,0.3900684656700715,70.0,701.0,0.0
Y,R,"[5, 7]",1.0,2.0,0.16764402389526367,1.7240378856658936,0.46406080183972975,70.0,702.0,0.0
Y,R,"[5, 8]",1.0,3.0,0.2291879653930664,1.7378101348876953,0.40182077196717425,70.0,703.0,0.0
G,D,"[6, 8]",1.0,4.0,0.25296616554260254,1.646846055984497,0.29873641371485193,70.0,704.0,0.0
Y,R,"[6, 9]",1.0,5.0,0.28773999214172363,2.0117998123168945,0.6269025131096299,70.0,705.0,0.0
Y,R,"[6, 10]",1.0,6.0,0.3108658790588379,1.7000219821929932,0.2938332064886531,70.0,706.0,0.0
R,U,"[5, 10]",1.0,7.0,0.31376004219055176,1.848181962966919,0.44182922403123287,70.0,707.0,0.0
R,U,"[4, 10]",1.0,8.0,0.19118905067443848,1.7363810539245605,0.44474134481893735,70.0,708.0,0.0
B,L,"[4, 9]",1.0,9.0,0.20836806297302246,1.563917875289917,0.25876992458801734,70.0,709.0,0.0
R,U,"[3, 9]",1.0,10.0,0.27278900146484375,2.106558084487915,0.7474486688244539,70.0,710.0,0.0
,,"(6, 6)",,,,,,,,
R,U,"[5, 6]",1.0,1.0,0.4172389507293701,2.1209630966186523,0.2696452901011681,71.0,711.0,0.0
Y,R,"[5, 7]",1.0,2.0,0.23642182350158691,1.7073321342468262,0.3766256815993349,71.0,712.0,0.0
Y,R,"[5, 8]",1.0,3.0,0.2292780876159668,2.0391390323638916,0.7154138800929641,71.0,713.0,0.0
G,D,"[6, 8]",1.0,4.0,0.28330302238464355,1.6580688953399658,0.2731856219229322,71.0,714.0,0.0
Y,R,"[6, 9]",1.0,5.0,0.5274560451507568,2.0492048263549805,0.42273008611509666,71.0,715.0,0.0
Y,R,"[6, 10]",1.0,6.0,0.24954509735107422,1.8610739707946777,0.5171096458144363,71.0,716.0,0.0
R,U,"[5, 10]",1.0,7.0,0.2585320472717285,1.915747880935669,0.5493730151323423,71.0,717.0,0.0
R,U,"[4, 10]",1.0,8.0,0.29189109802246094,2.0726120471954346,0.6718472050697313,71.0,718.0,0.0
G,D,"[5, 10]",0.0,8.0,0.7813570499420166,2.4146111011505127,0.5364829690147462,71.0,719.0,0.0
R,U,"[4, 10]",0.0,8.0,0.18925189971923828,1.8006761074066162,0.5037714581098073,71.0,720.0,0.0
,,"(6, 6)",,,,,,,,
R,U,"[5, 6]",1.0,1.0,0.26163816452026367,2.4144890308380127,0.7346619113938646,72.0,721.0,0.0
Y,R,"[5, 7]",-1.0,1.0,0.08593201637268066,5.892988920211792,0.6774169257469984,72.0,722.0,0.0
Y,R,"[5, 8]",1.0,2.0,0.294173002243042,2.062671184539795,0.6734999250349231,72.0,723.0,0.0
G,D,"[6, 8]",1.0,3.0,0.2967650890350342,1.6690819263458252,0.27634574539006995,72.0,724.0,0.0
Y,R,"[6, 9]",1.0,4.0,0.36884093284606934,1.941951036453247,0.48478506227473894,72.0,725.0,0.0
Y,R,"[6, 10]",1.0,5.0,0.38977599143981934,1.812925100326538,0.3142702378816277,72.0,726.0,0.0
R,U,"[5, 10]",1.0,6.0,0.24307799339294434,1.8622770309448242,0.5096168709005873,72.0,727.0,0.0
R,U,"[4, 10]",1.0,7.0,0.21709990501403809,1.8682360649108887,0.5612529691067465,72.0,728.0,0.0
B,L,"[4, 9]",1.0,8.0,0.2205030918121338,1.9373469352722168,0.6316075741004097,72.0,729.0,0.0
R,U,"[3, 9]",1.0,9.0,0.28974008560180664,1.695786952972412,0.2943439811309056,72.0,730.0,0.0
,,"(6, 6)",,,,,,,,
R,U,"[5, 6]",1.0,1.0,0.33444905281066895,1.9782781600952148,0.2561109899394876,73.0,731.0,0.0
Y,R,"[5, 7]",1.0,2.0,0.34770798683166504,1.8631601333618164,0.41899853333472886,73.0,732.0,0.0
Y,R,"[5, 8]",1.0,3.0,0.2260279655456543,1.6073460578918457,0.2763752328648079,73.0,733.0,0.0
G,D,"[6, 8]",1.0,4.0,0.2739379405975342,1.719815969467163,0.3461450107996465,73.0,734.0,0.0
Y,R,"[6, 9]",1.0,5.0,0.268632173538208,2.075374126434326,0.7047786629414653,73.0,735.0,0.0
Y,R,"[6, 10]",1.0,6.0,0.37429213523864746,2.2160720825195312,0.7372231740555757,73.0,736.0,0.0
R,U,"[5, 10]",1.0,7.0,0.27887582778930664,1.6840031147003174,0.30474247234520235,73.0,737.0,0.0
R,U,"[4, 10]",1.0,8.0,0.19650983810424805,1.8869831562042236,0.5913911870205804,73.0,738.0,0.0
B,L,"[4, 9]",1.0,9.0,0.8984050750732422,2.596683979034424,0.6048783693578952,73.0,739.0,0.0
R,U,"[3, 9]",1.0,10.0,0.1988358497619629,2.0362939834594727,0.7406657801495952,73.0,740.0,0.0
,,"(6, 6)",,,,,,,,
R,U,"[5, 6]",1.0,1.0,0.20599102973937988,2.422006130218506,0.7459058860615515,74.0,741.0,0.0
Y,R,"[5, 7]",1.0,2.0,0.23864388465881348,1.677314043045044,0.3236000508501961,74.0,742.0,0.0
Y,R,"[5, 8]",1.0,3.0,0.20502495765686035,2.0115599632263184,0.7180362114089975,74.0,743.0,0.0
G,D,"[6, 8]",1.0,4.0,0.1823868751525879,1.9485630989074707,0.6667110609824469,74.0,744.0,0.0
Y,R,"[6, 9]",1.0,5.0,0.19757509231567383,1.8935651779174805,0.593550261910134,74.0,745.0,0.0
Y,R,"[6, 10]",1.0,6.0,0.2199840545654297,1.8727478981018066,0.5662174132764604,74.0,746.0,0.0
R,U,"[5, 10]",1.0,7.0,0.24071288108825684,2.0554580688476562,0.7048302513449979,74.0,747.0,0.0
R,U,"[4, 10]",1.0,8.0,0.2345280647277832,1.7666499614715576,0.43842352798636713,74.0,748.0,0.0
B,L,"[4, 9]",1.0,9.0,0.22305798530578613,1.6940100193023682,0.36576986656302196,74.0,749.0,0.0
R,U,"[3, 9]",1.0,10.0,0.20274782180786133,1.765834093093872,0.4646962337968963,74.0,750.0,0.0
,,"(6, 6)",,,,,,,,
R,U,"[5, 6]",1.0,1.0,0.3788421154022217,2.129348039627075,0.3773622905872105,75.0,751.0,0.0
Y,R,"[5, 7]",1.0,2.0,0.24041986465454102,1.725013017654419,0.3856565866595328,75.0,752.0,0.0
Y,R,"[5, 8]",1.0,3.0,0.24918794631958008,1.7153890132904053,0.3677180441854597,75.0,753.0,0.0
G,D,"[6, 8]",1.0,4.0,0.2506289482116699,2.089427947998047,0.7400272585240063,75.0,754.0,0.0
Y,R,"[6, 9]",-2.0,4.0,1.158012866973877,2.8406460285186768,0.6472572705075075,75.0,755.0,0.0
Y,R,"[6, 10]",1.0,5.0,0.31290602684020996,1.8289129734039307,0.4097054761968845,75.0,756.0,0.0
R,U,"[5, 10]",1.0,6.0,0.24723315238952637,1.8724050521850586,0.5321028121966298,75.0,757.0,0.0
R,U,"[4, 10]",1.0,7.0,0.27294301986694336,1.9905729293823242,0.6224582455787324,75.0,758.0,0.0
B,L,"[4, 9]",1.0,8.0,0.16665196418762207,1.960207223892212,0.6992535932216695,75.0,759.0,0.0
R,U,"[3, 9]",-1.0,8.0,0.03636598587036133,5.663783073425293,0.496223704293967,75.0,760.0,0.0
,,"(6, 6)",,,,,,,,
R,U,"[5, 6]",1.0,1.0,0.7105159759521484,17.83646321296692,0.38223867063707967,76.0,761.0,0.0
Y,R,"[5, 7]",1.0,2.0,0.3323078155517578,2.038264036178589,0.6036253571738273,76.0,762.0,0.0
Y,R,"[5, 8]",1.0,3.0,0.21065497398376465,1.7407331466674805,0.4279154989976276,76.0,763.0,0.0
G,D,"[6, 8]",1.0,4.0,0.25963497161865234,1.8076999187469482,0.452174851957564,76.0,764.0,0.0
R,U,"[5, 8]",0.0,4.0,0.1529228687286377,1.5729949474334717,0.3250865368892858,76.0,765.0,0.0
Y,R,"[5, 9]",0.0,4.0,0.30947399139404297,2.1338279247283936,0.7251734498551488,76.0,766.0,0.0
R,U,"[4, 9]",1.0,5.0,0.22079181671142578,1.9298629760742188,0.6218511766712163,76.0,767.0,0.0
R,U,"[3, 9]",1.0,6.0,0.21751785278320312,1.7602119445800781,0.44902185112934934,76.0,768.0,0.0
B,L,"[3, 8]",0.0,6.0,0.23076200485229492,1.6464619636535645,0.31194041750897294,76.0,769.0,0.0
R,U,"[2, 8]",0.0,6.0,0.36743903160095215,2.0745599269866943,0.6195783424576966,76.0,770.0,0.0
,,"(6, 6)",,,,,,,,
R,U,"[5, 6]",1.0,1.0,0.5969870090484619,6.533087968826294,0.6190563956962453,77.0,771.0,0.0
Y,R,"[5, 7]",1.0,2.0,0.22176599502563477,1.739297866821289,0.39183640348135756,77.0,772.0,0.0
Y,R,"[5, 8]",1.0,3.0,0.2434980869293213,1.8122529983520508,0.47062794682543885,77.0,773.0,0.0
G,D,"[6, 8]",1.0,4.0,0.21134209632873535,1.7313261032104492,0.4187473269624951,77.0,774.0,0.0
Y,R,"[6, 9]",1.0,5.0,0.21736979484558105,2.0542449951171875,0.7392700953387843,77.0,775.0,0.0
Y,R,"[6, 10]",1.0,6.0,0.20045685768127441,2.0282649993896484,0.7341154229535441,77.0,776.0,0.0
R,U,"[5, 10]",1.0,7.0,0.5329389572143555,2.007343053817749,0.37501438714900076,77.0,777.0,0.0
R,U,"[4, 10]",1.0,8.0,0.22407197952270508,1.7518692016601562,0.42671834150363536,77.0,778.0,0.0
B,L,"[4, 9]",1.0,9.0,0.23201918601989746,1.608119010925293,0.2849596119697267,77.0,779.0,0.0
R,U,"[3, 9]",1.0,10.0,0.385451078414917,1.8405921459197998,0.35885290120308555,77.0,780.0,0.0
,,"(6, 6)",,,,,,,,
R,U,"[5, 6]",-2.0,0.0,1.4898500442504883,43.489142179489136,0.2632706380577722,78.0,781.0,0.0
Y,R,"[5, 7]",1.0,1.0,0.5252609252929688,2.1820130348205566,0.5449016678162697,78.0,782.0,0.0
Y,R,"[5, 8]",1.0,2.0,0.25760912895202637,1.9490630626678467,0.5937928178909406,78.0,783.0,0.0
G,D,"[6, 8]",1.0,3.0,0.24656391143798828,1.7724602222442627,0.43317424861415377,78.0,784.0,0.0
Y,R,"[6, 9]",1.0,4.0,0.7210299968719482,2.155626058578491,0.3222062333896999,78.0,785.0,0.0
Y,R,"[6, 10]",1.0,5.0,0.24603009223937988,2.039051055908203,0.694097762025208,78.0,786.0,0.0
R,U,"[5, 10]",1.0,6.0,0.2047419548034668,1.582306146621704,0.293441463198219,78.0,787.0,0.0
R,U,"[4, 10]",1.0,7.0,0.3113858699798584,1.7235889434814453,0.3169933428350424,78.0,788.0,0.0
G,D,"[5, 10]",-2.0,7.0,1.0360848903656006,2.755009889602661,0.6881041135234898,78.0,789.0,0.0
R,U,"[4, 10]",0.0,7.0,0.2073078155517578,1.6777119636535645,0.36609070654892456,78.0,790.0,0.0
,,"(6, 6)",,,,,,,,
R,U,"[5, 6]",1.0,1.0,0.7922649383544922,2.5260839462280273,0.30877478977037237,79.0,791.0,0.0
Y,R,"[5, 7]",1.0,2.0,0.3838529586791992,1.9953842163085938,0.520728900664033,79.0,792.0,0.0
Y,R,"[5, 8]",-1.0,2.0,0.01671910285949707,5.743432998657227,0.5971093445630682,79.0,793.0,0.0
G,D,"[6, 8]",1.0,3.0,0.2509188652038574,1.6359198093414307,0.2832594090903026,79.0,794.0,0.0
Y,R,"[6, 9]",1.0,4.0,0.26749205589294434,2.0734589099884033,0.706395729515587,79.0,795.0,0.0
Y,R,"[6, 10]",1.0,5.0,0.2327878475189209,1.7088749408721924,0.38218442169022265,79.0,796.0,0.0
R,U,"[5, 10]",1.0,6.0,0.23097681999206543,1.7358779907226562,0.4012276138291243,79.0,797.0,0.0
R,U,"[4, 10]",1.0,7.0,0.2707688808441162,1.893517017364502,0.5278643060375505,79.0,798.0,0.0
B,L,"[4, 9]",1.0,8.0,0.21231985092163086,1.8547041416168213,0.5492515889600758,79.0,799.0,0.0
R,U,"[3, 9]",1.0,9.0,0.22787189483642578,1.6652450561523438,0.3314083874230894,79.0,800.0,0.0
,,"(6, 6)",,,,,,,,
R,U,"[5, 6]",1.0,1.0,0.2309110164642334,2.252664089202881,0.6336116569535769,80.0,801.0,0.0
Y,R,"[5, 7]",1.0,2.0,0.15010595321655273,1.6604080200195312,0.41077480395066507,80.0,802.0,0.0
Y,R,"[5, 8]",1.0,3.0,0.23199105262756348,1.7680118083953857,0.4453897761018591,80.0,803.0,0.0
G,D,"[6, 8]",1.0,4.0,0.16928696632385254,1.8180270195007324,0.5633169559503948,80.0,804.0,0.0
Y,R,"[6, 9]",1.0,5.0,0.19076204299926758,2.0496251583099365,0.7460550266452228,80.0,805.0,0.0
Y,R,"[6, 10]",1.0,6.0,0.12671518325805664,1.5525150299072266,0.31561365640203265,80.0,806.0,0.0
R,U,"[5, 10]",1.0,7.0,0.4807779788970947,1.8728439807891846,0.28831052365330595,80.0,807.0,0.0
R,U,"[4, 10]",1.0,8.0,0.24153900146484375,1.6991779804229736,0.3540682027484702,80.0,808.0,0.0
B,L,"[4, 9]",1.0,9.0,0.2966740131378174,2.075721025466919,0.6793388453765017,80.0,809.0,0.0
R,U,"[3, 9]",1.0,10.0,0.25393080711364746,1.8785459995269775,0.5239982307989366,80.0,810.0,0.0
,,"(6, 6)",,,,,,,,
R,U,"[5, 6]",1.0,1.0,0.2763710021972656,2.2713849544525146,0.4961425710519151,81.0,811.0,0.0
Y,R,"[5, 7]",1.0,2.0,0.20264506340026855,2.03059720993042,0.7263665035996693,81.0,812.0,0.0
Y,R,"[5, 8]",1.0,3.0,0.3348870277404785,1.9341731071472168,0.510788460468818,81.0,813.0,0.0
G,D,"[6, 8]",1.0,4.0,0.2106320858001709,1.8014459609985352,0.49543850261276257,81.0,814.0,0.0
Y,R,"[6, 9]",1.0,5.0,0.5197679996490479,1.8660979270935059,0.2616986574212867,81.0,815.0,0.0
Y,R,"[6, 10]",1.0,6.0,0.29785609245300293,2.041569948196411,0.6529023405068026,81.0,816.0,0.0
R,U,"[5, 10]",1.0,7.0,0.28096985816955566,1.7900168895721436,0.4097641296549432,81.0,817.0,0.0
R,U,"[4, 10]",1.0,8.0,0.1365978717803955,1.961331844329834,0.7373455334737438,81.0,818.0,0.0
B,L,"[4, 9]",1.0,9.0,0.31769394874572754,2.011530876159668,0.5989217861780858,81.0,819.0,0.0
R,U,"[3, 9]",1.0,10.0,0.24913811683654785,1.6952719688415527,0.3443679751298891,81.0,820.0,0.0
,,"(6, 6)",,,,,,,,
R,U,"[5, 6]",1.0,1.0,0.37793803215026855,4.646692991256714,0.44081670323202016,82.0,821.0,0.0
Y,R,"[5, 7]",1.0,2.0,0.712745189666748,2.3305580615997314,0.5212340253155108,82.0,822.0,0.0
Y,R,"[5, 8]",1.0,3.0,0.337554931640625,1.824444055557251,0.3957392654883197,82.0,823.0,0.0
G,D,"[6, 8]",1.0,4.0,0.2567179203033447,1.781846046447754,0.427506792402908,82.0,824.0,0.0
Y,R,"[6, 9]",1.0,5.0,0.45604491233825684,1.8908169269561768,0.3350070032545562,82.0,825.0,0.0
Y,R,"[6, 10]",1.0,6.0,0.39829492568969727,1.9373650550842285,0.4389993144873506,82.0,826.0,0.0
R,U,"[5, 10]",1.0,7.0,0.27280402183532715,1.803467035293579,0.4256080784770105,82.0,827.0,0.0
R,U,"[4, 10]",1.0,8.0,0.23691511154174805,1.9676129817962646,0.6430682771547275,82.0,828.0,0.0
B,L,"[4, 9]",1.0,9.0,0.17020297050476074,1.9740970134735107,0.7170011860799377,82.0,829.0,0.0
R,U,"[3, 9]",1.0,10.0,0.22583293914794922,1.69508695602417,0.3623276873746296,82.0,830.0,0.0
,,"(6, 6)",,,,,,,,
R,U,"[5, 6]",1.0,1.0,0.3527040481567383,2.6685619354248047,0.6310000743466279,83.0,831.0,0.0
Y,R,"[5, 7]",1.0,2.0,0.21496200561523438,1.7670998573303223,0.4478720198522208,83.0,832.0,0.0
Y,R,"[5, 8]",1.0,3.0,0.2343451976776123,1.8612029552459717,0.5254848350192268,83.0,833.0,0.0
G,D,"[6, 8]",1.0,4.0,0.21534013748168945,2.0085930824279785,0.7005345149552948,83.0,834.0,0.0
Y,R,"[6, 9]",1.0,5.0,0.26659703254699707,1.801070213317871,0.4352319451109273,83.0,835.0,0.0
Y,R,"[6, 10]",1.0,6.0,0.23565196990966797,1.637727975845337,0.30638137108841723,83.0,836.0,0.0
R,U,"[5, 10]",1.0,7.0,0.31013989448547363,2.093053102493286,0.6823486067385675,83.0,837.0,0.0
R,U,"[4, 10]",1.0,8.0,0.2742190361022949,1.9005069732666016,0.5161524014050335,83.0,838.0,0.0
B,L,"[4, 9]",1.0,9.0,0.21113300323486328,1.6197810173034668,0.3028369806351399,83.0,839.0,0.0
R,U,"[3, 9]",1.0,10.0,0.22661209106445312,1.8210649490356445,0.49036636819130314,83.0,840.0,0.0
,,"(6, 6)",,,,,,,,
R,U,"[5, 6]",1.0,1.0,0.25579190254211426,2.1089370250701904,0.449179207307948,84.0,841.0,0.0
Y,R,"[5, 7]",1.0,2.0,0.18208909034729004,1.60493803024292,0.32086498796664237,84.0,842.0,0.0
Y,R,"[5, 8]",1.0,3.0,0.20684313774108887,2.02462100982666,0.7117837728175527,84.0,843.0,0.0
G,D,"[6, 8]",1.0,4.0,0.23944401741027832,1.8574678897857666,0.5192844684976982,84.0,844.0,0.0
Y,R,"[6, 9]",1.0,5.0,0.22669291496276855,1.7216029167175293,0.3909710161904597,84.0,845.0,0.0
Y,R,"[6, 10]",1.0,6.0,0.2053060531616211,1.7343180179595947,0.42521481425238317,84.0,846.0,0.0
R,U,"[5, 10]",1.0,7.0,0.21111607551574707,1.7536489963531494,0.46207803864412805,84.0,847.0,0.0
R,U,"[4, 10]",1.0,8.0,0.22563600540161133,1.9718248844146729,0.6504846085400771,84.0,848.0,0.0
B,L,"[4, 9]",1.0,9.0,0.2992410659790039,1.809568166732788,0.4101082794339096,84.0,849.0,0.0
R,U,"[3, 9]",1.0,10.0,0.19513487815856934,1.6910500526428223,0.4011013748290308,84.0,850.0,0.0
,,"(6, 6)",,,,,,,,
R,U,"[5, 6]",1.0,1.0,0.15312600135803223,2.3609869480133057,0.36210497191019714,85.0,851.0,0.0
Y,R,"[5, 7]",1.0,2.0,0.2852940559387207,1.8169300556182861,0.4454910247101124,85.0,852.0,0.0
Y,R,"[5, 8]",1.0,3.0,0.23448991775512695,1.7128431797027588,0.3918296586799133,85.0,853.0,0.0
G,D,"[6, 8]",1.0,4.0,0.12696290016174316,1.672579050064087,0.4473584461406085,85.0,854.0,0.0
R,U,"[5, 8]",0.0,4.0,0.4973599910736084,2.0659079551696777,0.46340305955411887,85.0,855.0,0.0
Y,R,"[5, 9]",0.0,4.0,0.21358013153076172,1.817944049835205,0.49788839554164127,85.0,856.0,0.0
R,U,"[4, 9]",1.0,5.0,0.29303598403930664,1.822314977645874,0.42021868641134086,85.0,857.0,0.0
R,U,"[3, 9]",1.0,6.0,0.31387996673583984,1.9726171493530273,0.5592571901526937,85.0,858.0,0.0
B,L,"[3, 8]",0.0,6.0,0.1936650276184082,1.560063123703003,0.2696527938884666,85.0,859.0,0.0
R,U,"[2, 8]",0.0,6.0,0.22588896751403809,1.7236371040344238,0.39309238649218614,85.0,860.0,0.0
,,"(6, 6)",,,,,,,,
R,U,"[5, 6]",1.0,1.0,0.24122095108032227,2.119723081588745,0.6457805039149633,86.0,861.0,0.0
Y,R,"[5, 7]",1.0,2.0,0.1420140266418457,1.7765729427337646,0.5225000985494629,86.0,862.0,0.0
Y,R,"[5, 8]",1.0,3.0,0.23915410041809082,1.8452751636505127,0.5010975451309101,86.0,863.0,0.0
G,D,"[6, 8]",1.0,4.0,0.22803092002868652,1.6841089725494385,0.3518428809680156,86.0,864.0,0.0
Y,R,"[6, 9]",1.0,5.0,0.28519392013549805,1.984818935394287,0.6030269142096212,86.0,865.0,0.0
Y,R,"[6, 10]",1.0,6.0,0.24858808517456055,1.8179190158843994,0.4714273478379968,86.0,866.0,0.0
R,U,"[5, 10]",1.0,7.0,0.15845680236816406,1.6497859954833984,0.3874198022738702,86.0,867.0,0.0
R,U,"[4, 10]",1.0,8.0,0.20835304260253906,1.7157649993896484,0.40320001133354944,86.0,868.0,0.0
B,L,"[4, 9]",1.0,9.0,0.1838841438293457,1.9974150657653809,0.7170473879946335,86.0,869.0,0.0
R,U,"[3, 9]",1.0,10.0,0.21002602577209473,2.0076329708099365,0.6912134511852017,86.0,870.0,0.0
,,"(6, 6)",,,,,,,,
R,U,"[5, 6]",1.0,1.0,0.22198700904846191,1.991994857788086,0.38343668632109185,87.0,871.0,0.0
Y,R,"[5, 7]",1.0,2.0,0.22990798950195312,2.051393985748291,0.7178562726575113,87.0,872.0,0.0
Y,R,"[5, 8]",1.0,3.0,0.14904403686523438,1.7019901275634766,0.45358170144198295,87.0,873.0,0.0
B,L,"[5, 7]",0.0,3.0,0.7834908962249756,2.402144193649292,0.5219506984087112,87.0,874.0,0.0
Y,R,"[5, 8]",0.0,3.0,0.22774600982666016,1.7833530902862549,0.4553063984360756,87.0,875.0,0.0
Y,R,"[5, 9]",0.0,3.0,0.18601393699645996,1.6934189796447754,0.4156631698217679,87.0,876.0,0.0
R,U,"[4, 9]",1.0,4.0,0.169327974319458,1.9135169982910156,0.6453484798608964,87.0,877.0,0.0
R,U,"[3, 9]",1.0,5.0,0.21143317222595215,1.8032121658325195,0.49866760324941145,87.0,878.0,0.0
G,D,"[4, 9]",0.0,5.0,0.3236808776855469,1.7341749668121338,0.29963111035593026,87.0,879.0,0.0
Y,R,"[4, 10]",1.0,6.0,0.21323919296264648,2.062114953994751,0.7448871705914548,87.0,880.0,0.0
,,"(6, 6)",,,,,,,,
R,U,"[5, 6]",1.0,1.0,0.23119497299194336,2.0197269916534424,0.38124728241269507,88.0,881.0,0.0
Y,R,"[5, 7]",1.0,2.0,0.20493102073669434,1.6631619930267334,0.36104015668969874,88.0,882.0,0.0
Y,R,"[5, 8]",1.0,3.0,0.19901204109191895,2.0368118286132812,0.7473798657598614,88.0,883.0,0.0
B,L,"[5, 7]",0.0,3.0,0.15726518630981445,2.0024490356445312,0.7331237399103746,88.0,884.0,0.0
G,D,"[6, 7]",0.0,3.0,0.1478569507598877,1.5587270259857178,0.308944830425988,88.0,885.0,0.0
R,U,"[5, 7]",-1.0,3.0,0.010828971862792969,5.676655054092407,0.5518097878850563,88.0,886.0,0.0
R,U,"[4, 7]",-1.0,3.0,0.0007429122924804688,5.415990829467773,0.2845262955207013,88.0,887.0,0.0
R,U,"[3, 7]",0.0,3.0,0.11293816566467285,1.7403409481048584,0.5246044298465637,88.0,888.0,0.0
R,U,"[2, 7]",0.0,3.0,0.24333906173706055,1.6839358806610107,0.3419596303864669,88.0,889.0,0.0
R,U,"[1, 7]",0.0,3.0,0.17695999145507812,1.818331003189087,0.5437533511692253,88.0,890.0,0.0
,,"(6, 6)",,,,,,,,
R,U,"[5, 6]",1.0,1.0,0.18952012062072754,3.177399158477783,0.437376139192989,89.0,891.0,0.0
Y,R,"[5, 7]",1.0,2.0,0.28240299224853516,1.9688599109649658,0.5895481318385694,89.0,892.0,0.0
Y,R,"[5, 8]",1.0,3.0,0.21527409553527832,1.6152150630950928,0.3048993214599979,89.0,893.0,0.0
G,D,"[6, 8]",1.0,4.0,0.26075196266174316,1.6692259311676025,0.3074881241925078,89.0,894.0,0.0
Y,R,"[6, 9]",1.0,5.0,0.26872801780700684,1.9282798767089844,0.5688183199482695,89.0,895.0,0.0
Y,R,"[6, 10]",1.0,6.0,0.1524050235748291,1.682783842086792,0.4349358255083673,89.0,896.0,0.0
R,U,"[5, 10]",1.0,7.0,0.18706083297729492,1.9416799545288086,0.6596440068006499,89.0,897.0,0.0
R,U,"[4, 10]",1.0,8.0,0.21782708168029785,1.8313732147216797,0.5244532851923853,89.0,898.0,0.0
B,L,"[4, 9]",1.0,9.0,0.16570401191711426,1.89491605758667,0.635846257754481,89.0,899.0,0.0
R,U,"[3, 9]",1.0,10.0,0.2492079734802246,1.9687211513519287,0.621158084197607,89.0,900.0,0.0
,,"(6, 6)",,,,,,,,
R,U,"[5, 6]",1.0,1.0,0.21720004081726074,1.8983469009399414,0.2864054015591943,90.0,901.0,0.0
Y,R,"[5, 7]",1.0,2.0,0.20730900764465332,1.6651971340179443,0.3517108628060704,90.0,902.0,0.0
Y,R,"[5, 8]",-1.0,2.0,0.005120038986206055,5.4163830280303955,0.28451171634448197,90.0,903.0,0.0
G,D,"[6, 8]",1.0,3.0,0.34826183319091797,1.8493869304656982,0.4003695828671845,90.0,904.0,0.0
Y,R,"[6, 9]",1.0,4.0,0.5510458946228027,2.2408218383789062,0.5910204134588484,90.0,905.0,0.0
Y,R,"[6, 10]",1.0,5.0,0.25000691413879395,1.8978700637817383,0.5554746857982347,90.0,906.0,0.0
R,U,"[5, 10]",1.0,6.0,0.34462904930114746,1.9543309211730957,0.5098352417218168,90.0,907.0,0.0
R,U,"[4, 10]",1.0,7.0,0.29768800735473633,1.933427095413208,0.5432383125721709,90.0,908.0,0.0
B,L,"[4, 9]",1.0,8.0,0.34749698638916016,1.8388659954071045,0.398959004070258,90.0,909.0,0.0
R,U,"[3, 9]",1.0,9.0,0.24835705757141113,1.8198039531707764,0.4685544293535415,90.0,910.0,0.0
,,"(6, 6)",,,,,,,,
R,U,"[5, 6]",1.0,1.0,0.508922815322876,2.3943581581115723,0.3796029673194862,91.0,911.0,0.0
Y,R,"[5, 7]",1.0,2.0,0.2424921989440918,2.0598130226135254,0.70558959888682,91.0,912.0,0.0
Y,R,"[5, 8]",1.0,3.0,0.21152901649475098,1.7251930236816406,0.41434086453430075,91.0,913.0,0.0
G,D,"[6, 8]",1.0,4.0,0.2710840702056885,1.6256530284881592,0.256822557175445,91.0,914.0,0.0
Y,R,"[6, 9]",1.0,5.0,0.6285519599914551,2.3865790367126465,0.6595526269425737,91.0,915.0,0.0
Y,R,"[6, 10]",1.0,6.0,0.42705202102661133,2.202049970626831,0.6782776474694673,91.0,916.0,0.0
R,U,"[5, 10]",1.0,7.0,0.2090470790863037,1.6469581127166748,0.3420479374270679,91.0,917.0,0.0
R,U,"[4, 10]",1.0,8.0,0.37523889541625977,1.9441909790039062,0.46941202629379447,91.0,918.0,0.0
B,L,"[4, 9]",1.0,9.0,0.21297097206115723,1.9337470531463623,0.6196358917447166,91.0,919.0,0.0
R,U,"[3, 9]",1.0,10.0,0.23184990882873535,1.849717140197754,0.5194403380605479,91.0,920.0,0.0
,,"(6, 6)",,,,,,,,
R,U,"[5, 6]",1.0,1.0,0.2548210620880127,2.2082901000976562,0.3944094856641421,92.0,921.0,0.0
Y,R,"[5, 7]",1.0,2.0,0.41355299949645996,2.1211822032928467,0.6153910706321435,92.0,922.0,0.0
Y,R,"[5, 8]",1.0,3.0,0.20232796669006348,1.9907379150390625,0.6893545729173446,92.0,923.0,0.0
G,D,"[6, 8]",1.0,4.0,0.10496711730957031,1.5488629341125488,0.35505243447439677,92.0,924.0,0.0
Y,R,"[6, 9]",1.0,5.0,0.28205204010009766,1.9245269298553467,0.5459933859524972,92.0,925.0,0.0
Y,R,"[6, 10]",1.0,6.0,0.18548798561096191,1.8326961994171143,0.5453719027574377,92.0,926.0,0.0
R,U,"[5, 10]",1.0,7.0,0.2428750991821289,1.9112200736999512,0.5731023969741951,92.0,927.0,0.0
R,U,"[4, 10]",1.0,8.0,0.29607200622558594,1.7944769859313965,0.40104752755030787,92.0,928.0,0.0
B,L,"[4, 9]",1.0,9.0,0.20602703094482422,1.8347759246826172,0.5190581872022758,92.0,929.0,0.0
R,U,"[3, 9]",1.0,10.0,0.2496950626373291,1.6950180530548096,0.347428791156772,92.0,930.0,0.0
,,"(6, 6)",,,,,,,,
R,U,"[5, 6]",1.0,1.0,0.18623900413513184,1.9078948497772217,0.30539352877924414,93.0,931.0,0.0
Y,R,"[5, 7]",1.0,2.0,0.208021879196167,1.5630860328674316,0.25175202960756116,93.0,932.0,0.0
Y,R,"[5, 8]",1.0,3.0,0.22391986846923828,2.069324016571045,0.7372012335420715,93.0,933.0,0.0
G,D,"[6, 8]",1.0,4.0,0.12201213836669922,1.840623140335083,0.611327096089616,93.0,934.0,0.0
Y,R,"[6, 9]",1.0,5.0,0.21086597442626953,1.86484694480896,0.5594323437691993,93.0,935.0,0.0
Y,R,"[6, 10]",1.0,6.0,0.1704561710357666,1.5858540534973145,0.32875772286710986,93.0,936.0,0.0
R,U,"[5, 10]",1.0,7.0,0.2538280487060547,1.9901440143585205,0.6518960479424509,93.0,937.0,0.0
R,U,"[4, 10]",1.0,8.0,0.19394302368164062,1.9171459674835205,0.6190061706028692,93.0,938.0,0.0
B,L,"[4, 9]",1.0,9.0,0.18409395217895508,1.9245669841766357,0.6435799918590357,93.0,939.0,0.0
R,U,"[3, 9]",1.0,10.0,0.1895608901977539,1.9918699264526367,0.702007970546424,93.0,940.0,0.0
,,"(6, 6)",,,,,,,,
R,U,"[5, 6]",1.0,1.0,0.19241714477539062,2.1718318462371826,0.54056748743229,94.0,941.0,0.0
Y,R,"[5, 7]",1.0,2.0,0.14076685905456543,1.5038378238677979,0.2611877731664537,94.0,942.0,0.0
Y,R,"[5, 8]",1.0,3.0,0.2596769332885742,1.9571449756622314,0.6012534431357781,94.0,943.0,0.0
G,D,"[6, 8]",1.0,4.0,0.25901293754577637,1.6692321300506592,0.30408363216934065,94.0,944.0,0.0
Y,R,"[6, 9]",1.0,5.0,0.2369840145111084,1.6847469806671143,0.35542856583756827,94.0,945.0,0.0
Y,R,"[6, 10]",1.0,6.0,0.24289703369140625,1.929783821105957,0.5849302839674397,94.0,946.0,0.0
R,U,"[5, 10]",1.0,7.0,0.23665809631347656,2.036447048187256,0.7046238421896764,94.0,947.0,0.0
R,U,"[4, 10]",1.0,8.0,0.23672103881835938,1.7963659763336182,0.4677979736084048,94.0,948.0,0.0
B,L,"[4, 9]",1.0,9.0,0.17615199089050293,1.7139830589294434,0.43170702663951366,94.0,949.0,0.0
R,U,"[3, 9]",1.0,10.0,0.21544599533081055,2.010179042816162,0.6916337249739273,94.0,950.0,0.0
,,"(6, 6)",,,,,,,,
R,U,"[5, 6]",1.0,1.0,0.22884011268615723,3.5629231929779053,0.321384627455483,95.0,951.0,0.0
Y,R,"[5, 7]",1.0,2.0,0.2679431438446045,1.6202919483184814,0.2583925360337089,95.0,952.0,0.0
Y,R,"[5, 8]",1.0,3.0,0.27428507804870605,1.7133049964904785,0.33830393989054613,95.0,953.0,0.0
G,D,"[6, 8]",1.0,4.0,0.23973798751831055,1.6826250553131104,0.3375479078855549,95.0,954.0,0.0
Y,R,"[6, 9]",1.0,5.0,0.2657349109649658,2.081744909286499,0.7188810101816765,95.0,955.0,0.0
Y,R,"[6, 10]",1.0,6.0,0.3841359615325928,2.175795793533325,0.694506124016244,95.0,956.0,0.0
R,U,"[5, 10]",1.0,7.0,0.24789881706237793,2.04030704498291,0.7015664988588883,95.0,957.0,0.0
R,U,"[4, 10]",1.0,8.0,0.24686598777770996,1.770632028579712,0.42230116744097196,95.0,958.0,0.0
B,L,"[4, 9]",1.0,9.0,0.31830883026123047,2.0754780769348145,0.6642069567583022,95.0,959.0,0.0
R,U,"[3, 9]",1.0,10.0,0.23402905464172363,1.6220929622650146,0.2866608131458494,95.0,960.0,0.0
,,"(6, 6)",,,,,,,,
R,U,"[5, 6]",1.0,1.0,0.2538928985595703,2.117392063140869,0.5037699857258404,96.0,961.0,0.0
Y,R,"[5, 7]",1.0,2.0,0.21008801460266113,1.9536488056182861,0.6404925797882655,96.0,962.0,0.0
Y,R,"[5, 8]",1.0,3.0,0.15848994255065918,1.8855369091033936,0.6259203763199765,96.0,963.0,0.0
G,D,"[6, 8]",1.0,4.0,0.24632787704467773,1.7518398761749268,0.41137958006120723,96.0,964.0,0.0
Y,R,"[6, 9]",1.0,5.0,0.27517104148864746,2.1043739318847656,0.7320472571729035,96.0,965.0,0.0
Y,R,"[6, 10]",1.0,6.0,0.15253591537475586,1.714582920074463,0.46335796011146874,96.0,966.0,0.0
R,U,"[5, 10]",1.0,7.0,0.23967409133911133,2.100078821182251,0.7466062789525654,96.0,967.0,0.0
R,U,"[4, 10]",1.0,8.0,0.3235440254211426,1.7693150043487549,0.3328274072362632,96.0,968.0,0.0
B,L,"[4, 9]",1.0,9.0,0.21794795989990234,1.7506659030914307,0.43338523038147747,96.0,969.0,0.0
R,U,"[3, 9]",1.0,10.0,0.1949481964111328,1.8676540851593018,0.5674353415710574,96.0,970.0,0.0
,,"(6, 6)",,,,,,,,
R,U,"[5, 6]",1.0,1.0,0.1309819221496582,2.005697011947632,0.4564752798068421,97.0,971.0,0.0
Y,R,"[5, 7]",1.0,2.0,0.2910878658294678,1.705230951309204,0.31186372512391775,97.0,972.0,0.0
Y,R,"[5, 8]",1.0,3.0,0.25315189361572266,1.9000499248504639,0.5616098390352123,97.0,973.0,0.0
G,D,"[6, 8]",1.0,4.0,0.2234489917755127,1.7409319877624512,0.4193006600027287,97.0,974.0,0.0
Y,R,"[6, 9]",1.0,5.0,0.2824540138244629,1.6440961360931396,0.2634630133117217,97.0,975.0,0.0
Y,R,"[6, 10]",1.0,6.0,0.36318111419677734,1.9222371578216553,0.4521476538621385,97.0,976.0,0.0
R,U,"[5, 10]",1.0,7.0,0.22441601753234863,1.914283037185669,0.5829308537681999,97.0,977.0,0.0
R,U,"[4, 10]",1.0,8.0,0.2177262306213379,2.065561056137085,0.7482321017049487,97.0,978.0,0.0
B,L,"[4, 9]",1.0,9.0,0.1860339641571045,1.927865982055664,0.6427960730857314,97.0,979.0,0.0
R,U,"[3, 9]",1.0,10.0,0.20157313346862793,1.561985969543457,0.2718750242356469,97.0,980.0,0.0
,,"(6, 6)",,,,,,,,
R,U,"[5, 6]",1.0,1.0,0.5035829544067383,2.7213189601898193,0.3429542444401539,98.0,981.0,0.0
Y,R,"[5, 7]",1.0,2.0,0.32088303565979004,1.9038910865783691,0.4966421297735198,98.0,982.0,0.0
Y,R,"[5, 8]",1.0,3.0,0.23117613792419434,2.067203998565674,0.730131519762427,98.0,983.0,0.0
G,D,"[6, 8]",1.0,4.0,0.21944212913513184,1.8032569885253906,0.4837341361859689,98.0,984.0,0.0
Y,R,"[6, 9]",1.0,5.0,0.500403881072998,2.082554817199707,0.4829167019971738,98.0,985.0,0.0
Y,R,"[6, 10]",1.0,6.0,0.2762019634246826,1.9267480373382568,0.5428676947118587,98.0,986.0,0.0
R,U,"[5, 10]",1.0,7.0,0.21445202827453613,1.7619009017944336,0.45474322129365835,98.0,987.0,0.0
R,U,"[4, 10]",1.0,8.0,0.22608184814453125,2.035857915878296,0.7069323540639929,98.0,988.0,0.0
B,L,"[4, 9]",1.0,9.0,0.19429397583007812,1.8185720443725586,0.5257274455508603,98.0,989.0,0.0
R,U,"[3, 9]",1.0,10.0,0.17769098281860352,1.7829749584197998,0.5086486245907279,98.0,990.0,0.0
,,"(6, 6)",,,,,,,,
R,U,"[5, 6]",1.0,1.0,0.35659003257751465,2.543346881866455,0.5019448839281033,99.0,991.0,0.0
Y,R,"[5, 7]",1.0,2.0,0.29430508613586426,1.9856910705566406,0.5873771319540966,99.0,992.0,0.0
Y,R,"[5, 8]",1.0,3.0,0.13653182983398438,1.9533960819244385,0.7243529958635349,99.0,993.0,0.0
G,D,"[6, 8]",1.0,4.0,0.2869391441345215,2.1226329803466797,0.7464855987401291,99.0,994.0,0.0
Y,R,"[6, 9]",-1.0,4.0,0.05541086196899414,5.7466881275177,0.5431353632714802,99.0,995.0,0.0
Y,R,"[6, 10]",1.0,5.0,0.3470451831817627,2.180094003677368,0.7396776627249282,99.0,996.0,0.0
R,U,"[5, 10]",1.0,6.0,0.3888120651245117,2.213900089263916,0.7202264760309884,99.0,997.0,0.0
R,U,"[4, 10]",1.0,7.0,0.31871700286865234,2.0654749870300293,0.652440180889549,99.0,998.0,0.0
B,L,"[4, 9]",1.0,8.0,0.9384098052978516,2.317830801010132,0.253922225010431,99.0,999.0,0.0
R,U,"[3, 9]",1.0,9.0,0.2493610382080078,1.6386899948120117,0.2925396764682224,99.0,1000.0,0.0
