button_choice,action_choice,coordinate_choice,reward,cumulative_reward,rt,total_trial_time,iti,block_n,trial_n,trial_type
Y,R,"[6, 7]",-2.0,0.0,1.8346960544586182,3.2769060134887695,0.46108859432028754,0.0,1.0,0.0
B,L,"[6, 6]",-2.0,0.0,7.17078709602356,8.439520120620728,0.31731340367558397,0.0,2.0,0.0
B,L,"[6, 5]",0.0,0.0,0.4851820468902588,1.985443115234375,0.5025900534294441,0.0,3.0,0.0
Y,R,"[6, 6]",-2.0,0.0,1.2283267974853516,2.449842929840088,0.25255952368427337,0.0,4.0,0.0
Y,R,"[6, 7]",0.0,0.0,0.42526793479919434,2.0933029651641846,0.6621223198144177,0.0,5.0,0.0
R,U,"[5, 7]",1.0,1.0,0.691472053527832,2.2597579956054688,0.5552374782099145,0.0,6.0,0.0
R,U,"[4, 7]",0.0,1.0,0.8292419910430908,2.3753859996795654,0.5471536408437637,0.0,7.0,0.0
G,D,"[5, 7]",-2.0,1.0,1.715893030166626,3.0530459880828857,0.367042353321991,0.0,8.0,0.0
G,D,"[6, 7]",0.0,1.0,0.32034802436828613,1.5691509246826172,0.2529749302158309,0.0,9.0,0.0
B,L,"[6, 6]",0.0,1.0,0.6612119674682617,2.161702871322632,0.49782903766049047,0.0,10.0,0.0
,,"(6, 6)",,,,,,,,
R,U,"[5, 6]",1.0,1.0,0.5211520195007324,13.306856870651245,0.5376415139134376,1.0,11.0,0.0
Y,R,"[5, 7]",1.0,2.0,0.19735193252563477,1.5382978916168213,0.34275234046880826,1.0,12.0,0.0
B,L,"[5, 6]",0.0,2.0,0.2121119499206543,1.7549519538879395,0.5474337717262391,1.0,13.0,0.0
G,D,"[6, 6]",-1.0,2.0,0.05718994140625,5.485999822616577,0.350247136722951,1.0,14.0,0.0
G,D,"[7, 6]",0.0,2.0,0.3220529556274414,1.7895278930664062,0.4561842634459907,1.0,15.0,0.0
G,D,"[8, 6]",0.0,2.0,0.41765713691711426,1.7350919246673584,0.3247848980496563,1.0,16.0,0.0
G,D,"[9, 6]",0.0,2.0,0.28935813903808594,1.5781397819519043,0.2862390075892407,1.0,17.0,0.0
B,L,"[9, 5]",0.0,2.0,0.19099903106689453,1.8510699272155762,0.6538968577528457,1.0,18.0,0.0
R,U,"[8, 5]",0.0,2.0,0.21799898147583008,1.5656628608703613,0.3528753378726876,1.0,19.0,0.0
Y,R,"[8, 6]",0.0,2.0,0.3072988986968994,1.9867539405822754,0.6725321792374728,1.0,20.0,0.0
,,"(6, 6)",,,,,,,,
Y,R,"[6, 7]",0.0,0.0,0.7631888389587402,8.904251098632812,0.6099789832078448,2.0,21.0,0.0
R,U,"[5, 7]",1.0,1.0,0.1950230598449707,1.5378952026367188,0.3483341920393503,2.0,22.0,0.0
R,U,"[4, 7]",0.0,1.0,0.25391697883605957,1.779844045639038,0.527943921551654,2.0,23.0,0.0
Y,R,"[4, 8]",0.0,1.0,0.24123215675354004,1.985713005065918,0.746633255637602,2.0,24.0,0.0
G,D,"[5, 8]",1.0,2.0,0.16721296310424805,1.6071820259094238,0.4374160354270818,2.0,25.0,0.0
B,L,"[5, 7]",0.0,2.0,0.2692379951477051,1.8705658912658691,0.6077774082792684,2.0,26.0,0.0
R,U,"[4, 7]",0.0,2.0,0.31258392333984375,1.9353089332580566,0.6264108541048097,2.0,27.0,0.0
R,U,"[3, 7]",0.0,2.0,0.4554929733276367,2.0434138774871826,0.6031170651826196,2.0,28.0,0.0
B,L,"[3, 6]",0.0,2.0,0.6391928195953369,1.9622998237609863,0.3156709927954931,2.0,29.0,0.0
R,U,"[2, 6]",0.0,2.0,0.48746800422668457,1.7871959209442139,0.3027401720239283,2.0,30.0,0.0
,,"(6, 6)",,,,,,,,
R,U,"[5, 6]",1.0,1.0,0.363814115524292,7.18988299369812,0.6754071688959155,3.0,31.0,0.0
G,D,"[6, 6]",0.0,1.0,0.3578159809112549,1.934952974319458,0.5772214392773911,3.0,32.0,0.0
G,D,"[7, 6]",0.0,1.0,0.3313908576965332,1.8092899322509766,0.48656101072532476,3.0,33.0,0.0
R,U,"[6, 6]",0.0,1.0,0.25133299827575684,1.88531494140625,0.6383654887918636,3.0,34.0,0.0
Y,R,"[6, 7]",0.0,1.0,0.19134902954101562,1.7227580547332764,0.5278215182909411,3.0,35.0,0.0
G,D,"[7, 7]",0.0,1.0,0.14470410346984863,1.6656229496002197,0.526936622888466,3.0,36.0,0.0
B,L,"[7, 6]",0.0,1.0,0.19803094863891602,1.8391849994659424,0.6490109102274464,3.0,37.0,0.0
R,U,"[6, 6]",0.0,1.0,0.18703579902648926,1.6257879734039307,0.4418298638352426,3.0,38.0,0.0
Y,R,"[6, 7]",0.0,1.0,0.2513408660888672,1.668262004852295,0.42660311131464335,3.0,39.0,0.0
G,D,"[7, 7]",0.0,1.0,0.18262410163879395,1.8192050457000732,0.6456512964117342,3.0,40.0,0.0
,,"(6, 6)",,,,,,,,
Y,R,"[6, 7]",0.0,0.0,0.8221659660339355,4.180699110031128,0.3766059224063321,4.0,41.0,0.0
G,D,"[7, 7]",0.0,0.0,0.25103092193603516,1.5796890258789062,0.3395162577252468,4.0,42.0,0.0
B,L,"[7, 6]",0.0,0.0,0.34826183319091797,1.6858510971069336,0.34197858188189956,4.0,43.0,0.0
R,U,"[6, 6]",0.0,0.0,0.4009411334991455,1.8277029991149902,0.4362956423837176,4.0,44.0,0.0
R,U,"[5, 6]",1.0,1.0,0.23766183853149414,1.5926518440246582,0.3622286732994848,4.0,45.0,0.0
Y,R,"[5, 7]",1.0,2.0,0.3135640621185303,1.6088569164276123,0.2878782700170083,4.0,46.0,0.0
G,D,"[6, 7]",0.0,2.0,0.32161998748779297,1.8045578002929688,0.4755421153898917,4.0,47.0,0.0
Y,R,"[6, 8]",1.0,3.0,0.18552279472351074,1.7221050262451172,0.5475335655074753,4.0,48.0,0.0
B,L,"[6, 7]",0.0,3.0,0.195235013961792,1.891247034072876,0.6889623650335601,4.0,49.0,0.0
Y,R,"[6, 8]",0.0,3.0,0.29385900497436523,1.9479968547821045,0.6532645235381891,4.0,50.0,0.0
,,"(6, 6)",,,,,,,,
R,U,"[5, 6]",1.0,1.0,0.6348199844360352,3.845247983932495,0.41534182301830924,5.0,51.0,0.0
Y,R,"[5, 7]",1.0,2.0,0.17994403839111328,1.5396239757537842,0.35496005832039745,5.0,52.0,0.0
B,L,"[5, 6]",0.0,2.0,0.2194809913635254,1.8529479503631592,0.6408533968817239,5.0,53.0,0.0
G,D,"[6, 6]",0.0,2.0,0.15746402740478516,1.5585918426513672,0.39975642579439435,5.0,54.0,0.0
R,U,"[5, 6]",0.0,2.0,0.23586797714233398,1.5642719268798828,0.33067962198459033,5.0,55.0,0.0
Y,R,"[5, 7]",0.0,2.0,0.37808799743652344,1.889251947402954,0.5031537958563328,5.0,56.0,0.0
B,L,"[5, 6]",0.0,2.0,0.19189000129699707,1.6981070041656494,0.5012114107783581,5.0,57.0,0.0
G,D,"[6, 6]",0.0,2.0,0.17475199699401855,1.5159268379211426,0.3338357056552438,5.0,58.0,0.0
R,U,"[5, 6]",0.0,2.0,0.22315692901611328,1.8059139251708984,0.5729092672192151,5.0,59.0,0.0
Y,R,"[5, 7]",0.0,2.0,0.1542220115661621,1.5466911792755127,0.4031515344492572,5.0,60.0,0.0
,,"(6, 6)",,,,,,,,
R,U,"[5, 6]",1.0,1.0,0.6528799533843994,3.8876888751983643,0.4740033555420947,6.0,61.0,0.0
R,U,"[4, 6]",0.0,1.0,0.20267415046691895,1.7699120044708252,0.5770772809213862,6.0,62.0,0.0
R,U,"[3, 6]",0.0,1.0,0.18894386291503906,1.6055281162261963,0.41598307538936,6.0,63.0,0.0
B,L,"[3, 5]",0.0,1.0,0.5673818588256836,2.1319169998168945,0.5644258571973888,6.0,64.0,0.0
G,D,"[4, 5]",0.0,1.0,0.19597887992858887,1.4774720668792725,0.2754497627499879,6.0,65.0,0.0
B,L,"[4, 4]",0.0,1.0,0.2603640556335449,1.7701029777526855,0.512060908730851,6.0,66.0,0.0
Y,R,"[4, 5]",0.0,1.0,0.16797995567321777,1.6704509258270264,0.4990659937068171,6.0,67.0,0.0
R,U,"[3, 5]",0.0,1.0,0.22834205627441406,1.5621390342712402,0.32809953361532235,6.0,68.0,0.0
Y,R,"[3, 6]",0.0,1.0,0.2803010940551758,1.890801191329956,0.6187774494764414,6.0,69.0,0.0
B,L,"[3, 5]",0.0,1.0,0.28824710845947266,1.5758609771728516,0.2947236502886921,6.0,70.0,0.0
,,"(6, 6)",,,,,,,,
G,D,"[7, 6]",0.0,0.0,0.5073339939117432,3.8514578342437744,0.6290662364038928,7.0,71.0,0.0
Y,R,"[7, 7]",0.0,0.0,0.18384695053100586,1.887742042541504,0.6999940952198292,7.0,72.0,0.0
B,L,"[7, 6]",0.0,0.0,0.13085007667541504,1.8770251274108887,0.7435512144952074,7.0,73.0,0.0
G,D,"[8, 6]",0.0,0.0,0.16383099555969238,1.5154321193695068,0.3594469819608998,7.0,74.0,0.0
R,U,"[7, 6]",0.0,0.0,0.36921215057373047,1.6320099830627441,0.2748139516099599,7.0,75.0,0.0
R,U,"[6, 6]",0.0,0.0,0.38570690155029297,1.8121318817138672,0.436759546875633,7.0,76.0,0.0
R,U,"[5, 6]",1.0,1.0,0.1842658519744873,1.7786290645599365,0.5984985439880781,7.0,77.0,0.0
R,U,"[4, 6]",0.0,1.0,0.18489694595336914,1.7679409980773926,0.5831819232874536,7.0,78.0,0.0
R,U,"[3, 6]",0.0,1.0,0.17810702323913574,1.5270369052886963,0.3436291833753409,7.0,79.0,0.0
R,U,"[2, 6]",0.0,1.0,0.28447604179382324,1.5385768413543701,0.26565782720030795,7.0,80.0,0.0
,,"(6, 6)",,,,,,,,
R,U,"[5, 6]",1.0,1.0,0.5138108730316162,3.6747379302978516,0.5733393100302806,8.0,81.0,0.0
Y,R,"[5, 7]",1.0,2.0,0.18176698684692383,1.700990915298462,0.5244130229296469,8.0,82.0,0.0
R,U,"[4, 7]",0.0,2.0,0.2288351058959961,1.5270318984985352,0.3016280058979263,8.0,83.0,0.0
Y,R,"[4, 8]",0.0,2.0,0.29543018341064453,1.7154440879821777,0.4169728420275209,8.0,84.0,0.0
G,D,"[5, 8]",1.0,3.0,0.21034502983093262,1.6263911724090576,0.40995780509962393,8.0,85.0,0.0
R,U,"[4, 8]",0.0,3.0,0.7797989845275879,2.2969090938568115,0.5234387108991165,8.0,86.0,0.0
Y,R,"[4, 9]",1.0,4.0,0.3200409412384033,1.8242499828338623,0.5142861687522304,8.0,87.0,0.0
R,U,"[3, 9]",1.0,5.0,0.302854061126709,2.026175022125244,0.7235243012191206,8.0,88.0,0.0
Y,R,"[3, 10]",0.0,5.0,0.27594995498657227,1.9502530097961426,0.6737136397442518,8.0,89.0,0.0
R,U,"[2, 10]",-1.0,5.0,0.08908510208129883,5.571518898010254,0.4121321620910762,8.0,90.0,0.0
,,"(6, 6)",,,,,,,,
R,U,"[5, 6]",1.0,1.0,0.35053110122680664,3.6554858684539795,0.6673294656450042,9.0,91.0,0.0
Y,R,"[5, 7]",1.0,2.0,0.18659400939941406,1.8315339088439941,0.6488302843157978,9.0,92.0,0.0
Y,R,"[5, 8]",1.0,3.0,0.1892709732055664,1.795375108718872,0.5945371551633831,9.0,93.0,0.0
G,D,"[6, 8]",1.0,4.0,0.19188189506530762,1.8273282051086426,0.6381703238028167,9.0,94.0,0.0
B,L,"[6, 7]",0.0,4.0,0.1822519302368164,1.5619840621948242,0.38367447727627435,9.0,95.0,0.0
Y,R,"[6, 8]",0.0,4.0,0.30431199073791504,1.9866960048675537,0.6867842234560684,9.0,96.0,0.0
R,U,"[5, 8]",0.0,4.0,0.22993993759155273,1.6113581657409668,0.3817211483696732,9.0,97.0,0.0
R,U,"[4, 8]",0.0,4.0,0.4198880195617676,2.0957889556884766,0.6770443548095535,9.0,98.0,0.0
B,L,"[4, 7]",0.0,4.0,0.2707231044769287,1.7662389278411865,0.5100760307437293,9.0,99.0,0.0
G,D,"[5, 7]",0.0,4.0,0.18888306617736816,1.5010409355163574,0.3114197625974908,9.0,100.0,0.0
,,"(6, 6)",,,,,,,,
R,U,"[5, 6]",1.0,1.0,0.7197721004486084,13.167685985565186,0.5452017184004694,10.0,101.0,0.0
Y,R,"[5, 7]",1.0,2.0,0.2065598964691162,1.8108720779418945,0.6060059978922183,10.0,102.0,0.0
Y,R,"[5, 8]",1.0,3.0,0.21632003784179688,1.728126049041748,0.5175008510469968,10.0,103.0,0.0
R,U,"[4, 8]",0.0,3.0,0.2601661682128906,1.5706830024719238,0.3050701996952145,10.0,104.0,0.0
G,D,"[5, 8]",0.0,3.0,0.4603910446166992,1.8061060905456543,0.34443542119755965,10.0,105.0,0.0
B,L,"[5, 7]",0.0,3.0,0.3333780765533447,1.5878219604492188,0.2656278950631069,10.0,106.0,0.0
R,U,"[4, 7]",0.0,3.0,0.4513511657714844,1.9953229427337646,0.5439737771731868,10.0,107.0,0.0
Y,R,"[4, 8]",0.0,3.0,0.2570619583129883,1.8292481899261475,0.5731617519822807,10.0,108.0,0.0
G,D,"[5, 8]",0.0,3.0,0.20164203643798828,1.771834135055542,0.578289192220027,10.0,109.0,0.0
R,U,"[4, 8]",0.0,3.0,0.10883092880249023,1.4123609066009521,0.3075678408270531,10.0,110.0,0.0
,,"(6, 6)",,,,,,,,
R,U,"[5, 6]",1.0,1.0,0.502892017364502,6.3861658573150635,0.6433358256433445,11.0,111.0,0.0
Y,R,"[5, 7]",1.0,2.0,0.1659231185913086,1.4401590824127197,0.28378640071298267,11.0,112.0,0.0
Y,R,"[5, 8]",1.0,3.0,0.24193882942199707,1.54709792137146,0.2974516677456638,11.0,113.0,0.0
G,D,"[6, 8]",1.0,4.0,0.24695897102355957,1.602905035018921,0.3503504322705787,11.0,114.0,0.0
G,D,"[7, 8]",0.0,4.0,0.8098840713500977,2.174088954925537,0.35760372965982445,11.0,115.0,0.0
G,D,"[8, 8]",0.0,4.0,0.3712320327758789,1.8781499862670898,0.5024267648777077,11.0,116.0,0.0
G,D,"[9, 8]",-1.0,4.0,0.007302999496459961,5.68417501449585,0.6196232905369048,11.0,117.0,0.0
B,L,"[9, 7]",0.0,4.0,0.23055315017700195,1.8271260261535645,0.5967588814091969,11.0,118.0,0.0
G,D,"[10, 7]",0.0,4.0,0.2081921100616455,1.6272461414337158,0.40745793799139657,11.0,119.0,0.0
G,D,"[11, 7]",0.0,4.0,0.2407991886138916,1.9291861057281494,0.6862224367961668,11.0,120.0,0.0
,,"(6, 6)",,,,,,,,
R,U,"[5, 6]",1.0,1.0,0.3981051445007324,3.3215620517730713,0.5246685860297047,12.0,121.0,0.0
Y,R,"[5, 7]",1.0,2.0,0.20843005180358887,1.936161994934082,0.7272500760297977,12.0,122.0,0.0
Y,R,"[5, 8]",1.0,3.0,0.1451270580291748,1.75142502784729,0.6123249200911325,12.0,123.0,0.0
G,D,"[6, 8]",1.0,4.0,0.30067992210388184,1.947998046875,0.6435964866307029,12.0,124.0,0.0
R,U,"[5, 8]",0.0,4.0,0.7490720748901367,2.381289005279541,0.6411908750296439,12.0,125.0,0.0
R,U,"[4, 8]",0.0,4.0,0.40676403045654297,2.102792978286743,0.6940161607781774,12.0,126.0,0.0
R,U,"[3, 8]",0.0,4.0,0.555739164352417,1.7938518524169922,0.2548315896656407,12.0,127.0,0.0
R,U,"[2, 8]",0.0,4.0,0.34641599655151367,1.8218860626220703,0.4765021079762611,12.0,128.0,0.0
R,U,"[1, 8]",0.0,4.0,0.21904802322387695,1.856330156326294,0.6493430699399673,12.0,129.0,0.0
R,U,"[2, 8]",-3.0,4.0,0.21732115745544434,1.6469790935516357,0.4298608268999375,12.0,130.0,0.0
,,"(6, 6)",,,,,,,,
R,U,"[5, 6]",1.0,1.0,0.6917800903320312,11.964498043060303,0.5439913734561086,13.0,131.0,0.0
Y,R,"[5, 7]",1.0,2.0,0.2633678913116455,1.7396559715270996,0.48370127765197063,13.0,132.0,0.0
Y,R,"[5, 8]",1.0,3.0,0.20724105834960938,1.5145950317382812,0.2983626607896605,13.0,133.0,0.0
G,D,"[6, 8]",1.0,4.0,0.46256017684936523,2.1773030757904053,0.7085386626557423,13.0,134.0,0.0
B,L,"[6, 7]",0.0,4.0,0.2158660888671875,1.8675508499145508,0.6594492340312101,13.0,135.0,0.0
B,L,"[6, 6]",0.0,4.0,0.24339604377746582,1.5059928894042969,0.265893110360082,13.0,136.0,0.0
B,L,"[6, 5]",0.0,4.0,0.3795039653778076,1.9677870273590088,0.5833129927200789,13.0,137.0,0.0
B,L,"[6, 4]",0.0,4.0,0.3258669376373291,1.723031997680664,0.38988609294541965,13.0,138.0,0.0
B,L,"[6, 3]",0.0,4.0,0.3511378765106201,1.6413841247558594,0.29789073061119836,13.0,139.0,0.0
B,L,"[6, 2]",0.0,4.0,0.2563629150390625,1.5404291152954102,0.2717445308724875,13.0,140.0,0.0
,,"(6, 6)",,,,,,,,
R,U,"[5, 6]",1.0,1.0,0.5221998691558838,3.5210421085357666,0.42582489417740155,14.0,141.0,0.0
Y,R,"[5, 7]",1.0,2.0,0.26011109352111816,1.6793551445007324,0.4218787441071683,14.0,142.0,0.0
Y,R,"[5, 8]",1.0,3.0,0.3948180675506592,2.0142180919647217,0.6191979518531248,14.0,143.0,0.0
G,D,"[6, 8]",1.0,4.0,0.20925402641296387,1.5277459621429443,0.31385870455937603,14.0,144.0,0.0
G,D,"[7, 8]",0.0,4.0,0.2888200283050537,1.6595649719238281,0.373359763745645,14.0,145.0,0.0
G,D,"[8, 8]",0.0,4.0,0.28776001930236816,1.6294620037078857,0.35282787478503275,14.0,146.0,0.0
G,D,"[9, 8]",0.0,4.0,0.23164796829223633,1.7011280059814453,0.4704008595627079,14.0,147.0,0.0
G,D,"[10, 8]",0.0,4.0,0.21837592124938965,1.6997320652008057,0.48675548970767896,14.0,148.0,0.0
G,D,"[11, 8]",0.0,4.0,0.18877291679382324,1.5851249694824219,0.3886784961059509,14.0,149.0,0.0
G,D,"[10, 8]",-3.0,4.0,0.23806095123291016,1.6161670684814453,0.3881676738141927,14.0,150.0,0.0
,,"(6, 6)",,,,,,,,
R,U,"[5, 6]",1.0,1.0,0.8772449493408203,4.3570098876953125,0.7115589785433997,15.0,151.0,0.0
Y,R,"[5, 7]",1.0,2.0,0.23167705535888672,1.9408378601074219,0.7188685555594609,15.0,152.0,0.0
Y,R,"[5, 8]",1.0,3.0,0.22537589073181152,1.8740198612213135,0.642821238779799,15.0,153.0,0.0
G,D,"[6, 8]",1.0,4.0,0.23781609535217285,1.5118060111999512,0.28832721290801994,15.0,154.0,0.0
Y,R,"[6, 9]",1.0,5.0,0.8909847736358643,2.5686841011047363,0.6733280547288473,15.0,155.0,0.0
Y,R,"[6, 10]",1.0,6.0,0.2082991600036621,1.7941899299621582,0.5842814478225575,15.0,156.0,0.0
Y,R,"[6, 11]",0.0,6.0,0.229295015335083,1.5548510551452637,0.3225819999800059,15.0,157.0,0.0
G,D,"[7, 11]",0.0,6.0,0.5932998657226562,2.305644989013672,0.7112604471907731,15.0,158.0,0.0
R,U,"[6, 11]",0.0,6.0,0.3202359676361084,1.7895729541778564,0.48432140067245133,15.0,159.0,0.0
Y,R,"[7, 11]",-3.0,6.0,0.2391679286956787,1.5871539115905762,0.3382710149477695,15.0,160.0,0.0
,,"(6, 6)",,,,,,,,
R,U,"[5, 6]",1.0,1.0,0.6489038467407227,4.764189958572388,0.33569208922856925,16.0,161.0,0.0
Y,R,"[5, 7]",1.0,2.0,0.2701568603515625,1.7290599346160889,0.46459948934300743,16.0,162.0,0.0
Y,R,"[5, 8]",1.0,3.0,0.20385098457336426,1.7426040172576904,0.5403162411035369,16.0,163.0,0.0
G,D,"[6, 8]",1.0,4.0,0.16951203346252441,1.4228801727294922,0.2634947042418126,16.0,164.0,0.0
Y,R,"[6, 9]",1.0,5.0,0.286182165145874,1.9809989929199219,0.694028533924367,16.0,165.0,0.0
G,D,"[7, 9]",0.0,5.0,0.5044980049133301,1.8663609027862549,0.3607964473296032,16.0,166.0,0.0
Y,R,"[7, 10]",0.0,5.0,0.336763858795166,2.029364824295044,0.7063605125852223,16.0,167.0,0.0
R,U,"[6, 10]",1.0,6.0,0.8315238952636719,2.5565218925476074,0.7295624780426313,16.0,168.0,0.0
R,U,"[5, 10]",1.0,7.0,0.32776808738708496,1.8291540145874023,0.49221166837746044,16.0,169.0,0.0
R,U,"[4, 10]",1.0,8.0,0.4140598773956299,2.066723108291626,0.65873667124944,16.0,170.0,0.0
,,"(6, 6)",,,,,,,,
R,U,"[5, 6]",1.0,1.0,0.5021440982818604,3.7080180644989014,0.5500443236587415,17.0,171.0,0.0
Y,R,"[5, 7]",1.0,2.0,0.21977615356445312,1.8445022106170654,0.6279015796880691,17.0,172.0,0.0
R,U,"[4, 7]",0.0,2.0,0.10559391975402832,1.6149709224700928,0.5261393937792036,17.0,173.0,0.0
Y,R,"[4, 8]",0.0,2.0,0.5196859836578369,2.093679904937744,0.5865166915671459,17.0,174.0,0.0
G,D,"[5, 8]",1.0,3.0,0.21070098876953125,1.566188097000122,0.35283091385747184,17.0,175.0,0.0
G,D,"[6, 8]",1.0,4.0,0.6210489273071289,2.257850170135498,0.6437282148925223,17.0,176.0,0.0
B,L,"[6, 7]",0.0,4.0,0.2109849452972412,1.5627799034118652,0.3566938513309838,17.0,177.0,0.0
B,L,"[6, 6]",0.0,4.0,0.33331894874572754,2.033756971359253,0.7072580823662669,17.0,178.0,0.0
Y,R,"[6, 7]",-1.0,4.0,0.00150299072265625,5.56849217414856,0.5086363028918399,17.0,179.0,0.0
R,U,"[5, 7]",0.0,4.0,0.27950000762939453,1.746480941772461,0.47180024071724214,17.0,180.0,0.0
,,"(6, 6)",,,,,,,,
R,U,"[5, 6]",1.0,1.0,0.4215118885040283,3.487917900085449,0.6095919555134803,18.0,181.0,0.0
Y,R,"[5, 7]",1.0,2.0,0.2118370532989502,1.5199649333953857,0.3131610747864691,18.0,182.0,0.0
Y,R,"[5, 8]",-2.0,2.0,1.161600112915039,2.8772969245910645,0.7399513629691833,18.0,183.0,0.0
G,D,"[6, 8]",1.0,3.0,0.4458799362182617,2.1344552040100098,0.6911400877147003,18.0,184.0,0.0
Y,R,"[6, 9]",1.0,4.0,0.25551700592041016,1.6054511070251465,0.3635444991247478,18.0,185.0,0.0
Y,R,"[6, 10]",1.0,5.0,0.31877613067626953,1.5914809703826904,0.27171901705737905,18.0,186.0,0.0
R,U,"[5, 10]",1.0,6.0,0.546489953994751,2.031836986541748,0.4866477589876759,18.0,187.0,0.0
G,D,"[6, 10]",0.0,6.0,0.21833300590515137,1.7931630611419678,0.5795760272453112,18.0,188.0,0.0
B,L,"[6, 9]",0.0,6.0,0.20319390296936035,1.8865559101104736,0.6827327356300439,18.0,189.0,0.0
R,U,"[5, 9]",0.0,6.0,0.11382412910461426,1.5805418491363525,0.46341817614774267,18.0,190.0,0.0
,,"(6, 6)",,,,,,,,
R,U,"[5, 6]",1.0,1.0,0.3293421268463135,2.9881038665771484,0.26834973041632576,19.0,191.0,0.0
Y,R,"[5, 7]",1.0,2.0,0.3052501678466797,1.8194780349731445,0.5042088461398249,19.0,192.0,0.0
Y,R,"[5, 8]",1.0,3.0,0.28047895431518555,1.5816380977630615,0.30251091356394116,19.0,193.0,0.0
G,D,"[6, 8]",1.0,4.0,0.24233388900756836,1.5519001483917236,0.3045108339571928,19.0,194.0,0.0
Y,R,"[6, 9]",1.0,5.0,0.25513720512390137,1.763828992843628,0.5014004742194063,19.0,195.0,0.0
Y,R,"[6, 10]",1.0,6.0,0.26033997535705566,1.7535669803619385,0.4881534057753188,19.0,196.0,0.0
R,U,"[5, 10]",1.0,7.0,0.2964661121368408,1.8643770217895508,0.5692109249392421,19.0,197.0,0.0
G,D,"[6, 10]",0.0,7.0,0.3800208568572998,2.096947193145752,0.7159554491280871,19.0,198.0,0.0
Y,R,"[6, 11]",0.0,7.0,0.3276557922363281,1.6391139030456543,0.30539591658100707,19.0,199.0,0.0
R,U,"[5, 11]",0.0,7.0,0.5023210048675537,1.9671540260314941,0.47225012190443977,19.0,200.0,0.0
,,"(6, 6)",,,,,,,,
R,U,"[5, 6]",1.0,1.0,0.48874711990356445,3.7177491188049316,0.5899866904924893,20.0,201.0,0.0
Y,R,"[5, 7]",1.0,2.0,0.2019200325012207,1.803063154220581,0.6094348832972959,20.0,202.0,0.0
Y,R,"[5, 8]",1.0,3.0,0.2759439945220947,1.5905671119689941,0.3170553634339819,20.0,203.0,0.0
G,D,"[6, 8]",1.0,4.0,0.4029557704925537,1.7299671173095703,0.33024190806720993,20.0,204.0,0.0
R,U,"[5, 8]",-2.0,4.0,1.1301259994506836,2.6774511337280273,0.5739209270926842,20.0,205.0,0.0
R,U,"[4, 8]",0.0,4.0,0.7062880992889404,2.3107750415802,0.6013660459937632,20.0,206.0,0.0
R,U,"[3, 8]",0.0,4.0,0.3435089588165283,1.7448880672454834,0.39644848731958476,20.0,207.0,0.0
B,L,"[3, 7]",0.0,4.0,0.25783491134643555,1.6861169338226318,0.41581781724493216,20.0,208.0,0.0
B,L,"[3, 6]",0.0,4.0,0.2120528221130371,1.833198070526123,0.6154226664426943,20.0,209.0,0.0
Y,R,"[3, 7]",0.0,4.0,0.18906807899475098,1.8525440692901611,0.6678415606874518,20.0,210.0,0.0
,,"(6, 6)",,,,,,,,
R,U,"[5, 6]",1.0,1.0,0.49590206146240234,3.6098129749298096,0.4777030290547765,21.0,211.0,0.0
Y,R,"[5, 7]",1.0,2.0,0.487476110458374,2.1021568775177,0.6296884562262612,21.0,212.0,0.0
Y,R,"[5, 8]",1.0,3.0,0.237807035446167,1.5340909957885742,0.2973672234906478,21.0,213.0,0.0
G,D,"[6, 8]",1.0,4.0,0.30350184440612793,1.6835589408874512,0.3808407136925216,21.0,214.0,0.0
B,L,"[6, 7]",0.0,4.0,0.26839518547058105,2.0139081478118896,0.7443603449286447,21.0,215.0,0.0
R,U,"[5, 7]",0.0,4.0,0.20960783958435059,1.5547080039978027,0.36596988712442535,21.0,216.0,0.0
R,U,"[4, 7]",0.0,4.0,0.32639002799987793,2.0531198978424072,0.7187541455049994,21.0,217.0,0.0
Y,R,"[4, 8]",0.0,4.0,0.19144201278686523,1.9063878059387207,0.7083323941924362,21.0,218.0,0.0
B,L,"[4, 7]",0.0,4.0,0.16638994216918945,1.6085309982299805,0.4504934469368653,21.0,219.0,0.0
G,D,"[5, 7]",-1.0,4.0,0.0757451057434082,5.811052083969116,0.6444758823521177,21.0,220.0,0.0
,,"(6, 6)",,,,,,,,
R,U,"[5, 6]",1.0,1.0,0.6141231060028076,3.1967618465423584,0.2747783898489518,22.0,221.0,0.0
Y,R,"[5, 7]",1.0,2.0,0.2713479995727539,1.7247660160064697,0.4660741460620607,22.0,222.0,0.0
Y,R,"[5, 8]",1.0,3.0,0.20457792282104492,1.947540044784546,0.7466319963133266,22.0,223.0,0.0
G,D,"[6, 8]",1.0,4.0,0.1585850715637207,1.6113910675048828,0.4415047273569662,22.0,224.0,0.0
Y,R,"[6, 9]",1.0,5.0,0.27126598358154297,1.549849033355713,0.29156748173949104,22.0,225.0,0.0
Y,R,"[6, 10]",1.0,6.0,0.2814669609069824,1.8718008995056152,0.5965481197380167,22.0,226.0,0.0
R,U,"[5, 10]",1.0,7.0,0.4149291515350342,1.8924689292907715,0.4722019588541907,22.0,227.0,0.0
B,L,"[5, 9]",0.0,7.0,0.22124099731445312,1.8475000858306885,0.6364179110635912,22.0,228.0,0.0
R,U,"[4, 9]",1.0,8.0,0.3366079330444336,2.0693349838256836,0.7386732308666959,22.0,229.0,0.0
R,U,"[3, 9]",1.0,9.0,0.20790386199951172,1.9407801628112793,0.7294491350389578,22.0,230.0,0.0
,,"(6, 6)",,,,,,,,
R,U,"[5, 6]",1.0,1.0,0.4546489715576172,4.161858081817627,0.6247382955564924,23.0,231.0,0.0
Y,R,"[5, 7]",1.0,2.0,0.23388099670410156,1.5099811553955078,0.2849161299287926,23.0,232.0,0.0
Y,R,"[5, 8]",1.0,3.0,0.7795441150665283,2.507629871368408,0.7253561353017266,23.0,233.0,0.0
G,D,"[6, 8]",1.0,4.0,0.21219491958618164,1.782947063446045,0.5750837269966537,23.0,234.0,0.0
B,L,"[6, 7]",0.0,4.0,0.3378019332885742,1.7022299766540527,0.3773279794807045,23.0,235.0,0.0
R,U,"[5, 7]",0.0,4.0,0.2558400630950928,1.875082015991211,0.6188989542167286,23.0,236.0,0.0
R,U,"[4, 7]",0.0,4.0,0.135422945022583,1.8207190036773682,0.6895077776654561,23.0,237.0,0.0
Y,R,"[4, 8]",-1.0,4.0,0.050280094146728516,5.502168893814087,0.3918443392886451,23.0,238.0,0.0
Y,R,"[4, 9]",1.0,5.0,0.2787799835205078,1.87680983543396,0.6016843938329006,23.0,239.0,0.0
Y,R,"[4, 10]",1.0,6.0,0.3286449909210205,1.938378095626831,0.6067122835352188,23.0,240.0,0.0
,,"(6, 6)",,,,,,,,
R,U,"[5, 6]",1.0,1.0,0.5765600204467773,3.484182119369507,0.5741615198269968,24.0,241.0,0.0
Y,R,"[5, 7]",1.0,2.0,0.23196005821228027,1.7525269985198975,0.526689138502535,24.0,242.0,0.0
R,U,"[4, 7]",0.0,2.0,0.31163501739501953,2.0204429626464844,0.7135124018782852,24.0,243.0,0.0
G,D,"[5, 7]",0.0,2.0,0.38234615325927734,2.0928680896759033,0.7062902542109616,24.0,244.0,0.0
B,L,"[5, 6]",0.0,2.0,0.22503995895385742,1.5669660568237305,0.3402693916100179,24.0,245.0,0.0
Y,R,"[5, 7]",0.0,2.0,0.29530787467956543,1.7163898944854736,0.42310199025256134,24.0,246.0,0.0
R,U,"[4, 7]",0.0,2.0,0.21760916709899902,1.9523780345916748,0.741907580054104,24.0,247.0,0.0
G,D,"[5, 7]",0.0,2.0,0.15858697891235352,1.704768180847168,0.5468465559395229,24.0,248.0,0.0
B,L,"[5, 6]",0.0,2.0,0.20592808723449707,1.908247947692871,0.6884140199207547,24.0,249.0,0.0
R,U,"[4, 6]",-1.0,2.0,0.0011699199676513672,5.424054861068726,0.3624325355305724,24.0,250.0,0.0
,,"(6, 6)",,,,,,,,
R,U,"[5, 6]",1.0,1.0,0.5647420883178711,3.1622748374938965,0.341258244609021,25.0,251.0,0.0
Y,R,"[5, 7]",1.0,2.0,0.5776021480560303,2.233754873275757,0.6579681382688093,25.0,252.0,0.0
Y,R,"[5, 8]",1.0,3.0,0.2621920108795166,1.8399429321289062,0.5813385358202443,25.0,253.0,0.0
G,D,"[6, 8]",1.0,4.0,0.2171769142150879,1.5024139881134033,0.2840658975302421,25.0,254.0,0.0
B,L,"[6, 7]",0.0,4.0,0.35012197494506836,1.764050006866455,0.4145550860066006,25.0,255.0,0.0
G,D,"[7, 7]",0.0,4.0,0.3354818820953369,1.833662986755371,0.4980187227888607,25.0,256.0,0.0
R,U,"[6, 7]",0.0,4.0,0.25014305114746094,1.86891508102417,0.6168965945217367,25.0,257.0,0.0
Y,R,"[6, 8]",0.0,4.0,0.11214900016784668,1.7392830848693848,0.6228421416347207,25.0,258.0,0.0
Y,R,"[6, 9]",1.0,5.0,0.27410221099853516,1.9217569828033447,0.6443282655149852,25.0,259.0,0.0
Y,R,"[6, 10]",1.0,6.0,0.3696298599243164,1.6894121170043945,0.33410542902912493,25.0,260.0,0.0
,,"(6, 6)",,,,,,,,
R,U,"[5, 6]",1.0,1.0,0.5026140213012695,3.6144680976867676,0.4317351983353877,26.0,261.0,0.0
Y,R,"[5, 7]",1.0,2.0,0.24570918083190918,1.974552869796753,0.7225222147574858,26.0,262.0,0.0
R,U,"[4, 7]",0.0,2.0,0.26403212547302246,1.6154382228851318,0.35494873167020513,26.0,263.0,0.0
R,U,"[3, 7]",0.0,2.0,0.26032304763793945,1.9182279109954834,0.6562319244271791,26.0,264.0,0.0
Y,R,"[3, 8]",0.0,2.0,0.3637208938598633,1.6214830875396729,0.2613015594060192,26.0,265.0,0.0
G,D,"[4, 8]",0.0,2.0,0.22603487968444824,1.4781310558319092,0.25606757892295134,26.0,266.0,0.0
B,L,"[4, 7]",0.0,2.0,0.27559804916381836,2.0197789669036865,0.7421254470049811,26.0,267.0,0.0
R,U,"[3, 7]",0.0,2.0,0.29804205894470215,1.5719599723815918,0.28112180232568784,26.0,268.0,0.0
Y,R,"[3, 8]",0.0,2.0,0.560776948928833,1.9834580421447754,0.4143803671332192,26.0,269.0,0.0
G,D,"[4, 8]",0.0,2.0,0.43230485916137695,2.143033981323242,0.706979472378509,26.0,270.0,0.0
,,"(6, 6)",,,,,,,,
R,U,"[5, 6]",1.0,1.0,0.38598084449768066,13.815147161483765,0.5053945618080546,27.0,271.0,0.0
Y,R,"[5, 7]",1.0,2.0,0.26125192642211914,1.7771461009979248,0.51571380749623,27.0,272.0,0.0
Y,R,"[5, 8]",1.0,3.0,0.22285199165344238,1.8568241596221924,0.6227112744952281,27.0,273.0,0.0
G,D,"[6, 8]",1.0,4.0,0.22085094451904297,1.8153629302978516,0.6044929827594828,27.0,274.0,0.0
Y,R,"[6, 9]",1.0,5.0,0.3318901062011719,1.8619179725646973,0.5331120458631151,27.0,275.0,0.0
Y,R,"[6, 10]",1.0,6.0,0.4205148220062256,1.86198091506958,0.4451109634596396,27.0,276.0,0.0
R,U,"[5, 10]",1.0,7.0,0.39351797103881836,1.8536510467529297,0.4653608136227436,27.0,277.0,0.0
R,U,"[4, 10]",1.0,8.0,0.4848902225494385,1.9911441802978516,0.5064025442300639,27.0,278.0,0.0
G,D,"[5, 10]",0.0,8.0,0.36660003662109375,2.052402973175049,0.692003232028484,27.0,279.0,0.0
B,L,"[5, 9]",0.0,8.0,0.20849108695983887,1.582547903060913,0.374614878569779,27.0,280.0,0.0
,,"(6, 6)",,,,,,,,
R,U,"[5, 6]",1.0,1.0,0.4482259750366211,3.7708709239959717,0.611872202825422,28.0,281.0,0.0
Y,R,"[5, 7]",1.0,2.0,0.1927320957183838,1.7664880752563477,0.5617617339230451,28.0,282.0,0.0
Y,R,"[5, 8]",1.0,3.0,0.613408088684082,2.0265209674835205,0.4218046698401946,28.0,283.0,0.0
G,D,"[6, 8]",1.0,4.0,0.2723410129547119,1.776684045791626,0.4983097466082396,28.0,284.0,0.0
Y,R,"[6, 9]",1.0,5.0,0.2990388870239258,2.033454179763794,0.7314531315403068,28.0,285.0,0.0
Y,R,"[6, 10]",1.0,6.0,0.2757289409637451,1.9651761054992676,0.6799028975175136,28.0,286.0,0.0
R,U,"[5, 10]",1.0,7.0,0.26521801948547363,1.586704969406128,0.31687087564404814,28.0,287.0,0.0
R,U,"[4, 10]",1.0,8.0,0.5660250186920166,2.285156011581421,0.7183665482103172,28.0,288.0,0.0
R,U,"[3, 10]",0.0,8.0,0.24528884887695312,1.737558126449585,0.48942446527052036,28.0,289.0,0.0
R,U,"[2, 10]",0.0,8.0,0.4092679023742676,2.1322879791259766,0.7214329192744894,28.0,290.0,0.0
,,"(6, 6)",,,,,,,,
R,U,"[5, 6]",1.0,1.0,0.4410221576690674,3.0347650051116943,0.2565968133993465,29.0,291.0,0.0
Y,R,"[5, 7]",1.0,2.0,0.47824692726135254,1.9002220630645752,0.4232597863364279,29.0,292.0,0.0
Y,R,"[5, 8]",1.0,3.0,0.19533205032348633,1.5990009307861328,0.4057040677896183,29.0,293.0,0.0
G,D,"[6, 8]",1.0,4.0,0.22760701179504395,1.6090149879455566,0.38124589206627124,29.0,294.0,0.0
Y,R,"[6, 9]",1.0,5.0,0.2755091190338135,1.5911500453948975,0.3056481509842817,29.0,295.0,0.0
Y,R,"[6, 10]",1.0,6.0,0.2712578773498535,1.7698588371276855,0.5087266040997265,29.0,296.0,0.0
R,U,"[5, 10]",1.0,7.0,0.20250582695007324,1.8834190368652344,0.6919571815661041,29.0,297.0,0.0
R,U,"[4, 10]",1.0,8.0,0.19816303253173828,1.7828369140625,0.5913687355899304,29.0,298.0,0.0
Y,R,"[4, 11]",0.0,8.0,0.3418889045715332,1.8474218845367432,0.5056070777741228,29.0,299.0,0.0
Y,R,"[4, 10]",-3.0,8.0,0.5678620338439941,1.934377908706665,0.37338719171181173,29.0,300.0,0.0
,,"(6, 6)",,,,,,,,
R,U,"[5, 6]",1.0,1.0,0.4426238536834717,2.7210278511047363,0.2777531057522574,30.0,301.0,0.0
Y,R,"[5, 7]",1.0,2.0,0.5558478832244873,1.9293348789215088,0.3902154643133723,30.0,302.0,0.0
Y,R,"[5, 8]",1.0,3.0,0.2375199794769287,1.6535840034484863,0.4271915867547812,30.0,303.0,0.0
G,D,"[6, 8]",1.0,4.0,0.22345900535583496,1.7363100051879883,0.5132578991586109,30.0,304.0,0.0
Y,R,"[6, 9]",1.0,5.0,0.1985161304473877,1.5371088981628418,0.3337640562472465,30.0,305.0,0.0
Y,R,"[6, 10]",1.0,6.0,0.22335100173950195,1.833061933517456,0.5998916001321681,30.0,306.0,0.0
R,U,"[5, 10]",1.0,7.0,0.17137598991394043,1.885504961013794,0.7189589300749667,30.0,307.0,0.0
R,U,"[4, 10]",1.0,8.0,0.27062487602233887,1.8226161003112793,0.5580472203864599,30.0,308.0,0.0
B,L,"[4, 9]",1.0,9.0,0.36772799491882324,1.7132158279418945,0.35461385425196884,30.0,309.0,0.0
Y,R,"[4, 10]",0.0,9.0,0.5908350944519043,1.984630823135376,0.3892800697542692,30.0,310.0,0.0
,,"(6, 6)",,,,,,,,
R,U,"[5, 6]",1.0,1.0,0.5797631740570068,3.7188680171966553,0.3081590224641746,31.0,311.0,0.0
Y,R,"[5, 7]",1.0,2.0,0.501986026763916,1.9414870738983154,0.4494317420657677,31.0,312.0,0.0
Y,R,"[5, 8]",1.0,3.0,0.23695707321166992,1.5001161098480225,0.26639181605650025,31.0,313.0,0.0
R,U,"[4, 8]",0.0,3.0,0.33698511123657227,1.8224990367889404,0.48861831383775994,31.0,314.0,0.0
G,D,"[5, 8]",0.0,3.0,0.20426392555236816,1.4521100521087646,0.2574570446152481,31.0,315.0,0.0
B,L,"[5, 7]",-1.0,3.0,0.04382610321044922,5.605319976806641,0.49585781392415784,31.0,316.0,0.0
G,D,"[6, 7]",0.0,3.0,0.24663805961608887,1.514042854309082,0.26003308726905766,31.0,317.0,0.0
G,D,"[7, 7]",0.0,3.0,0.30365896224975586,1.902824878692627,0.6125631683281186,31.0,318.0,0.0
B,L,"[7, 6]",-1.0,3.0,0.0648341178894043,5.5454230308532715,0.40805092096260254,31.0,319.0,0.0
B,L,"[7, 5]",0.0,3.0,0.3075377941131592,1.7984039783477783,0.4896001746210707,31.0,320.0,0.0
,,"(6, 6)",,,,,,,,
R,U,"[5, 6]",1.0,1.0,0.6159529685974121,3.207955837249756,0.3309654928275002,32.0,321.0,0.0
Y,R,"[5, 7]",1.0,2.0,0.4668710231781006,2.2175869941711426,0.7481241177936089,32.0,322.0,0.0
Y,R,"[5, 8]",1.0,3.0,0.20817303657531738,1.5449819564819336,0.32678371816476626,32.0,323.0,0.0
G,D,"[6, 8]",1.0,4.0,0.2807798385620117,1.7374320030212402,0.4640402961953552,32.0,324.0,0.0
Y,R,"[6, 9]",1.0,5.0,0.28685998916625977,2.021604061126709,0.7358070942559546,32.0,325.0,0.0
Y,R,"[6, 10]",1.0,6.0,0.18664193153381348,1.5224061012268066,0.3413851336786554,32.0,326.0,0.0
R,U,"[5, 10]",1.0,7.0,0.31961798667907715,1.5741510391235352,0.26558862213431184,32.0,327.0,0.0
R,U,"[4, 10]",1.0,8.0,0.33206701278686523,1.699695110321045,0.36523860011399806,32.0,328.0,0.0
B,L,"[4, 9]",1.0,9.0,0.24814105033874512,1.7260470390319824,0.47440931750290066,32.0,329.0,0.0
R,U,"[3, 9]",1.0,10.0,0.2626969814300537,1.7043159008026123,0.44532532792326024,32.0,330.0,0.0
,,"(6, 6)",,,,,,,,
R,U,"[5, 6]",-2.0,0.0,1.3103718757629395,4.923197031021118,0.3352389587173004,33.0,331.0,0.0
Y,R,"[5, 7]",1.0,1.0,0.21103596687316895,1.6376240253448486,0.4226206498112503,33.0,332.0,0.0
Y,R,"[5, 8]",1.0,2.0,0.2442488670349121,1.7429800033569336,0.49904226226485454,33.0,333.0,0.0
G,D,"[6, 8]",1.0,3.0,0.22469210624694824,1.9053959846496582,0.6706307153808602,33.0,334.0,0.0
Y,R,"[6, 9]",1.0,4.0,0.2916600704193115,1.8343031406402588,0.5384890862390153,33.0,335.0,0.0
Y,R,"[6, 10]",1.0,5.0,0.2444899082183838,1.6222119331359863,0.37748194321541756,33.0,336.0,0.0
R,U,"[5, 10]",1.0,6.0,0.3226480484008789,2.035485029220581,0.7126014846939288,33.0,337.0,0.0
R,U,"[4, 10]",1.0,7.0,0.2736330032348633,1.7900490760803223,0.5027784469163025,33.0,338.0,0.0
B,L,"[4, 9]",1.0,8.0,0.28733301162719727,1.9271202087402344,0.6463963442528631,33.0,339.0,0.0
R,U,"[3, 9]",1.0,9.0,0.24895906448364258,1.791593074798584,0.5380366173720712,33.0,340.0,0.0
,,"(6, 6)",,,,,,,,
R,U,"[5, 6]",-2.0,0.0,1.4349339008331299,4.2843780517578125,0.4723561710401996,34.0,341.0,0.0
Y,R,"[5, 7]",1.0,1.0,0.23718595504760742,1.52459716796875,0.29711634330798564,34.0,342.0,0.0
Y,R,"[5, 8]",1.0,2.0,0.26288509368896484,1.6346850395202637,0.36504205450219135,34.0,343.0,0.0
G,D,"[6, 8]",1.0,3.0,0.32047581672668457,2.056506872177124,0.7377959769936429,34.0,344.0,0.0
Y,R,"[6, 9]",1.0,4.0,0.20026803016662598,1.712324857711792,0.5169566510128694,34.0,345.0,0.0
Y,R,"[6, 10]",1.0,5.0,0.2758798599243164,1.8382289409637451,0.555114164714585,34.0,346.0,0.0
R,U,"[5, 10]",1.0,6.0,0.3764920234680176,2.085405111312866,0.7069960962601312,34.0,347.0,0.0
R,U,"[4, 10]",1.0,7.0,0.19610810279846191,1.4638419151306152,0.2712036515276175,34.0,348.0,0.0
B,L,"[4, 9]",1.0,8.0,0.3433799743652344,1.6565771102905273,0.3110448926909561,34.0,349.0,0.0
R,U,"[3, 9]",1.0,9.0,0.2597169876098633,1.7321910858154297,0.4763885052669631,34.0,350.0,0.0
,,"(6, 6)",,,,,,,,
R,U,"[5, 6]",1.0,1.0,0.7988250255584717,3.977680206298828,0.42066290709723586,35.0,351.0,0.0
Y,R,"[5, 7]",1.0,2.0,0.4498419761657715,2.080686092376709,0.634499414424714,35.0,352.0,0.0
Y,R,"[5, 8]",1.0,3.0,0.20644187927246094,1.4738469123840332,0.2752367304859527,35.0,353.0,0.0
G,D,"[6, 8]",1.0,4.0,0.43770909309387207,1.9041080474853516,0.479212932393608,35.0,354.0,0.0
Y,R,"[6, 9]",1.0,5.0,0.3160891532897949,1.8601021766662598,0.5391589438280368,35.0,355.0,0.0
Y,R,"[6, 10]",1.0,6.0,0.26602697372436523,1.787722110748291,0.5268774713401425,35.0,356.0,0.0
R,U,"[5, 10]",1.0,7.0,0.268751859664917,1.7365829944610596,0.48010791476195147,35.0,357.0,0.0
R,U,"[4, 10]",1.0,8.0,0.36972904205322266,1.9696760177612305,0.5999062452880499,35.0,358.0,0.0
B,L,"[4, 9]",1.0,9.0,0.21015691757202148,1.741718053817749,0.524686331350288,35.0,359.0,0.0
R,U,"[3, 9]",1.0,10.0,0.23972606658935547,1.7672879695892334,0.5252407199263498,35.0,360.0,0.0
,,"(6, 6)",,,,,,,,
R,U,"[5, 6]",1.0,1.0,0.9283919334411621,3.0927979946136475,0.3514913938539277,36.0,361.0,0.0
Y,R,"[5, 7]",1.0,2.0,0.4109630584716797,1.817119836807251,0.4018871764852895,36.0,362.0,0.0
Y,R,"[5, 8]",1.0,3.0,0.3042910099029541,1.715437889099121,0.4171344367103127,36.0,363.0,0.0
G,D,"[6, 8]",1.0,4.0,0.21459007263183594,1.7143878936767578,0.49818874964972193,36.0,364.0,0.0
Y,R,"[6, 9]",1.0,5.0,0.5159249305725098,2.1216061115264893,0.6028750631040374,36.0,365.0,0.0
Y,R,"[6, 10]",1.0,6.0,0.21029281616210938,1.746898889541626,0.5332604728151549,36.0,366.0,0.0
R,U,"[5, 10]",1.0,7.0,0.2262120246887207,1.612334966659546,0.3789824088252038,36.0,367.0,0.0
R,U,"[4, 10]",1.0,8.0,0.34987592697143555,1.9179301261901855,0.5632734095075855,36.0,368.0,0.0
B,L,"[4, 9]",1.0,9.0,0.19585609436035156,1.4733390808105469,0.270285098854199,36.0,369.0,0.0
R,U,"[3, 9]",1.0,10.0,0.2752511501312256,1.99058198928833,0.7102969127621936,36.0,370.0,0.0
,,"(6, 6)",,,,,,,,
R,U,"[5, 6]",1.0,1.0,0.7563591003417969,3.683295965194702,0.7269703430717004,37.0,371.0,0.0
Y,R,"[5, 7]",1.0,2.0,0.10693097114562988,1.6354408264160156,0.5291853619442932,37.0,372.0,0.0
Y,R,"[5, 8]",1.0,3.0,0.20550298690795898,1.73484206199646,0.5141546154287725,37.0,373.0,0.0
G,D,"[6, 8]",1.0,4.0,0.49826788902282715,1.845823049545288,0.3433283158841104,37.0,374.0,0.0
Y,R,"[6, 9]",1.0,5.0,0.3087642192840576,1.6541650295257568,0.3473989785572314,37.0,375.0,0.0
Y,R,"[6, 10]",1.0,6.0,0.27912402153015137,1.740002155303955,0.4541316730029988,37.0,376.0,0.0
R,U,"[5, 10]",1.0,7.0,0.23275303840637207,1.8639330863952637,0.6342840958540287,37.0,377.0,0.0
R,U,"[4, 10]",1.0,8.0,0.20903301239013672,1.5449588298797607,0.3295705812924624,37.0,378.0,0.0
B,L,"[4, 9]",1.0,9.0,0.33531904220581055,1.8892250061035156,0.5518408013485191,37.0,379.0,0.0
R,U,"[3, 9]",1.0,10.0,0.2533531188964844,1.693451166152954,0.4453685925534965,37.0,380.0,0.0
,,"(6, 6)",,,,,,,,
R,U,"[5, 6]",1.0,1.0,0.6537890434265137,2.9462530612945557,0.508187399399203,38.0,381.0,0.0
Y,R,"[5, 7]",1.0,2.0,0.3553779125213623,2.0339200496673584,0.6752297644908241,38.0,382.0,0.0
Y,R,"[5, 8]",1.0,3.0,0.18607282638549805,1.7145588397979736,0.5397315647679042,38.0,383.0,0.0
G,D,"[6, 8]",1.0,4.0,0.22637605667114258,1.8930609226226807,0.6660815782502603,38.0,384.0,0.0
Y,R,"[6, 9]",1.0,5.0,0.276378870010376,1.9845738410949707,0.7004181802122786,38.0,385.0,0.0
Y,R,"[6, 10]",1.0,6.0,0.25997304916381836,1.5520579814910889,0.2862984565148669,38.0,386.0,0.0
R,U,"[5, 10]",1.0,7.0,0.4060330390930176,1.6543197631835938,0.2573248178405755,38.0,387.0,0.0
R,U,"[4, 10]",1.0,8.0,0.7679159641265869,2.1337029933929443,0.3741393323632603,38.0,388.0,0.0
B,L,"[4, 9]",1.0,9.0,0.33162903785705566,1.7127470970153809,0.3868467034902888,38.0,389.0,0.0
R,U,"[3, 9]",1.0,10.0,0.32391905784606934,1.8152611255645752,0.48521818821288787,38.0,390.0,0.0
,,"(6, 6)",,,,,,,,
R,U,"[5, 6]",-2.0,0.0,1.0201499462127686,3.5029118061065674,0.2550474637582315,39.0,391.0,0.0
Y,R,"[5, 7]",1.0,1.0,0.444288969039917,1.7364399433135986,0.29140320600776454,39.0,392.0,0.0
Y,R,"[5, 8]",1.0,2.0,0.554908037185669,2.119359016418457,0.5770009031664163,39.0,393.0,0.0
G,D,"[6, 8]",1.0,3.0,0.4742569923400879,1.9364380836486816,0.46363535659372546,39.0,394.0,0.0
Y,R,"[6, 9]",1.0,4.0,0.20619797706604004,1.6133100986480713,0.3936024681900558,39.0,395.0,0.0
Y,R,"[6, 10]",1.0,5.0,0.2411649227142334,1.6000280380249023,0.36025663814107733,39.0,396.0,0.0
R,U,"[5, 10]",1.0,6.0,0.5081899166107178,1.9704008102416992,0.4638847278196711,39.0,397.0,0.0
R,U,"[4, 10]",1.0,7.0,0.2148129940032959,1.9450488090515137,0.7257297463472059,39.0,398.0,0.0
B,L,"[4, 9]",1.0,8.0,0.24854397773742676,1.534451961517334,0.29346613068794614,39.0,399.0,0.0
R,U,"[3, 9]",1.0,9.0,0.34914588928222656,2.033567190170288,0.6934596659640061,39.0,400.0,0.0
,,"(6, 6)",,,,,,,,
R,U,"[5, 6]",1.0,1.0,0.6594569683074951,3.3218910694122314,0.3321187657374959,40.0,401.0,0.0
Y,R,"[5, 7]",1.0,2.0,0.27744507789611816,1.7135961055755615,0.4289489131779109,40.0,402.0,0.0
Y,R,"[5, 8]",1.0,3.0,0.2437889575958252,1.78963303565979,0.5349714511414146,40.0,403.0,0.0
G,D,"[6, 8]",1.0,4.0,0.21438193321228027,1.9588878154754639,0.7436769376534906,40.0,404.0,0.0
Y,R,"[6, 9]",1.0,5.0,0.22341299057006836,1.7754769325256348,0.5526945926425764,40.0,405.0,0.0
Y,R,"[6, 10]",1.0,6.0,0.2630879878997803,1.9825439453125,0.718373411869266,40.0,406.0,0.0
R,U,"[5, 10]",1.0,7.0,0.2166140079498291,1.6248090267181396,0.41011028170391645,40.0,407.0,0.0
R,U,"[4, 10]",1.0,8.0,0.24965119361877441,1.6060459613800049,0.366103939282795,40.0,408.0,0.0
B,L,"[4, 9]",1.0,9.0,0.24533987045288086,1.5764939785003662,0.3258352035060762,40.0,409.0,0.0
R,U,"[3, 9]",1.0,10.0,0.24376988410949707,1.5816049575805664,0.34075001027136353,40.0,410.0,0.0
,,"(6, 6)",,,,,,,,
R,U,"[5, 6]",1.0,1.0,0.4646458625793457,2.9923501014709473,0.39968592472001757,41.0,411.0,0.0
Y,R,"[5, 7]",1.0,2.0,0.2713160514831543,1.9493050575256348,0.6820174383061979,41.0,412.0,0.0
Y,R,"[5, 8]",1.0,3.0,0.16927886009216309,1.8232619762420654,0.6554025931500101,41.0,413.0,0.0
G,D,"[6, 8]",1.0,4.0,0.20661497116088867,1.538512945175171,0.3273464120025016,41.0,414.0,0.0
Y,R,"[6, 9]",1.0,5.0,0.26334500312805176,1.549778938293457,0.2938911860151325,41.0,415.0,0.0
Y,R,"[6, 10]",1.0,6.0,0.28046298027038574,1.534001111984253,0.2612502058001515,41.0,416.0,0.0
R,U,"[5, 10]",1.0,7.0,0.29448890686035156,2.036159038543701,0.74678181009732,41.0,417.0,0.0
R,U,"[4, 10]",1.0,8.0,0.2209179401397705,1.6520118713378906,0.43244362829103294,41.0,418.0,0.0
B,L,"[4, 9]",1.0,9.0,0.2480030059814453,1.845472812652588,0.5944038549068678,41.0,419.0,0.0
R,U,"[3, 9]",1.0,10.0,0.4358088970184326,2.0279369354248047,0.6056219731023482,41.0,420.0,0.0
,,"(6, 6)",,,,,,,,
R,U,"[5, 6]",1.0,1.0,0.6900031566619873,2.7703170776367188,0.47598927619645687,42.0,421.0,0.0
Y,R,"[5, 7]",1.0,2.0,0.24150609970092773,1.586319923400879,0.34580437494147703,42.0,422.0,0.0
Y,R,"[5, 8]",1.0,3.0,0.31044697761535645,2.0087499618530273,0.6873371811769771,42.0,423.0,0.0
B,L,"[5, 7]",0.0,3.0,0.2297351360321045,1.890570878982544,0.6612395541487608,42.0,424.0,0.0
Y,R,"[5, 8]",0.0,3.0,0.12614893913269043,1.3927268981933594,0.2711410849533469,42.0,425.0,0.0
Y,R,"[5, 9]",0.0,3.0,0.3011281490325928,1.784397840499878,0.48849327121410574,42.0,426.0,0.0
R,U,"[4, 9]",1.0,4.0,0.20583319664001465,1.8420720100402832,0.6304899140789575,42.0,427.0,0.0
R,U,"[3, 9]",1.0,5.0,0.2968409061431885,1.7294070720672607,0.42684344346560144,42.0,428.0,0.0
B,L,"[3, 8]",-2.0,5.0,1.0361671447753906,2.6400840282440186,0.6500981741359889,42.0,429.0,0.0
R,U,"[2, 8]",0.0,5.0,0.3413848876953125,1.8061490058898926,0.4560505708559294,42.0,430.0,0.0
,,"(6, 6)",,,,,,,,
Y,R,"[6, 7]",0.0,0.0,0.682819128036499,3.5266451835632324,0.5491985559717705,43.0,431.0,0.0
Y,R,"[6, 8]",1.0,1.0,0.16872000694274902,1.4466171264648438,0.27945049711661435,43.0,432.0,0.0
Y,R,"[6, 9]",1.0,2.0,0.243790864944458,1.7734439373016357,0.5192894857147617,43.0,433.0,0.0
G,D,"[7, 9]",0.0,2.0,0.20914101600646973,1.6163420677185059,0.40240983348315784,43.0,434.0,0.0
Y,R,"[7, 10]",0.0,2.0,0.5033810138702393,2.1485190391540527,0.6505774387242886,43.0,435.0,0.0
Y,R,"[7, 11]",0.0,2.0,0.17432188987731934,1.606713056564331,0.4241376169823994,43.0,436.0,0.0
R,U,"[6, 11]",0.0,2.0,0.2903599739074707,1.9710102081298828,0.6782531984044646,43.0,437.0,0.0
R,U,"[5, 11]",0.0,2.0,0.342149019241333,1.8228809833526611,0.4846069796467564,43.0,438.0,0.0
B,L,"[5, 10]",1.0,3.0,0.23550987243652344,1.7415249347686768,0.5094000648130336,43.0,439.0,0.0
R,U,"[4, 10]",1.0,4.0,0.14792418479919434,1.888244867324829,0.747228517485526,43.0,440.0,0.0
,,"(6, 6)",,,,,,,,
R,U,"[5, 6]",1.0,1.0,0.5726959705352783,3.362870931625366,0.37717201833271946,44.0,441.0,0.0
Y,R,"[5, 7]",1.0,2.0,0.31993985176086426,1.7242929935455322,0.41807806324426317,44.0,442.0,0.0
Y,R,"[5, 8]",1.0,3.0,0.2496199607849121,1.8378028869628906,0.5889207305906659,44.0,443.0,0.0
G,D,"[6, 8]",1.0,4.0,0.224229097366333,1.7965149879455566,0.5687143556804503,44.0,444.0,0.0
Y,R,"[6, 9]",1.0,5.0,0.15120697021484375,1.4844021797180176,0.3367456549029531,44.0,445.0,0.0
Y,R,"[6, 10]",1.0,6.0,0.29290008544921875,1.8618910312652588,0.5653264357213165,44.0,446.0,0.0
R,U,"[5, 10]",1.0,7.0,0.22524595260620117,1.619516134262085,0.38488203534959203,44.0,447.0,0.0
R,U,"[4, 10]",1.0,8.0,0.2545750141143799,1.7419819831848145,0.4931011698800026,44.0,448.0,0.0
B,L,"[4, 9]",1.0,9.0,0.26714611053466797,1.865994930267334,0.6090320996684948,44.0,449.0,0.0
R,U,"[3, 9]",-1.0,9.0,0.04816102981567383,5.681970834732056,0.5742270728056063,44.0,450.0,0.0
,,"(6, 6)",,,,,,,,
R,U,"[5, 6]",1.0,1.0,0.34026598930358887,3.7354910373687744,0.44310128422174244,45.0,451.0,0.0
Y,R,"[5, 7]",1.0,2.0,0.2987840175628662,1.6816799640655518,0.39148216579522627,45.0,452.0,0.0
Y,R,"[5, 8]",1.0,3.0,0.24044585227966309,1.6414928436279297,0.3996178216559687,45.0,453.0,0.0
G,D,"[6, 8]",1.0,4.0,0.28983187675476074,1.7729990482330322,0.47251024840445754,45.0,454.0,0.0
Y,R,"[6, 9]",1.0,5.0,0.24872303009033203,1.7818191051483154,0.5375346918910109,45.0,455.0,0.0
Y,R,"[6, 10]",1.0,6.0,0.2804398536682129,1.8652100563049316,0.585979178532166,45.0,456.0,0.0
R,U,"[5, 10]",1.0,7.0,0.2637300491333008,1.9624629020690918,0.6981895015235349,45.0,457.0,0.0
R,U,"[4, 10]",1.0,8.0,0.29003286361694336,1.7679760456085205,0.46645175873652195,45.0,458.0,0.0
B,L,"[4, 9]",1.0,9.0,0.5135691165924072,2.08420991897583,0.5671833803477125,45.0,459.0,0.0
R,U,"[3, 9]",1.0,10.0,0.25019407272338867,1.6678459644317627,0.4185110270255078,45.0,460.0,0.0
,,"(6, 6)",,,,,,,,
R,U,"[5, 6]",1.0,1.0,0.4533510208129883,3.3577821254730225,0.6592929259915634,46.0,461.0,0.0
Y,R,"[5, 7]",1.0,2.0,0.18227887153625488,1.5380470752716064,0.3641751449567895,46.0,462.0,0.0
Y,R,"[5, 8]",1.0,3.0,0.3312699794769287,1.7078261375427246,0.3720176508039209,46.0,463.0,0.0
G,D,"[6, 8]",1.0,4.0,0.3103361129760742,1.7447259426116943,0.4333357211969252,46.0,464.0,0.0
Y,R,"[6, 9]",1.0,5.0,0.34128904342651367,1.8494999408721924,0.4993967193174443,46.0,465.0,0.0
Y,R,"[6, 10]",1.0,6.0,0.27817797660827637,1.7607810497283936,0.4769915781056484,46.0,466.0,0.0
R,U,"[5, 10]",1.0,7.0,0.3132798671722412,1.6748709678649902,0.3683112018087646,46.0,467.0,0.0
R,U,"[4, 10]",1.0,8.0,0.3318469524383545,1.7822520732879639,0.45043758476782325,46.0,468.0,0.0
B,L,"[4, 9]",1.0,9.0,0.24059200286865234,1.6049258708953857,0.355541167985486,46.0,469.0,0.0
R,U,"[3, 9]",1.0,10.0,0.3095889091491699,1.886549949645996,0.5751149842256428,46.0,470.0,0.0
,,"(6, 6)",,,,,,,,
R,U,"[5, 6]",1.0,1.0,0.5884690284729004,7.080366849899292,0.5221406411609366,47.0,471.0,0.0
Y,R,"[5, 7]",1.0,2.0,0.6677961349487305,1.9894089698791504,0.32834991593871476,47.0,472.0,0.0
Y,R,"[5, 8]",1.0,3.0,0.297482967376709,1.8977751731872559,0.6091407896857678,47.0,473.0,0.0
G,D,"[6, 8]",1.0,4.0,0.23046183586120605,1.5299949645996094,0.30595566728998375,47.0,474.0,0.0
Y,R,"[6, 9]",1.0,5.0,0.22815299034118652,1.607640027999878,0.3802197338697901,47.0,475.0,0.0
Y,R,"[6, 10]",1.0,6.0,0.3334689140319824,2.028373956680298,0.6920999640786234,47.0,476.0,0.0
R,U,"[5, 10]",1.0,7.0,0.23975515365600586,1.8375341892242432,0.5958364179348248,47.0,477.0,0.0
R,U,"[4, 10]",1.0,8.0,0.23667311668395996,1.811513900756836,0.5740616210501152,47.0,478.0,0.0
B,L,"[4, 9]",1.0,9.0,0.23572897911071777,1.7529969215393066,0.5270143117188788,47.0,479.0,0.0
R,U,"[3, 9]",1.0,10.0,0.2817060947418213,1.6538629531860352,0.3809989214079695,47.0,480.0,0.0
,,"(6, 6)",,,,,,,,
R,U,"[5, 6]",1.0,1.0,0.49721503257751465,3.3070340156555176,0.28795126970171914,48.0,481.0,0.0
Y,R,"[5, 7]",1.0,2.0,0.3738701343536377,2.11456298828125,0.7354674617637137,48.0,482.0,0.0
Y,R,"[5, 8]",1.0,3.0,0.4039318561553955,1.6961100101470947,0.29855940840189554,48.0,483.0,0.0
G,D,"[6, 8]",1.0,4.0,0.37975001335144043,1.643381118774414,0.25864659582947336,48.0,484.0,0.0
Y,R,"[6, 9]",1.0,5.0,0.3020050525665283,1.8264141082763672,0.5347712251858614,48.0,485.0,0.0
Y,R,"[6, 10]",1.0,6.0,0.24360299110412598,1.8307890892028809,0.5820650186036638,48.0,486.0,0.0
R,U,"[5, 10]",1.0,7.0,0.23168706893920898,1.9206490516662598,0.6859847611792249,48.0,487.0,0.0
R,U,"[4, 10]",1.0,8.0,0.24274492263793945,1.8994560241699219,0.6520897265176501,48.0,488.0,0.0
B,L,"[4, 9]",1.0,9.0,0.25856494903564453,1.8847301006317139,0.6201296063923852,48.0,489.0,0.0
R,U,"[3, 9]",1.0,10.0,0.22022008895874023,1.6548268795013428,0.4417901620404703,48.0,490.0,0.0
,,"(6, 6)",,,,,,,,
R,U,"[5, 6]",1.0,1.0,0.7126190662384033,8.397209882736206,0.5885960530981145,49.0,491.0,0.0
Y,R,"[5, 7]",1.0,2.0,0.35314202308654785,1.6461060047149658,0.3017154953739913,49.0,492.0,0.0
Y,R,"[5, 8]",1.0,3.0,0.4682459831237793,1.7519340515136719,0.2869334214030621,49.0,493.0,0.0
G,D,"[6, 8]",1.0,4.0,0.25417494773864746,1.7494759559631348,0.502735310807666,49.0,494.0,0.0
Y,R,"[6, 9]",1.0,5.0,0.19412708282470703,1.6793019771575928,0.482108265696955,49.0,495.0,0.0
Y,R,"[6, 10]",1.0,6.0,0.2388010025024414,1.5333659648895264,0.2823220370823647,49.0,496.0,0.0
R,U,"[5, 10]",1.0,7.0,0.269467830657959,1.5421528816223145,0.27441325948272255,49.0,497.0,0.0
R,U,"[4, 10]",1.0,8.0,0.283336877822876,1.9845030307769775,0.7084756784734798,49.0,498.0,0.0
B,L,"[4, 9]",1.0,9.0,0.197739839553833,1.5103569030761719,0.31921370030405827,49.0,499.0,0.0
R,U,"[3, 9]",1.0,10.0,0.2370901107788086,1.8904259204864502,0.6592925809528294,49.0,500.0,0.0
,,"(6, 6)",,,,,,,,
R,U,"[5, 6]",1.0,1.0,0.38814592361450195,2.289196014404297,0.6483962775748939,50.0,501.0,0.0
Y,R,"[5, 7]",1.0,2.0,0.21918511390686035,1.8489680290222168,0.6307128390555632,50.0,502.0,0.0
Y,R,"[5, 8]",1.0,3.0,0.2340240478515625,1.9458551406860352,0.7097159195026156,50.0,503.0,0.0
G,D,"[6, 8]",1.0,4.0,0.18835210800170898,1.8722951412200928,0.6820383816574074,50.0,504.0,0.0
Y,R,"[6, 9]",1.0,5.0,0.18306183815002441,1.5746819972991943,0.3902741410941384,50.0,505.0,0.0
Y,R,"[6, 10]",1.0,6.0,0.5293619632720947,1.9049100875854492,0.3784610757079062,50.0,506.0,0.0
R,U,"[5, 10]",1.0,7.0,0.3094780445098877,2.046653985977173,0.7413986389256537,50.0,507.0,0.0
R,U,"[4, 10]",1.0,8.0,0.24341106414794922,1.926159143447876,0.684293154479851,50.0,508.0,0.0
B,L,"[4, 9]",1.0,9.0,0.2510249614715576,1.7936511039733887,0.5446149733095421,50.0,509.0,0.0
R,U,"[3, 9]",1.0,10.0,0.22960686683654785,1.924962043762207,0.7027064062086961,50.0,510.0,0.0
,,"(6, 6)",,,,,,,,
R,U,"[5, 6]",1.0,1.0,0.638282060623169,2.6574900150299072,0.6935788619253781,51.0,511.0,0.0
Y,R,"[5, 7]",1.0,2.0,0.21230316162109375,1.9133338928222656,0.7067461422962008,51.0,512.0,0.0
Y,R,"[5, 8]",1.0,3.0,0.20078396797180176,1.474104881286621,0.2813179463733665,51.0,513.0,0.0
G,D,"[6, 8]",1.0,4.0,0.3895108699798584,1.6806321144104004,0.29524309778822405,51.0,514.0,0.0
Y,R,"[6, 9]",1.0,5.0,0.20551300048828125,1.7743539810180664,0.5859362014049903,51.0,515.0,0.0
Y,R,"[6, 10]",1.0,6.0,0.2263951301574707,1.5453319549560547,0.3147594184058092,51.0,516.0,0.0
R,U,"[5, 10]",1.0,7.0,0.3413550853729248,1.8196749687194824,0.467695206597277,51.0,517.0,0.0
R,U,"[4, 10]",1.0,8.0,0.2995579242706299,1.899967908859253,0.6007165347232225,51.0,518.0,0.0
B,L,"[4, 9]",1.0,9.0,0.2339179515838623,1.9186069965362549,0.6858345284129477,51.0,519.0,0.0
R,U,"[3, 9]",1.0,10.0,0.17182397842407227,1.8655569553375244,0.7013598659247194,51.0,520.0,0.0
,,"(6, 6)",,,,,,,,
R,U,"[5, 6]",1.0,1.0,0.48556089401245117,2.9977188110351562,0.5825321709570541,52.0,521.0,0.0
Y,R,"[5, 7]",1.0,2.0,0.20842599868774414,1.6122040748596191,0.3949889424861054,52.0,522.0,0.0
Y,R,"[5, 8]",1.0,3.0,0.23912596702575684,1.5599679946899414,0.32150281849791756,52.0,523.0,0.0
G,D,"[6, 8]",1.0,4.0,0.2404770851135254,1.721949815750122,0.476930223779378,52.0,524.0,0.0
Y,R,"[6, 9]",1.0,5.0,0.20071697235107422,1.6877059936523438,0.4975680774101626,52.0,525.0,0.0
Y,R,"[6, 10]",1.0,6.0,0.2087559700012207,1.6242060661315918,0.4051566465573746,52.0,526.0,0.0
R,U,"[5, 10]",1.0,7.0,0.2924208641052246,1.8444368839263916,0.5495135313030072,52.0,527.0,0.0
R,U,"[4, 10]",1.0,8.0,0.22211408615112305,1.7296481132507324,0.49582161013847703,52.0,528.0,0.0
B,L,"[4, 9]",1.0,9.0,0.28275609016418457,2.016799211502075,0.7290670209273151,52.0,529.0,0.0
R,U,"[3, 9]",1.0,10.0,0.23636889457702637,1.8025579452514648,0.5650528584277155,52.0,530.0,0.0
,,"(6, 6)",,,,,,,,
R,U,"[5, 6]",1.0,1.0,0.32241296768188477,3.3863649368286133,0.4847664596563367,53.0,531.0,0.0
Y,R,"[5, 7]",1.0,2.0,0.19491910934448242,1.6455810070037842,0.4470213450931064,53.0,532.0,0.0
Y,R,"[5, 8]",1.0,3.0,0.31470489501953125,1.6488878726959229,0.3292496073216481,53.0,533.0,0.0
G,D,"[6, 8]",1.0,4.0,0.2508120536804199,1.534458875656128,0.2804909309842724,53.0,534.0,0.0
Y,R,"[6, 9]",1.0,5.0,0.25433802604675293,1.6258800029754639,0.37283634298103124,53.0,535.0,0.0
Y,R,"[6, 10]",1.0,6.0,0.20664000511169434,1.6022799015045166,0.3917867770036005,53.0,536.0,0.0
R,U,"[5, 10]",1.0,7.0,0.20867919921875,1.9576311111450195,0.7489001914001335,53.0,537.0,0.0
R,U,"[4, 10]",1.0,8.0,0.17395710945129395,1.594844102859497,0.4108437304315578,53.0,538.0,0.0
B,L,"[4, 9]",1.0,9.0,0.20255589485168457,1.8550610542297363,0.665591781495853,53.0,539.0,0.0
R,U,"[3, 9]",1.0,10.0,0.43497490882873535,2.152747869491577,0.7182808996524215,53.0,540.0,0.0
,,"(6, 6)",,,,,,,,
R,U,"[5, 6]",-2.0,0.0,1.0209219455718994,3.484127998352051,0.26940666173236266,54.0,541.0,0.0
Y,R,"[5, 7]",1.0,1.0,0.22460103034973145,1.9562671184539795,0.7252031263536332,54.0,542.0,0.0
Y,R,"[5, 8]",1.0,2.0,0.19754719734191895,1.6985819339752197,0.5073800595070075,54.0,543.0,0.0
G,D,"[6, 8]",1.0,3.0,0.2358100414276123,1.9472260475158691,0.7208580043895312,54.0,544.0,0.0
Y,R,"[6, 9]",1.0,4.0,0.23029804229736328,1.8926329612731934,0.6635289113423476,54.0,545.0,0.0
Y,R,"[6, 10]",1.0,5.0,0.22353315353393555,1.5902431011199951,0.35399352542947304,54.0,546.0,0.0
R,U,"[5, 10]",1.0,6.0,0.30018186569213867,1.6236650943756104,0.3277644631641483,54.0,547.0,0.0
R,U,"[4, 10]",1.0,7.0,0.29451704025268555,2.035054922103882,0.745956067202969,54.0,548.0,0.0
B,L,"[4, 9]",1.0,8.0,0.21949291229248047,1.8866448402404785,0.665705446744733,54.0,549.0,0.0
R,U,"[3, 9]",1.0,9.0,0.3001718521118164,1.5877890586853027,0.28709011356393743,54.0,550.0,0.0
,,"(6, 6)",,,,,,,,
R,U,"[5, 6]",1.0,1.0,0.5016789436340332,3.172677993774414,0.4596239756695989,55.0,551.0,0.0
Y,R,"[5, 7]",1.0,2.0,0.23415613174438477,1.7354140281677246,0.5118188986606789,55.0,552.0,0.0
Y,R,"[5, 8]",1.0,3.0,0.2038710117340088,1.66788911819458,0.4794211463432581,55.0,553.0,0.0
G,D,"[6, 8]",1.0,4.0,0.27141714096069336,1.5681729316711426,0.2977282155368225,55.0,554.0,0.0
Y,R,"[6, 9]",1.0,5.0,0.3227720260620117,1.6522819995880127,0.3167090721857473,55.0,555.0,0.0
Y,R,"[6, 10]",1.0,6.0,0.3007059097290039,1.9655561447143555,0.6652472871472987,55.0,556.0,0.0
R,U,"[5, 10]",1.0,7.0,0.25107502937316895,1.6688730716705322,0.4175487504678663,55.0,557.0,0.0
R,U,"[4, 10]",1.0,8.0,0.3093409538269043,1.6069002151489258,0.29123325617393997,55.0,558.0,0.0
B,L,"[4, 9]",1.0,9.0,0.27768611907958984,1.6412920951843262,0.3658174661256175,55.0,559.0,0.0
R,U,"[3, 9]",1.0,10.0,0.26637697219848633,1.6623530387878418,0.3947674396494589,55.0,560.0,0.0
,,"(6, 6)",,,,,,,,
R,U,"[5, 6]",1.0,1.0,0.38367700576782227,2.8915131092071533,0.45283503915551254,56.0,561.0,0.0
Y,R,"[5, 7]",1.0,2.0,0.3193378448486328,1.8021271228790283,0.48814691194702325,56.0,562.0,0.0
Y,R,"[5, 8]",1.0,3.0,0.20335006713867188,1.7416880130767822,0.5465157832137358,56.0,563.0,0.0
G,D,"[6, 8]",1.0,4.0,0.23027610778808594,1.5112950801849365,0.2745591981342991,56.0,564.0,0.0
Y,R,"[6, 9]",1.0,5.0,0.2582850456237793,1.5937368869781494,0.3349581087050833,56.0,565.0,0.0
Y,R,"[6, 10]",1.0,6.0,0.2425830364227295,1.7122080326080322,0.46368205862442363,56.0,566.0,0.0
R,U,"[5, 10]",1.0,7.0,0.2516939640045166,1.9814729690551758,0.7282316504925554,56.0,567.0,0.0
R,U,"[4, 10]",1.0,8.0,0.2165679931640625,1.4589200019836426,0.25422626833797907,56.0,568.0,0.0
B,L,"[4, 9]",1.0,9.0,0.31929802894592285,1.8898229598999023,0.5772092906190865,56.0,569.0,0.0
R,U,"[3, 9]",1.0,10.0,0.2539548873901367,1.4959440231323242,0.2564929642782445,56.0,570.0,0.0
,,"(6, 6)",,,,,,,,
R,U,"[5, 6]",1.0,1.0,0.3652520179748535,2.8863749504089355,0.5093431359734778,57.0,571.0,0.0
Y,R,"[5, 7]",1.0,2.0,0.280548095703125,1.9846270084381104,0.7102584714517146,57.0,572.0,0.0
Y,R,"[5, 8]",1.0,3.0,0.24316096305847168,1.585710048675537,0.34638938660397023,57.0,573.0,0.0
G,D,"[6, 8]",1.0,4.0,0.2671840190887451,1.6183559894561768,0.3480146436772928,57.0,574.0,0.0
Y,R,"[6, 9]",1.0,5.0,0.2735278606414795,1.9743461608886719,0.6887250323793641,57.0,575.0,0.0
Y,R,"[6, 10]",1.0,6.0,0.23676395416259766,1.9333131313323975,0.7056098506595521,57.0,576.0,0.0
R,U,"[5, 10]",1.0,7.0,0.20949578285217285,1.9112229347229004,0.6998454586530778,57.0,577.0,0.0
R,U,"[4, 10]",1.0,8.0,0.22983884811401367,1.9018590450286865,0.6682556628241358,57.0,578.0,0.0
B,L,"[4, 9]",1.0,9.0,0.2177579402923584,1.5872619152069092,0.3725044935919745,57.0,579.0,0.0
R,U,"[3, 9]",1.0,10.0,0.21743392944335938,1.6579980850219727,0.4470774038285069,57.0,580.0,0.0
,,"(6, 6)",,,,,,,,
R,U,"[5, 6]",1.0,1.0,0.2282121181488037,2.454874038696289,0.26861862325025787,58.0,581.0,0.0
Y,R,"[5, 7]",1.0,2.0,0.3827698230743408,1.783958911895752,0.4024830426003859,58.0,582.0,0.0
Y,R,"[5, 8]",1.0,3.0,0.2453749179840088,1.6299080848693848,0.38234716231397564,58.0,583.0,0.0
G,D,"[6, 8]",1.0,4.0,0.3110959529876709,1.7715001106262207,0.4541112001945312,58.0,584.0,0.0
Y,R,"[6, 9]",1.0,5.0,0.2453479766845703,1.9001119136810303,0.6538621699540412,58.0,585.0,0.0
Y,R,"[6, 10]",1.0,6.0,0.27238011360168457,1.809175968170166,0.5296130660897191,58.0,586.0,0.0
R,U,"[5, 10]",1.0,7.0,0.24769806861877441,1.8378889560699463,0.5839553785109894,58.0,587.0,0.0
R,U,"[4, 10]",1.0,8.0,0.23139500617980957,1.5811488628387451,0.34876084876957886,58.0,588.0,0.0
B,L,"[4, 9]",1.0,9.0,0.22396492958068848,1.8383500576019287,0.6035059043306306,58.0,589.0,0.0
R,U,"[3, 9]",1.0,10.0,0.21659183502197266,1.6474549770355225,0.43437246543259783,58.0,590.0,0.0
,,"(6, 6)",,,,,,,,
R,U,"[5, 6]",1.0,1.0,0.2801680564880371,2.7058489322662354,0.573464594880164,59.0,591.0,0.0
Y,R,"[5, 7]",1.0,2.0,0.24014902114868164,1.9438512325286865,0.7004123678002697,59.0,592.0,0.0
Y,R,"[5, 8]",1.0,3.0,0.180009126663208,1.7655611038208008,0.5826206727579825,59.0,593.0,0.0
G,D,"[6, 8]",1.0,4.0,0.23394298553466797,1.872373104095459,0.6383961458816034,59.0,594.0,0.0
Y,R,"[6, 9]",1.0,5.0,0.18632102012634277,1.5553879737854004,0.37721594032498545,59.0,595.0,0.0
Y,R,"[6, 10]",1.0,6.0,0.31728410720825195,1.687713861465454,0.38160856464919257,59.0,596.0,0.0
R,U,"[5, 10]",1.0,7.0,0.32219696044921875,2.0363729000091553,0.7009734456023368,59.0,597.0,0.0
R,U,"[4, 10]",1.0,8.0,0.19382596015930176,1.4581501483917236,0.2594927641197335,59.0,598.0,0.0
B,L,"[4, 9]",1.0,9.0,0.3201110363006592,1.9418752193450928,0.6343679124942463,59.0,599.0,0.0
R,U,"[3, 9]",1.0,10.0,0.22195982933044434,1.7627029418945312,0.5472439019259705,59.0,600.0,0.0
,,"(6, 6)",,,,,,,,
R,U,"[5, 6]",1.0,1.0,0.38935184478759766,2.8347809314727783,0.28207139519089236,60.0,601.0,0.0
Y,R,"[5, 7]",1.0,2.0,0.28583717346191406,1.8629810810089111,0.577949356516295,60.0,602.0,0.0
Y,R,"[5, 8]",1.0,3.0,0.22182416915893555,1.7428669929504395,0.5375854578295551,60.0,603.0,0.0
G,D,"[6, 8]",1.0,4.0,0.39774513244628906,1.6490139961242676,0.2534508737753483,60.0,604.0,0.0
Y,R,"[6, 9]",1.0,5.0,0.23878812789916992,1.6264281272888184,0.3964453740516365,60.0,605.0,0.0
Y,R,"[6, 10]",1.0,6.0,0.24897289276123047,1.7507150173187256,0.4970200855086513,60.0,606.0,0.0
R,U,"[5, 10]",1.0,7.0,0.24457097053527832,1.793776035308838,0.5407411629671575,60.0,607.0,0.0
R,U,"[4, 10]",1.0,8.0,0.2590630054473877,1.9823319911956787,0.722844656460395,60.0,608.0,0.0
B,L,"[4, 9]",1.0,9.0,0.17120099067687988,1.6095139980316162,0.44922908937526307,60.0,609.0,0.0
R,U,"[3, 9]",1.0,10.0,0.7970359325408936,2.2164690494537354,0.4156333223405368,60.0,610.0,0.0
,,"(6, 6)",,,,,,,,
R,U,"[5, 6]",1.0,1.0,0.804926872253418,4.588324069976807,0.3206218250981006,61.0,611.0,0.0
Y,R,"[5, 7]",1.0,2.0,0.3829929828643799,1.8922529220581055,0.5126708628321766,61.0,612.0,0.0
Y,R,"[5, 8]",1.0,3.0,0.39003705978393555,1.692284107208252,0.2885475327281918,61.0,613.0,0.0
G,D,"[6, 8]",1.0,4.0,0.37163686752319336,1.9214951992034912,0.559584960368831,61.0,614.0,0.0
Y,R,"[6, 9]",1.0,5.0,0.33197498321533203,1.7643730640411377,0.4408393016349745,61.0,615.0,0.0
Y,R,"[6, 10]",1.0,6.0,0.29527997970581055,1.6382710933685303,0.3457462318813641,61.0,616.0,0.0
R,U,"[5, 10]",1.0,7.0,0.5402998924255371,1.901742935180664,0.36415059196032307,61.0,617.0,0.0
R,U,"[4, 10]",1.0,8.0,0.40131402015686035,1.6664111614227295,0.26391790430674594,61.0,618.0,0.0
B,L,"[4, 9]",1.0,9.0,0.36670899391174316,1.963526964187622,0.5937599631141299,61.0,619.0,0.0
R,U,"[3, 9]",1.0,10.0,0.23458385467529297,1.580306053161621,0.3576781540936524,61.0,620.0,0.0
,,"(6, 6)",,,,,,,,
R,U,"[5, 6]",1.0,1.0,0.6757540702819824,4.070698022842407,0.36158644442562626,62.0,621.0,0.0
Y,R,"[5, 7]",1.0,2.0,0.4214940071105957,1.925152063369751,0.5198869258319374,62.0,622.0,0.0
Y,R,"[5, 8]",1.0,3.0,0.3102688789367676,1.9655060768127441,0.6519337804122984,62.0,623.0,0.0
G,D,"[6, 8]",1.0,4.0,0.25255799293518066,1.5329310894012451,0.28516895952740834,62.0,624.0,0.0
Y,R,"[6, 9]",1.0,5.0,0.37915992736816406,1.867021083831787,0.48526008035002544,62.0,625.0,0.0
Y,R,"[6, 10]",1.0,6.0,0.22745299339294434,1.5432908535003662,0.31198058704067555,62.0,626.0,0.0
R,U,"[5, 10]",1.0,7.0,0.4067690372467041,1.8143270015716553,0.42620701803921335,62.0,627.0,0.0
R,U,"[4, 10]",1.0,8.0,0.3374650478363037,1.881201982498169,0.5571821431125741,62.0,628.0,0.0
B,L,"[4, 9]",1.0,9.0,0.15711712837219238,1.7038390636444092,0.5609806551817904,62.0,629.0,0.0
R,U,"[3, 9]",1.0,10.0,0.455125093460083,1.6987948417663574,0.2600995993291587,62.0,630.0,0.0
,,"(6, 6)",,,,,,,,
R,U,"[5, 6]",1.0,1.0,0.5052900314331055,3.76289701461792,0.28958447721305497,63.0,631.0,0.0
Y,R,"[5, 7]",1.0,2.0,0.8463799953460693,2.4590089321136475,0.6148711223957635,63.0,632.0,0.0
Y,R,"[5, 8]",1.0,3.0,0.3347468376159668,1.9642219543457031,0.6289672373365227,63.0,633.0,0.0
G,D,"[6, 8]",1.0,4.0,0.35205698013305664,1.912491798400879,0.5581852360310142,63.0,634.0,0.0
Y,R,"[6, 9]",1.0,5.0,0.2905700206756592,1.5735459327697754,0.2986672192765381,63.0,635.0,0.0
Y,R,"[6, 10]",1.0,6.0,0.44869399070739746,1.7787599563598633,0.32732248214514226,63.0,636.0,0.0
R,U,"[5, 10]",1.0,7.0,0.40003514289855957,1.7815160751342773,0.39211415291559576,63.0,637.0,0.0
R,U,"[4, 10]",1.0,8.0,0.42859792709350586,1.8161559104919434,0.3914840912201159,63.0,638.0,0.0
B,L,"[4, 9]",1.0,9.0,0.38591694831848145,1.973639965057373,0.5983820564664295,63.0,639.0,0.0
R,U,"[3, 9]",1.0,10.0,0.22269797325134277,1.7600970268249512,0.5250971342610746,63.0,640.0,0.0
,,"(6, 6)",,,,,,,,
R,U,"[5, 6]",1.0,1.0,0.39697885513305664,5.641179800033569,0.6327127755351869,64.0,641.0,0.0
R,U,"[4, 6]",0.0,1.0,0.19762897491455078,1.9024438858032227,0.7017411058305505,64.0,642.0,0.0
Y,R,"[4, 7]",0.0,1.0,0.20456600189208984,1.805293083190918,0.6074424699361421,64.0,643.0,0.0
G,D,"[5, 7]",1.0,2.0,0.1325531005859375,1.7987830638885498,0.6724662219450932,64.0,644.0,0.0
Y,R,"[5, 8]",1.0,3.0,0.1635148525238037,1.6637799739837646,0.5029379972040731,64.0,645.0,0.0
Y,R,"[5, 9]",0.0,3.0,0.28192996978759766,1.7614219188690186,0.481406312557074,64.0,646.0,0.0
R,U,"[4, 9]",1.0,4.0,0.8152289390563965,2.1399879455566406,0.3211636706472524,64.0,647.0,0.0
R,U,"[3, 9]",1.0,5.0,0.2738468647003174,1.6432750225067139,0.3643755020875063,64.0,648.0,0.0
B,L,"[3, 8]",0.0,5.0,0.23581385612487793,1.8371338844299316,0.6012792166059256,64.0,649.0,0.0
R,U,"[2, 8]",0.0,5.0,0.15090608596801758,1.7987470626831055,0.6499145405464839,64.0,650.0,0.0
,,"(6, 6)",,,,,,,,
R,U,"[5, 6]",1.0,1.0,0.24405193328857422,3.108067035675049,0.458091368810333,65.0,651.0,0.0
Y,R,"[5, 7]",1.0,2.0,0.21426701545715332,1.6719839572906494,0.4633861133749928,65.0,652.0,0.0
Y,R,"[5, 8]",1.0,3.0,0.21188616752624512,1.5159599781036377,0.2961707028792539,65.0,653.0,0.0
G,D,"[6, 8]",1.0,4.0,0.32040905952453613,1.9987709522247314,0.6776936358073185,65.0,654.0,0.0
Y,R,"[6, 9]",1.0,5.0,0.20607900619506836,1.4929561614990234,0.2878426568436201,65.0,655.0,0.0
Y,R,"[6, 10]",1.0,6.0,0.40110087394714355,1.707137107849121,0.31162400101397747,65.0,656.0,0.0
R,U,"[5, 10]",1.0,7.0,0.3200550079345703,1.8704819679260254,0.5650611202167404,65.0,657.0,0.0
R,U,"[4, 10]",1.0,8.0,0.2212049961090088,1.789050817489624,0.5706476265817925,65.0,658.0,0.0
B,L,"[4, 9]",1.0,9.0,0.23641490936279297,1.9135639667510986,0.6840697109165477,65.0,659.0,0.0
R,U,"[3, 9]",1.0,10.0,0.24679017066955566,1.6908278465270996,0.44179494761508414,65.0,660.0,0.0
,,"(6, 6)",,,,,,,,
R,U,"[5, 6]",1.0,1.0,0.4609029293060303,2.275026798248291,0.26705072714066347,66.0,661.0,0.0
Y,R,"[5, 7]",1.0,2.0,0.24177098274230957,1.9965429306030273,0.7462470661553459,66.0,662.0,0.0
Y,R,"[5, 8]",1.0,3.0,0.2090320587158203,1.6841249465942383,0.4641855690111216,66.0,663.0,0.0
G,D,"[6, 8]",1.0,4.0,0.26164698600769043,1.9112260341644287,0.6416977781376318,66.0,664.0,0.0
Y,R,"[6, 9]",1.0,5.0,0.37860703468322754,1.9533660411834717,0.5784801901474782,66.0,665.0,0.0
Y,R,"[6, 10]",1.0,6.0,0.2322399616241455,1.9297568798065186,0.7081601139662248,66.0,666.0,0.0
R,U,"[5, 10]",1.0,7.0,0.21346306800842285,1.8384690284729004,0.6299586623013123,66.0,667.0,0.0
R,U,"[4, 10]",1.0,8.0,0.19429802894592285,1.6200799942016602,0.4168068230957543,66.0,668.0,0.0
B,L,"[4, 9]",1.0,9.0,0.28067588806152344,1.9630110263824463,0.679573132894552,66.0,669.0,0.0
R,U,"[3, 9]",1.0,10.0,0.24004197120666504,1.7137541770935059,0.46017439676888355,66.0,670.0,0.0
,,"(6, 6)",,,,,,,,
R,U,"[5, 6]",1.0,1.0,0.33714795112609863,3.9421679973602295,0.5354904318475115,67.0,671.0,0.0
Y,R,"[5, 7]",1.0,2.0,0.26200294494628906,1.8911519050598145,0.6265067918417293,67.0,672.0,0.0
Y,R,"[5, 8]",1.0,3.0,0.28652000427246094,1.5505540370941162,0.27745941412326997,67.0,673.0,0.0
G,D,"[6, 8]",1.0,4.0,0.3644678592681885,1.944990873336792,0.5887743516059639,67.0,674.0,0.0
Y,R,"[6, 9]",1.0,5.0,0.212493896484375,1.5923969745635986,0.38131600216089095,67.0,675.0,0.0
Y,R,"[6, 10]",1.0,6.0,0.31252098083496094,1.9139370918273926,0.5948900835215492,67.0,676.0,0.0
R,U,"[5, 10]",1.0,7.0,0.2652599811553955,1.6234381198883057,0.368637139148003,67.0,677.0,0.0
R,U,"[4, 10]",1.0,8.0,0.2923588752746582,1.9898200035095215,0.6914341927144904,67.0,678.0,0.0
B,L,"[4, 9]",1.0,9.0,0.27183103561401367,1.84273099899292,0.5674704896020837,67.0,679.0,0.0
R,U,"[3, 9]",1.0,10.0,0.28476691246032715,1.9493920803070068,0.6668242829920019,67.0,680.0,0.0
,,"(6, 6)",,,,,,,,
R,U,"[5, 6]",1.0,1.0,0.21403288841247559,2.390174150466919,0.4071817566998306,68.0,681.0,0.0
Y,R,"[5, 7]",1.0,2.0,0.34839892387390137,1.6888301372528076,0.34602573246507523,68.0,682.0,0.0
Y,R,"[5, 8]",1.0,3.0,0.31943702697753906,2.047657012939453,0.7265607312883027,68.0,683.0,0.0
G,D,"[6, 8]",1.0,4.0,0.21499991416931152,1.8986940383911133,0.6919050314336663,68.0,684.0,0.0
Y,R,"[6, 9]",1.0,5.0,0.2310950756072998,1.7837679386138916,0.5590958904280672,68.0,685.0,0.0
Y,R,"[6, 10]",1.0,6.0,0.4446530342102051,2.160511016845703,0.719842724649743,68.0,686.0,0.0
R,U,"[5, 10]",1.0,7.0,0.23833918571472168,1.9747300148010254,0.7275272586163531,68.0,687.0,0.0
R,U,"[4, 10]",1.0,8.0,0.3135380744934082,1.653507947921753,0.347976904227868,68.0,688.0,0.0
B,L,"[4, 9]",1.0,9.0,0.29561400413513184,1.5522630214691162,0.25035346425138316,68.0,689.0,0.0
R,U,"[3, 9]",1.0,10.0,0.6266770362854004,2.246762990951538,0.6133180967430154,68.0,690.0,0.0
,,"(6, 6)",,,,,,,,
R,U,"[5, 6]",1.0,1.0,0.26544713973999023,1.9534690380096436,0.26716888110153486,69.0,691.0,0.0
Y,R,"[5, 7]",1.0,2.0,0.4057319164276123,2.0265889167785645,0.6099594657577263,69.0,692.0,0.0
G,D,"[6, 7]",0.0,2.0,0.20795702934265137,1.9066212177276611,0.6998603060434192,69.0,693.0,0.0
G,D,"[7, 7]",0.0,2.0,0.25321006774902344,1.8361871242523193,0.5861323911571437,69.0,694.0,0.0
Y,R,"[7, 8]",0.0,2.0,0.29095911979675293,2.0381009578704834,0.7409153102777291,69.0,695.0,0.0
Y,R,"[7, 9]",0.0,2.0,0.22495603561401367,1.5682690143585205,0.35934844888425765,69.0,696.0,0.0
R,U,"[6, 9]",1.0,3.0,0.30184102058410645,2.0292131900787354,0.7379793468793747,69.0,697.0,0.0
R,U,"[5, 9]",0.0,3.0,0.1185309886932373,1.758202075958252,0.6463725119227655,69.0,698.0,0.0
B,L,"[5, 8]",1.0,4.0,0.2510199546813965,1.5403170585632324,0.28689964124318496,69.0,699.0,0.0
R,U,"[4, 8]",0.0,4.0,0.24053001403808594,1.5753560066223145,0.32890075549411785,69.0,700.0,0.0
,,"(6, 6)",,,,,,,,
R,U,"[5, 6]",1.0,1.0,0.12697792053222656,3.2946300506591797,0.556625315110328,70.0,701.0,0.0
Y,R,"[5, 7]",1.0,2.0,0.34613800048828125,2.0601179599761963,0.716560639461006,70.0,702.0,0.0
Y,R,"[5, 8]",1.0,3.0,0.11263704299926758,1.524656057357788,0.4081541115354136,70.0,703.0,0.0
G,D,"[6, 8]",1.0,4.0,0.19540691375732422,1.7624242305755615,0.5706215158987076,70.0,704.0,0.0
Y,R,"[6, 9]",1.0,5.0,0.4928421974182129,1.8563590049743652,0.3602478362673909,70.0,705.0,0.0
Y,R,"[6, 10]",1.0,6.0,0.43380284309387207,1.7998631000518799,0.3767953720208577,70.0,706.0,0.0
R,U,"[5, 10]",1.0,7.0,0.4627690315246582,1.9558501243591309,0.49908670713871145,70.0,707.0,0.0
R,U,"[4, 10]",1.0,8.0,0.31000208854675293,1.9408040046691895,0.6230436187298012,70.0,708.0,0.0
B,L,"[4, 9]",1.0,9.0,0.4267089366912842,1.9112379550933838,0.48441972521317955,70.0,709.0,0.0
R,U,"[3, 9]",1.0,10.0,0.28006696701049805,2.0313849449157715,0.7487205865799413,70.0,710.0,0.0
,,"(6, 6)",,,,,,,,
R,U,"[5, 6]",1.0,1.0,0.4931149482727051,3.498915910720825,0.2981426639698277,71.0,711.0,0.0
Y,R,"[5, 7]",1.0,2.0,0.6226699352264404,1.948880910873413,0.31356850806115216,71.0,712.0,0.0
Y,R,"[5, 8]",1.0,3.0,0.4557068347930908,1.8142359256744385,0.3444434674400584,71.0,713.0,0.0
G,D,"[6, 8]",1.0,4.0,0.4106898307800293,2.147820234298706,0.741862748836172,71.0,714.0,0.0
Y,R,"[6, 9]",1.0,5.0,0.31194496154785156,1.6498899459838867,0.34198619256956847,71.0,715.0,0.0
Y,R,"[6, 10]",1.0,6.0,0.5116350650787354,2.0478200912475586,0.5396056227123962,71.0,716.0,0.0
R,U,"[5, 10]",1.0,7.0,0.4559750556945801,2.062899112701416,0.6024836204233592,71.0,717.0,0.0
R,U,"[4, 10]",1.0,8.0,0.4389350414276123,1.8102900981903076,0.3629989273483988,71.0,718.0,0.0
B,L,"[4, 9]",1.0,9.0,0.515268087387085,2.0378501415252686,0.5172847826859663,71.0,719.0,0.0
R,U,"[3, 9]",1.0,10.0,0.5469629764556885,2.0171051025390625,0.4677190777250723,71.0,720.0,0.0
,,"(6, 6)",,,,,,,,
R,U,"[5, 6]",1.0,1.0,0.597365140914917,5.615276098251343,0.6493773439969366,72.0,721.0,0.0
Y,R,"[5, 7]",1.0,2.0,0.5025269985198975,2.138396978378296,0.6379215916274034,72.0,722.0,0.0
Y,R,"[5, 8]",1.0,3.0,0.45087099075317383,2.102936029434204,0.6572297532247571,72.0,723.0,0.0
G,D,"[6, 8]",1.0,4.0,0.40021610260009766,1.9409270286560059,0.5482473397315186,72.0,724.0,0.0
Y,R,"[6, 9]",1.0,5.0,0.4251680374145508,1.763077974319458,0.3281073889967069,72.0,725.0,0.0
Y,R,"[6, 10]",1.0,6.0,0.5551819801330566,1.7894651889801025,0.2509964280819815,72.0,726.0,0.0
R,U,"[5, 10]",1.0,7.0,0.6471688747406006,2.001779079437256,0.35266110267280254,72.0,727.0,0.0
R,U,"[4, 10]",1.0,8.0,0.7682831287384033,2.3468570709228516,0.582613986311378,72.0,728.0,0.0
B,L,"[4, 9]",1.0,9.0,0.41918301582336426,2.1447150707244873,0.7271394571907674,72.0,729.0,0.0
R,U,"[3, 9]",1.0,10.0,0.4527928829193115,2.174393892288208,0.7348159988450578,72.0,730.0,0.0
,,"(6, 6)",,,,,,,,
R,U,"[5, 6]",1.0,1.0,0.22137188911437988,3.108980178833008,0.6770318850806316,73.0,731.0,0.0
Y,R,"[5, 7]",1.0,2.0,0.30532002449035645,1.7064549922943115,0.4170091170480712,73.0,732.0,0.0
G,D,"[6, 7]",0.0,2.0,0.2659571170806885,1.9180808067321777,0.6515704584478308,73.0,733.0,0.0
Y,R,"[6, 8]",1.0,3.0,0.31206297874450684,1.8803529739379883,0.5653063425522793,73.0,734.0,0.0
Y,R,"[6, 9]",1.0,4.0,0.1846940517425537,1.5745317935943604,0.39001335545287735,73.0,735.0,0.0
R,U,"[5, 9]",0.0,4.0,0.24096894264221191,1.9621400833129883,0.7183183130705202,73.0,736.0,0.0
R,U,"[4, 9]",1.0,5.0,0.13481998443603516,1.7200381755828857,0.5884585367105322,73.0,737.0,0.0
B,L,"[4, 8]",0.0,5.0,0.2627270221710205,1.8849070072174072,0.623442997455864,73.0,738.0,0.0
R,U,"[3, 8]",0.0,5.0,0.16930699348449707,1.8603761196136475,0.7004677151273957,73.0,739.0,0.0
R,U,"[2, 8]",0.0,5.0,0.2856709957122803,1.6373710632324219,0.3547014438970822,73.0,740.0,0.0
,,"(6, 6)",,,,,,,,
R,U,"[5, 6]",1.0,1.0,0.1171879768371582,11.214619874954224,0.3856928885766567,74.0,741.0,0.0
Y,R,"[5, 7]",1.0,2.0,0.42154693603515625,2.125339984893799,0.7106807273958015,74.0,742.0,0.0
Y,R,"[5, 8]",1.0,3.0,0.21393990516662598,1.663149118423462,0.45741334791282806,74.0,743.0,0.0
G,D,"[6, 8]",1.0,4.0,0.2731819152832031,1.5715949535369873,0.2957320628597135,74.0,744.0,0.0
Y,R,"[6, 9]",1.0,5.0,0.2518608570098877,1.7446458339691162,0.49022988674191853,74.0,745.0,0.0
Y,R,"[6, 10]",1.0,6.0,0.24048590660095215,1.9784469604492188,0.7350377427941549,74.0,746.0,0.0
R,U,"[5, 10]",1.0,7.0,0.20517802238464355,1.822732925415039,0.6078236209958641,74.0,747.0,0.0
R,U,"[4, 10]",1.0,8.0,0.3234372138977051,1.9114711284637451,0.5860020521339574,74.0,748.0,0.0
B,L,"[4, 9]",1.0,9.0,0.24783086776733398,1.7046198844909668,0.4573434404658052,74.0,749.0,0.0
R,U,"[3, 9]",1.0,10.0,0.21187806129455566,1.4772968292236328,0.26807627096230213,74.0,750.0,0.0
,,"(6, 6)",,,,,,,,
R,U,"[5, 6]",1.0,1.0,0.16959500312805176,6.405920028686523,0.4237360952245306,75.0,751.0,0.0
Y,R,"[5, 7]",1.0,2.0,0.2983720302581787,1.9174151420593262,0.624349328858296,75.0,752.0,0.0
Y,R,"[5, 8]",1.0,3.0,0.27970004081726074,1.7610809803009033,0.4855086905447325,75.0,753.0,0.0
G,D,"[6, 8]",1.0,4.0,0.2749779224395752,1.6200900077819824,0.33902870717076283,75.0,754.0,0.0
Y,R,"[6, 9]",1.0,5.0,0.7063601016998291,2.1512551307678223,0.440145332301442,75.0,755.0,0.0
Y,R,"[6, 10]",1.0,6.0,0.23233795166015625,1.4839859008789062,0.2575692680304359,75.0,756.0,0.0
R,U,"[5, 10]",1.0,7.0,0.5110180377960205,1.8311429023742676,0.3219473088419147,75.0,757.0,0.0
R,U,"[4, 10]",1.0,8.0,0.19960403442382812,1.7625470161437988,0.5676304330425078,75.0,758.0,0.0
B,L,"[4, 9]",1.0,9.0,0.30698204040527344,1.8627378940582275,0.5469418013359577,75.0,759.0,0.0
R,U,"[3, 9]",-1.0,9.0,0.06304383277893066,5.529172897338867,0.37621866760601713,75.0,760.0,0.0
,,"(6, 6)",,,,,,,,
R,U,"[5, 6]",1.0,1.0,0.2867000102996826,3.9242939949035645,0.2838101527771668,76.0,761.0,0.0
Y,R,"[5, 7]",1.0,2.0,0.20415496826171875,1.6742808818817139,0.47453242245504584,76.0,762.0,0.0
Y,R,"[5, 8]",1.0,3.0,0.22109508514404297,1.682020902633667,0.4731528568812018,76.0,763.0,0.0
G,D,"[6, 8]",1.0,4.0,0.28656888008117676,1.932708978652954,0.655785896755406,76.0,764.0,0.0
Y,R,"[6, 9]",1.0,5.0,0.24482393264770508,1.5438010692596436,0.29988714401740396,76.0,765.0,0.0
Y,R,"[6, 10]",1.0,6.0,0.28885984420776367,1.6190149784088135,0.318766769289878,76.0,766.0,0.0
R,U,"[5, 10]",1.0,7.0,0.27419614791870117,1.7228279113769531,0.4415200280271134,76.0,767.0,0.0
R,U,"[4, 10]",1.0,8.0,0.2376711368560791,1.9115619659423828,0.6694433683224902,76.0,768.0,0.0
B,L,"[4, 9]",1.0,9.0,0.25282716751098633,1.7972071170806885,0.5503192847151193,76.0,769.0,0.0
R,U,"[3, 9]",1.0,10.0,0.25779008865356445,1.7794561386108398,0.5128658401116226,76.0,770.0,0.0
,,"(6, 6)",,,,,,,,
R,U,"[5, 6]",1.0,1.0,0.4607090950012207,2.5384631156921387,0.667833439705404,77.0,771.0,0.0
Y,R,"[5, 7]",1.0,2.0,0.20554399490356445,1.8512470722198486,0.6523569592125268,77.0,772.0,0.0
Y,R,"[5, 8]",1.0,3.0,0.2190690040588379,1.8469769954681396,0.6327372242043747,77.0,773.0,0.0
G,D,"[6, 8]",1.0,4.0,0.2321147918701172,1.9656741619110107,0.7314529543228223,77.0,774.0,0.0
Y,R,"[6, 9]",1.0,5.0,0.3223381042480469,1.6196601390838623,0.28495011890966104,77.0,775.0,0.0
Y,R,"[6, 10]",1.0,6.0,0.38819098472595215,2.10829496383667,0.72605626614922,77.0,776.0,0.0
R,U,"[5, 10]",1.0,7.0,0.2169480323791504,1.5158209800720215,0.3088803879560596,77.0,777.0,0.0
R,U,"[4, 10]",1.0,8.0,0.3280370235443115,1.984046220779419,0.6592686116777101,77.0,778.0,0.0
B,L,"[4, 9]",1.0,9.0,0.2639479637145996,1.6615409851074219,0.40437471148238235,77.0,779.0,0.0
R,U,"[3, 9]",1.0,10.0,0.3009629249572754,1.823533058166504,0.5277794821758264,77.0,780.0,0.0
,,"(6, 6)",,,,,,,,
R,U,"[5, 6]",1.0,1.0,0.30523204803466797,1.9865050315856934,0.34776324834572336,78.0,781.0,0.0
Y,R,"[5, 7]",1.0,2.0,0.3148329257965088,1.6028039455413818,0.2838937620256822,78.0,782.0,0.0
Y,R,"[5, 8]",1.0,3.0,0.29630613327026367,1.6218841075897217,0.3223007460424253,78.0,783.0,0.0
G,D,"[6, 8]",1.0,4.0,0.4415860176086426,1.970829963684082,0.5262180227903541,78.0,784.0,0.0
Y,R,"[6, 9]",1.0,5.0,0.42534685134887695,2.1354589462280273,0.7115745546168328,78.0,785.0,0.0
Y,R,"[6, 10]",1.0,6.0,0.29138779640197754,1.63639497756958,0.34827766595721676,78.0,786.0,0.0
R,U,"[5, 10]",1.0,7.0,0.9035930633544922,2.486618995666504,0.5846034294315219,78.0,787.0,0.0
R,U,"[4, 10]",1.0,8.0,0.16323184967041016,1.7136650085449219,0.5482232818800221,78.0,788.0,0.0
R,U,"[3, 10]",0.0,8.0,0.5126190185546875,2.0734620094299316,0.5550980110796715,78.0,789.0,0.0
R,U,"[2, 10]",0.0,8.0,0.22290897369384766,1.9268639087677002,0.6985312733932811,78.0,790.0,0.0
,,"(6, 6)",,,,,,,,
R,U,"[5, 6]",1.0,1.0,0.17154502868652344,5.389811992645264,0.30503655123074547,79.0,791.0,0.0
Y,R,"[5, 7]",1.0,2.0,0.35860419273376465,1.635936975479126,0.27446167132131705,79.0,792.0,0.0
Y,R,"[5, 8]",1.0,3.0,0.7759439945220947,2.1769440174102783,0.4011925236747826,79.0,793.0,0.0
G,D,"[6, 8]",1.0,4.0,0.44346094131469727,2.030062198638916,0.5809104873144395,79.0,794.0,0.0
Y,R,"[6, 9]",1.0,5.0,0.25806403160095215,1.5603160858154297,0.29150927771399576,79.0,795.0,0.0
Y,R,"[6, 10]",1.0,6.0,0.29706406593322754,1.6269841194152832,0.3351713585775054,79.0,796.0,0.0
R,U,"[5, 10]",1.0,7.0,0.2857649326324463,1.7169499397277832,0.43521863191119464,79.0,797.0,0.0
B,L,"[5, 9]",0.0,7.0,0.4363679885864258,1.691162109375,0.2599882344863809,79.0,798.0,0.0
B,L,"[5, 8]",0.0,7.0,0.334989070892334,1.8425641059875488,0.5189116518859078,79.0,799.0,0.0
R,U,"[4, 8]",0.0,7.0,0.23087191581726074,1.5362350940704346,0.3053114166198682,79.0,800.0,0.0
,,"(6, 6)",,,,,,,,
R,U,"[5, 6]",1.0,1.0,0.3427739143371582,3.4909839630126953,0.6125749750823724,80.0,801.0,0.0
Y,R,"[5, 7]",1.0,2.0,0.29035401344299316,1.776684045791626,0.47270434345194384,80.0,802.0,0.0
G,D,"[6, 7]",0.0,2.0,0.22568893432617188,1.8534300327301025,0.6258262938692506,80.0,803.0,0.0
Y,R,"[6, 8]",1.0,3.0,0.23570990562438965,1.5809290409088135,0.35699726494651024,80.0,804.0,0.0
G,D,"[7, 8]",0.0,3.0,0.2826409339904785,1.5409739017486572,0.26481685943010724,80.0,805.0,0.0
Y,R,"[7, 9]",-2.0,3.0,1.0613048076629639,2.400725841522217,0.3653546647206194,80.0,806.0,0.0
Y,R,"[7, 10]",0.0,3.0,0.30266594886779785,1.5946738719940186,0.2934520638388302,80.0,807.0,0.0
Y,R,"[7, 11]",0.0,3.0,0.3179659843444824,1.5986640453338623,0.29205921921689654,80.0,808.0,0.0
Y,R,"[7, 10]",-3.0,3.0,0.3829820156097412,1.9871490001678467,0.6121872564054397,80.0,809.0,0.0
Y,R,"[7, 11]",0.0,3.0,0.3749270439147949,1.651648998260498,0.2641573723908372,80.0,810.0,0.0
,,"(6, 6)",,,,,,,,
R,U,"[5, 6]",1.0,1.0,0.2843139171600342,43.29815602302551,0.3946743606298409,81.0,811.0,0.0
Y,R,"[5, 7]",1.0,2.0,0.2033529281616211,1.474862813949585,0.28609635097357966,81.0,812.0,0.0
Y,R,"[5, 8]",1.0,3.0,0.360943078994751,1.6425559520721436,0.27879389822195494,81.0,813.0,0.0
G,D,"[6, 8]",1.0,4.0,0.2334609031677246,1.933243989944458,0.7115834815219706,81.0,814.0,0.0
Y,R,"[6, 9]",1.0,5.0,0.20892786979675293,1.5806870460510254,0.3758600768297543,81.0,815.0,0.0
Y,R,"[6, 10]",1.0,6.0,0.37714195251464844,1.9778828620910645,0.6035099150782552,81.0,816.0,0.0
R,U,"[5, 10]",1.0,7.0,0.23977088928222656,1.8647689819335938,0.6181745049247138,81.0,817.0,0.0
R,U,"[4, 10]",1.0,8.0,0.23992300033569336,1.736236810684204,0.4878705016307695,81.0,818.0,0.0
B,L,"[4, 9]",1.0,9.0,0.23561406135559082,1.4897310733795166,0.26101565436364366,81.0,819.0,0.0
R,U,"[3, 9]",1.0,10.0,0.2591979503631592,1.80326509475708,0.5475117267405831,81.0,820.0,0.0
,,"(6, 6)",,,,,,,,
R,U,"[5, 6]",1.0,1.0,0.5577459335327148,2.3919930458068848,0.5560588457730513,82.0,821.0,0.0
Y,R,"[5, 7]",1.0,2.0,0.1412210464477539,1.4582300186157227,0.31451701404384946,82.0,822.0,0.0
Y,R,"[5, 8]",1.0,3.0,0.25646305084228516,1.8906528949737549,0.6216104597751541,82.0,823.0,0.0
G,D,"[6, 8]",1.0,4.0,0.26346611976623535,1.9556128978729248,0.6935661266287565,82.0,824.0,0.0
Y,R,"[6, 9]",1.0,5.0,0.23720788955688477,1.89872407913208,0.6590193030121094,82.0,825.0,0.0
Y,R,"[6, 10]",1.0,6.0,0.2291409969329834,1.8017182350158691,0.5773628931127652,82.0,826.0,0.0
R,U,"[5, 10]",1.0,7.0,0.27309703826904297,1.811007022857666,0.5384602729280334,82.0,827.0,0.0
R,U,"[4, 10]",1.0,8.0,0.24143719673156738,1.579740047454834,0.3350489293691663,82.0,828.0,0.0
B,L,"[4, 9]",1.0,9.0,0.3961200714111328,1.833786964416504,0.43531054031913585,82.0,829.0,0.0
R,U,"[3, 9]",1.0,10.0,0.27977490425109863,1.991487979888916,0.7097546518260647,82.0,830.0,0.0
,,"(6, 6)",,,,,,,,
R,U,"[5, 6]",1.0,1.0,0.18828892707824707,1.8476879596710205,0.4077245507750309,83.0,831.0,0.0
Y,R,"[5, 7]",1.0,2.0,0.2530510425567627,1.6208868026733398,0.37864348335877396,83.0,832.0,0.0
Y,R,"[5, 8]",1.0,3.0,0.27135491371154785,1.9031600952148438,0.6314591642662601,83.0,833.0,0.0
G,D,"[6, 8]",1.0,4.0,0.19704008102416992,1.780318021774292,0.5785989520611976,83.0,834.0,0.0
Y,R,"[6, 9]",-1.0,4.0,0.048403024673461914,5.578252792358398,0.45680204300789173,83.0,835.0,0.0
Y,R,"[6, 10]",1.0,5.0,0.22197794914245605,1.8450469970703125,0.6183475832673512,83.0,836.0,0.0
R,U,"[5, 10]",1.0,6.0,0.21735501289367676,1.9136412143707275,0.6990544878692408,83.0,837.0,0.0
R,U,"[4, 10]",1.0,7.0,0.21730995178222656,1.934257984161377,0.7160686183631025,83.0,838.0,0.0
B,L,"[4, 9]",1.0,8.0,0.20897698402404785,1.5524828433990479,0.33563175707421555,83.0,839.0,0.0
R,U,"[3, 9]",1.0,9.0,0.3352069854736328,1.93448805809021,0.6031099219482039,83.0,840.0,0.0
,,"(6, 6)",,,,,,,,
R,U,"[5, 6]",1.0,1.0,0.20851802825927734,2.9379100799560547,0.5575493849899845,84.0,841.0,0.0
Y,R,"[5, 7]",1.0,2.0,0.2502560615539551,1.6628451347351074,0.42051460593942785,84.0,842.0,0.0
Y,R,"[5, 8]",1.0,3.0,0.29764294624328613,1.7803030014038086,0.48420147805513203,84.0,843.0,0.0
G,D,"[6, 8]",1.0,4.0,0.242279052734375,1.6835308074951172,0.43429797196637593,84.0,844.0,0.0
Y,R,"[6, 9]",1.0,5.0,0.23009014129638672,1.9287071228027344,0.6960337448091838,84.0,845.0,0.0
Y,R,"[6, 10]",1.0,6.0,0.22968602180480957,1.6698229312896729,0.4328655455864592,84.0,846.0,0.0
R,U,"[5, 10]",1.0,7.0,0.2748379707336426,1.9354710578918457,0.6513831763122659,84.0,847.0,0.0
R,U,"[4, 10]",1.0,8.0,0.21852493286132812,1.484447956085205,0.2695736489620052,84.0,848.0,0.0
B,L,"[4, 9]",1.0,9.0,0.3531968593597412,1.7628669738769531,0.4155809646508939,84.0,849.0,0.0
R,U,"[3, 9]",1.0,10.0,0.27292609214782715,1.6480021476745605,0.3634789833215089,84.0,850.0,0.0
,,"(6, 6)",,,,,,,,
R,U,"[5, 6]",1.0,1.0,0.401655912399292,2.064277172088623,0.2612676447346061,85.0,851.0,0.0
Y,R,"[5, 7]",1.0,2.0,0.27246880531311035,1.588521957397461,0.31633831085274844,85.0,852.0,0.0
Y,R,"[5, 8]",1.0,3.0,0.22539401054382324,1.5834879875183105,0.34978268957699304,85.0,853.0,0.0
G,D,"[6, 8]",1.0,4.0,0.24134206771850586,1.905339002609253,0.6548046297845237,85.0,854.0,0.0
Y,R,"[6, 9]",1.0,5.0,0.1961660385131836,1.5758299827575684,0.380765745949393,85.0,855.0,0.0
Y,R,"[6, 10]",1.0,6.0,0.2107241153717041,1.796037197113037,0.5766478605140423,85.0,856.0,0.0
R,U,"[5, 10]",1.0,7.0,0.2154369354248047,1.8992400169372559,0.6922644056129283,85.0,857.0,0.0
R,U,"[4, 10]",1.0,8.0,0.18737292289733887,1.4804959297180176,0.30659059441332415,85.0,858.0,0.0
B,L,"[4, 9]",1.0,9.0,0.27904605865478516,1.6315231323242188,0.3546571669042871,85.0,859.0,0.0
R,U,"[3, 9]",1.0,10.0,0.3215360641479492,1.8954031467437744,0.5665598578825488,85.0,860.0,0.0
,,"(6, 6)",,,,,,,,
R,U,"[5, 6]",-1.0,0.0,0.09160804748535156,6.058562994003296,0.5249882571899523,86.0,861.0,0.0
Y,R,"[5, 7]",1.0,1.0,0.24160385131835938,1.9078989028930664,0.6660935453374774,86.0,862.0,0.0
Y,R,"[5, 8]",1.0,2.0,0.1899259090423584,1.770749807357788,0.5868574471884661,86.0,863.0,0.0
G,D,"[6, 8]",1.0,3.0,0.24129390716552734,1.5844230651855469,0.33808088155113764,86.0,864.0,0.0
Y,R,"[6, 9]",1.0,4.0,0.28376293182373047,1.7121751308441162,0.43359226523830113,86.0,865.0,0.0
Y,R,"[6, 10]",1.0,5.0,0.2633631229400635,1.751655101776123,0.4850086622732201,86.0,866.0,0.0
R,U,"[5, 10]",1.0,6.0,0.21624302864074707,1.937309980392456,0.7220584122330211,86.0,867.0,0.0
R,U,"[4, 10]",1.0,7.0,0.19393181800842285,1.6434547901153564,0.4492296317305261,86.0,868.0,0.0
B,L,"[4, 9]",1.0,8.0,0.2379469871520996,1.7221589088439941,0.48794419666655603,86.0,869.0,0.0
R,U,"[3, 9]",1.0,9.0,0.22897815704345703,1.6885409355163574,0.4598358115123774,86.0,870.0,0.0
,,"(6, 6)",,,,,,,,
R,U,"[5, 6]",1.0,1.0,0.5855429172515869,2.479369878768921,0.5556714699521008,87.0,871.0,0.0
Y,R,"[5, 7]",1.0,2.0,0.28653907775878906,1.5738580226898193,0.2963588229686338,87.0,872.0,0.0
Y,R,"[5, 8]",1.0,3.0,0.43418407440185547,1.9310290813446045,0.4938878611389767,87.0,873.0,0.0
G,D,"[6, 8]",1.0,4.0,0.22147297859191895,1.805732011795044,0.5995665153728058,87.0,874.0,0.0
Y,R,"[6, 9]",1.0,5.0,0.20084905624389648,1.6431808471679688,0.44283661088569015,87.0,875.0,0.0
Y,R,"[6, 10]",1.0,6.0,0.3424999713897705,1.6268858909606934,0.2864570301206689,87.0,876.0,0.0
R,U,"[5, 10]",1.0,7.0,0.43619203567504883,2.126673936843872,0.696020195414156,87.0,877.0,0.0
R,U,"[4, 10]",1.0,8.0,0.30521607398986816,1.7876248359680176,0.48386256723242693,87.0,878.0,0.0
B,L,"[4, 9]",1.0,9.0,0.31143712997436523,1.6169989109039307,0.3009392225385771,87.0,879.0,0.0
R,U,"[3, 9]",1.0,10.0,0.3267781734466553,2.0582900047302246,0.725539525431941,87.0,880.0,0.0
,,"(6, 6)",,,,,,,,
R,U,"[5, 6]",1.0,1.0,0.12197685241699219,1.8023099899291992,0.39478694715806056,88.0,881.0,0.0
Y,R,"[5, 7]",1.0,2.0,0.3137071132659912,1.8481030464172363,0.5427468347866702,88.0,882.0,0.0
Y,R,"[5, 8]",1.0,3.0,0.26082682609558105,1.7783849239349365,0.5209593863869304,88.0,883.0,0.0
G,D,"[6, 8]",1.0,4.0,0.15236401557922363,1.5647640228271484,0.41921643382733187,88.0,884.0,0.0
Y,R,"[6, 9]",1.0,5.0,0.2257080078125,1.624377965927124,0.3936080995031014,88.0,885.0,0.0
Y,R,"[6, 10]",1.0,6.0,0.23696422576904297,1.753316879272461,0.5300890260129916,88.0,886.0,0.0
R,U,"[5, 10]",1.0,7.0,0.2583630084991455,1.5382349491119385,0.2685661692363686,88.0,887.0,0.0
R,U,"[4, 10]",1.0,8.0,0.3090481758117676,1.6494879722595215,0.33460280717205465,88.0,888.0,0.0
B,L,"[4, 9]",1.0,9.0,0.33408093452453613,1.8115389347076416,0.47929701294143556,88.0,889.0,0.0
R,U,"[3, 9]",1.0,10.0,0.2613401412963867,1.619032859802246,0.3484066584650054,88.0,890.0,0.0
,,"(6, 6)",,,,,,,,
R,U,"[5, 6]",1.0,1.0,0.10882902145385742,2.0465738773345947,0.5946452740488154,89.0,891.0,0.0
Y,R,"[5, 7]",1.0,2.0,0.2042829990386963,1.8048970699310303,0.6162734235380336,89.0,892.0,0.0
Y,R,"[5, 8]",1.0,3.0,0.16015005111694336,1.7703039646148682,0.6197316607383648,89.0,893.0,0.0
G,D,"[6, 8]",1.0,4.0,0.29296278953552246,1.8747868537902832,0.5779449851719825,89.0,894.0,0.0
Y,R,"[6, 9]",1.0,5.0,0.24224114418029785,1.5518159866333008,0.31328867333443094,89.0,895.0,0.0
Y,R,"[6, 10]",1.0,6.0,0.3465700149536133,1.7852120399475098,0.43166537811288547,89.0,896.0,0.0
R,U,"[5, 10]",1.0,7.0,0.26625990867614746,1.7269420623779297,0.45860073280197444,89.0,897.0,0.0
R,U,"[4, 10]",1.0,8.0,0.3045780658721924,2.0238780975341797,0.7159429831052098,89.0,898.0,0.0
B,L,"[4, 9]",1.0,9.0,0.23324799537658691,1.795262098312378,0.5609120552510362,89.0,899.0,0.0
R,U,"[3, 9]",1.0,10.0,0.30486392974853516,1.9302430152893066,0.6410173214348025,89.0,900.0,0.0
,,"(6, 6)",,,,,,,,
R,U,"[5, 6]",1.0,1.0,0.302609920501709,2.2423160076141357,0.3336391133448438,90.0,901.0,0.0
Y,R,"[5, 7]",1.0,2.0,0.35553789138793945,2.0261738300323486,0.6594577161887843,90.0,902.0,0.0
Y,R,"[5, 8]",1.0,3.0,0.23890995979309082,1.5613558292388916,0.3211357288894823,90.0,903.0,0.0
G,D,"[6, 8]",1.0,4.0,0.27618408203125,1.9704868793487549,0.6911220331475523,90.0,904.0,0.0
Y,R,"[6, 9]",-1.0,4.0,0.008984088897705078,5.782932996749878,0.7239470870510114,90.0,905.0,0.0
Y,R,"[6, 10]",1.0,5.0,0.2711360454559326,1.9433231353759766,0.6838303733320485,90.0,906.0,0.0
Y,R,"[6, 11]",0.0,5.0,0.4782137870788574,1.8591132164001465,0.3766390639431642,90.0,907.0,0.0
R,U,"[5, 11]",0.0,5.0,0.3510630130767822,1.8412151336669922,0.5010821896665112,90.0,908.0,0.0
R,U,"[4, 11]",0.0,5.0,0.11662411689758301,1.821160078048706,0.7052165869785583,90.0,909.0,0.0
B,L,"[4, 10]",-1.0,5.0,0.027842998504638672,5.817607164382935,0.739402406142022,90.0,910.0,0.0
,,"(6, 6)",,,,,,,,
R,U,"[5, 6]",1.0,1.0,0.21527409553527832,3.095242977142334,0.3682285627553969,91.0,911.0,0.0
Y,R,"[5, 7]",1.0,2.0,0.23293590545654297,1.7678558826446533,0.5359239999487793,91.0,912.0,0.0
Y,R,"[5, 8]",1.0,3.0,0.21496796607971191,1.8104779720306396,0.5964248227854887,91.0,913.0,0.0
G,D,"[6, 8]",1.0,4.0,0.2448258399963379,1.815190076828003,0.5615524218399841,91.0,914.0,0.0
Y,R,"[6, 9]",1.0,5.0,0.37428903579711914,1.8625400066375732,0.49071821573890556,91.0,915.0,0.0
Y,R,"[6, 10]",1.0,6.0,0.2915961742401123,1.9777960777282715,0.685046818439359,91.0,916.0,0.0
R,U,"[5, 10]",1.0,7.0,0.29823803901672363,1.6101970672607422,0.3122808052898094,91.0,917.0,0.0
R,U,"[4, 10]",1.0,8.0,0.44551992416381836,1.96579909324646,0.5111741381770869,91.0,918.0,0.0
B,L,"[4, 9]",1.0,9.0,0.3035709857940674,1.9500160217285156,0.6608867517890165,91.0,919.0,0.0
R,U,"[3, 9]",1.0,10.0,0.4018378257751465,2.0134289264678955,0.6244495253946893,91.0,920.0,0.0
,,"(6, 6)",,,,,,,,
R,U,"[5, 6]",1.0,1.0,0.5424528121948242,4.940208911895752,0.46464243834676666,92.0,921.0,0.0
Y,R,"[5, 7]",1.0,2.0,0.4588320255279541,2.143419027328491,0.6745310934973552,92.0,922.0,0.0
Y,R,"[5, 8]",1.0,3.0,0.31245899200439453,1.7550349235534668,0.4464029075381195,92.0,923.0,0.0
G,D,"[6, 8]",1.0,4.0,0.4218630790710449,1.7131690979003906,0.2930408308407412,92.0,924.0,0.0
Y,R,"[6, 9]",1.0,5.0,0.4527928829193115,1.8769731521606445,0.4365054361417587,92.0,925.0,0.0
Y,R,"[6, 10]",1.0,6.0,0.44849300384521484,1.882871150970459,0.43603040485829936,92.0,926.0,0.0
R,U,"[5, 10]",1.0,7.0,0.4361438751220703,1.7602019309997559,0.3296247393980926,92.0,927.0,0.0
R,U,"[4, 10]",1.0,8.0,0.46943211555480957,1.756946086883545,0.28659249761218725,92.0,928.0,0.0
B,L,"[4, 9]",1.0,9.0,0.6144468784332275,1.980992078781128,0.3674229958314924,92.0,929.0,0.0
R,U,"[3, 9]",1.0,10.0,0.558093786239624,2.205515146255493,0.6392813397663932,92.0,930.0,0.0
,,"(6, 6)",,,,,,,,
R,U,"[5, 6]",1.0,1.0,0.42200207710266113,4.253756999969482,0.44316391199811844,93.0,931.0,0.0
Y,R,"[5, 7]",1.0,2.0,0.46306705474853516,1.8926467895507812,0.4357951935479409,93.0,932.0,0.0
Y,R,"[5, 8]",1.0,3.0,0.46227002143859863,1.738426923751831,0.2743583883708524,93.0,933.0,0.0
G,D,"[6, 8]",1.0,4.0,0.6006860733032227,2.0430288314819336,0.4504032690995066,93.0,934.0,0.0
Y,R,"[6, 9]",1.0,5.0,0.41464900970458984,1.7387869358062744,0.3226549793156111,93.0,935.0,0.0
Y,R,"[6, 10]",1.0,6.0,0.5263779163360596,2.0413589477539062,0.5138149648256203,93.0,936.0,0.0
R,U,"[5, 10]",1.0,7.0,0.49834394454956055,1.856611967086792,0.353904286927551,93.0,937.0,0.0
R,U,"[4, 10]",1.0,8.0,0.8603520393371582,2.5438671112060547,0.6807251021670075,93.0,938.0,0.0
B,L,"[4, 9]",1.0,9.0,0.4683210849761963,1.723945140838623,0.25507750346581776,93.0,939.0,0.0
R,U,"[3, 9]",1.0,10.0,0.5288889408111572,2.1720211505889893,0.643363968046091,93.0,940.0,0.0
,,"(6, 6)",,,,,,,,
R,U,"[5, 6]",1.0,1.0,0.4676668643951416,5.720339059829712,0.563644940603693,94.0,941.0,0.0
Y,R,"[5, 7]",1.0,2.0,0.48257017135620117,2.194540023803711,0.7079021098468994,94.0,942.0,0.0
Y,R,"[5, 8]",1.0,3.0,0.4021589756011963,1.8407530784606934,0.4489663338060029,94.0,943.0,0.0
G,D,"[6, 8]",1.0,4.0,0.6162300109863281,1.992969036102295,0.3753494656744288,94.0,944.0,0.0
Y,R,"[6, 9]",1.0,5.0,0.6068398952484131,2.0596811771392822,0.4515608149969909,94.0,945.0,0.0
Y,R,"[6, 10]",1.0,6.0,0.49048900604248047,1.909986972808838,0.41154450966319,94.0,946.0,0.0
R,U,"[5, 10]",1.0,7.0,0.6451380252838135,1.9167308807373047,0.2783486147602455,94.0,947.0,0.0
R,U,"[4, 10]",1.0,8.0,0.6914680004119873,2.1889278888702393,0.5003874260934844,94.0,948.0,0.0
B,L,"[4, 9]",1.0,9.0,0.5364630222320557,1.8266499042510986,0.29374563503379225,94.0,949.0,0.0
R,U,"[3, 9]",1.0,10.0,0.628119945526123,2.3252968788146973,0.7019916102203168,94.0,950.0,0.0
,,"(6, 6)",,,,,,,,
R,U,"[5, 6]",1.0,1.0,0.36448001861572266,2.4477460384368896,0.599802262777353,95.0,951.0,0.0
Y,R,"[5, 7]",1.0,2.0,0.5733678340911865,2.123795986175537,0.5403053030869314,95.0,952.0,0.0
Y,R,"[5, 8]",1.0,3.0,0.5038199424743652,2.196213960647583,0.7028549570640579,95.0,953.0,0.0
G,D,"[6, 8]",1.0,4.0,0.4266519546508789,2.0752451419830322,0.6448316569535308,95.0,954.0,0.0
Y,R,"[6, 9]",1.0,5.0,0.44293904304504395,1.7364790439605713,0.29837154034527874,95.0,955.0,0.0
Y,R,"[6, 10]",1.0,6.0,0.6330180168151855,2.083599805831909,0.4483980157353383,95.0,956.0,0.0
R,U,"[5, 10]",1.0,7.0,0.5156490802764893,2.0734500885009766,0.5551046643626638,95.0,957.0,0.0
R,U,"[4, 10]",1.0,8.0,0.4629979133605957,1.9609320163726807,0.4993719613474788,95.0,958.0,0.0
B,L,"[4, 9]",1.0,9.0,0.4573171138763428,2.048534870147705,0.5810267350694116,95.0,959.0,0.0
R,U,"[3, 9]",1.0,10.0,0.5502719879150391,1.8171639442443848,0.26512389784400653,95.0,960.0,0.0
,,"(6, 6)",,,,,,,,
R,U,"[5, 6]",1.0,1.0,0.3354620933532715,4.786247968673706,0.45118104482393057,96.0,961.0,0.0
Y,R,"[5, 7]",1.0,2.0,0.5341691970825195,2.1617910861968994,0.6294872402344773,96.0,962.0,0.0
Y,R,"[5, 8]",1.0,3.0,0.502640962600708,1.790898084640503,0.28731473594060736,96.0,963.0,0.0
G,D,"[6, 8]",1.0,4.0,0.8142259120941162,2.083278179168701,0.2704367645513785,96.0,964.0,0.0
Y,R,"[6, 9]",1.0,5.0,0.6958801746368408,2.293660879135132,0.5971819262376947,96.0,965.0,0.0
Y,R,"[6, 10]",1.0,6.0,0.44984984397888184,1.8290469646453857,0.3764473248911215,96.0,966.0,0.0
R,U,"[5, 10]",1.0,7.0,0.6002349853515625,2.277971029281616,0.6874084901677162,96.0,967.0,0.0
R,U,"[4, 10]",1.0,8.0,0.3618001937866211,1.641200065612793,0.27889210011377474,96.0,968.0,0.0
B,L,"[4, 9]",1.0,9.0,0.5848581790924072,1.9406580924987793,0.35289241505591284,96.0,969.0,0.0
R,U,"[3, 9]",1.0,10.0,0.5884850025177002,2.3086531162261963,0.7277234113601541,96.0,970.0,0.0
,,"(6, 6)",,,,,,,,
R,U,"[5, 6]",1.0,1.0,0.5200409889221191,9.320738077163696,0.3819499089049207,97.0,971.0,0.0
Y,R,"[5, 7]",1.0,2.0,0.4330480098724365,1.9443039894104004,0.5093582950633194,97.0,972.0,0.0
Y,R,"[5, 8]",1.0,3.0,0.3596961498260498,1.7490689754486084,0.3919199265000824,97.0,973.0,0.0
G,D,"[6, 8]",1.0,4.0,0.5026700496673584,2.177367925643921,0.6856643547104975,97.0,974.0,0.0
Y,R,"[6, 9]",1.0,5.0,0.4727349281311035,1.862321138381958,0.3815500542221829,97.0,975.0,0.0
Y,R,"[6, 10]",1.0,6.0,0.5916950702667236,2.0621461868286133,0.4603200636890349,97.0,976.0,0.0
R,U,"[5, 10]",1.0,7.0,0.5356647968292236,1.7901489734649658,0.26705551681998596,97.0,977.0,0.0
R,U,"[4, 10]",1.0,8.0,0.5598211288452148,2.061152935028076,0.4947645594823227,97.0,978.0,0.0
B,L,"[4, 9]",1.0,9.0,0.5616099834442139,1.8072459697723389,0.25213199889704524,97.0,979.0,0.0
R,U,"[3, 9]",1.0,10.0,0.5815069675445557,2.0152270793914795,0.43394569891444346,97.0,980.0,0.0
,,"(6, 6)",,,,,,,,
R,U,"[5, 6]",1.0,1.0,0.28361988067626953,3.799586057662964,0.7331152512232211,98.0,981.0,0.0
Y,R,"[5, 7]",1.0,2.0,0.4682579040527344,1.810487985610962,0.34399109020539037,98.0,982.0,0.0
Y,R,"[5, 8]",1.0,3.0,0.5294318199157715,1.9765760898590088,0.45376020953299634,98.0,983.0,0.0
G,D,"[6, 8]",1.0,4.0,0.5589070320129395,1.8974909782409668,0.3346249936942829,98.0,984.0,0.0
Y,R,"[6, 9]",1.0,5.0,0.5439951419830322,1.9348270893096924,0.38604622794991406,98.0,985.0,0.0
Y,R,"[6, 10]",1.0,6.0,0.5795140266418457,1.9226808547973633,0.34204294498957083,98.0,986.0,0.0
R,U,"[5, 10]",1.0,7.0,0.4578709602355957,1.9458208084106445,0.48771921213909825,98.0,987.0,0.0
R,U,"[4, 10]",1.0,8.0,0.5567460060119629,2.0490479469299316,0.4866054183594737,98.0,988.0,0.0
B,L,"[4, 9]",1.0,9.0,0.5238370895385742,2.1000289916992188,0.569993724955629,98.0,989.0,0.0
R,U,"[3, 9]",1.0,10.0,0.5478968620300293,2.015388011932373,0.4686465581839991,98.0,990.0,0.0
,,"(6, 6)",,,,,,,,
R,U,"[5, 6]",1.0,1.0,0.2609381675720215,4.39149284362793,0.42672184275866015,99.0,991.0,0.0
Y,R,"[5, 7]",1.0,2.0,0.6870620250701904,2.187617063522339,0.5143535845181467,99.0,992.0,0.0
Y,R,"[5, 8]",1.0,3.0,0.4540290832519531,1.9102721214294434,0.45796144508626035,99.0,993.0,0.0
G,D,"[6, 8]",1.0,4.0,0.5101029872894287,1.9362108707427979,0.42753586438160013,99.0,994.0,0.0
Y,R,"[6, 9]",1.0,5.0,0.47955894470214844,2.196747064590454,0.7239293335623929,99.0,995.0,0.0
Y,R,"[6, 10]",1.0,6.0,0.45782899856567383,2.1971940994262695,0.737623103335795,99.0,996.0,0.0
R,U,"[5, 10]",1.0,7.0,0.5881810188293457,2.0609490871429443,0.46547394829402744,99.0,997.0,0.0
R,U,"[4, 10]",1.0,8.0,0.6647260189056396,1.962934970855713,0.2952985993623618,99.0,998.0,0.0
B,L,"[4, 9]",1.0,9.0,0.6223640441894531,1.9636080265045166,0.3421799780120187,99.0,999.0,0.0
R,U,"[3, 9]",1.0,10.0,0.5123770236968994,1.9511091709136963,0.4432563346673908,99.0,1000.0,0.0
