button_choice,action_choice,coordinate_choice,reward,cumulative_reward,rt,total_trial_time,iti,block_n,trial_n,trial_type
R,U,"[5, 6]",1.0,1.0,0.7495899200439453,2.450716972351074,0.6014083601360348,0.0,1.0,0.0
Y,R,"[5, 7]",1.0,2.0,0.3476221561431885,1.8931119441986084,0.444617759023579,0.0,2.0,0.0
Y,R,"[5, 8]",1.0,3.0,0.2104799747467041,1.8396220207214355,0.5342680671505071,0.0,3.0,0.0
G,D,"[6, 8]",1.0,4.0,0.2321469783782959,2.046052932739258,0.7135594267501044,0.0,4.0,0.0
Y,R,"[6, 9]",1.0,5.0,0.17942404747009277,1.940040111541748,0.6536597282795522,0.0,5.0,0.0
Y,R,"[6, 10]",1.0,6.0,0.14580512046813965,1.9369869232177734,0.6906273912132163,0.0,6.0,0.0
R,U,"[5, 10]",1.0,7.0,0.17995381355285645,1.822916030883789,0.5471180436416427,0.0,7.0,0.0
R,U,"[4, 10]",1.0,8.0,0.21457815170288086,1.8288750648498535,0.5092232116297705,0.0,8.0,0.0
B,L,"[4, 9]",1.0,9.0,0.29502296447753906,1.9505150318145752,0.5598731686870888,0.0,9.0,0.0
Y,R,"[4, 10]",0.0,9.0,0.7289891242980957,2.2453291416168213,0.42135452661266,0.0,10.0,0.0
,,"(6, 6)",,,,,,,,
R,U,"[5, 6]",1.0,1.0,0.49743008613586426,4.579851150512695,0.45189503319354085,1.0,11.0,0.0
Y,R,"[5, 7]",1.0,2.0,0.20507097244262695,1.5685579776763916,0.25389003463909054,1.0,12.0,0.0
Y,R,"[5, 8]",1.0,3.0,0.22495007514953613,1.7014899253845215,0.3720394383254215,1.0,13.0,0.0
G,D,"[6, 8]",1.0,4.0,0.21644020080566406,1.887040138244629,0.5756133043014644,1.0,14.0,0.0
Y,R,"[6, 9]",1.0,5.0,0.16814398765563965,1.7037758827209473,0.4462956959774661,1.0,15.0,0.0
Y,R,"[6, 10]",1.0,6.0,0.18290281295776367,1.8549878597259521,0.5677098203253832,1.0,16.0,0.0
R,U,"[5, 10]",1.0,7.0,0.15666794776916504,1.985630989074707,0.736521339042205,1.0,17.0,0.0
R,U,"[4, 10]",1.0,8.0,0.1500389575958252,1.9694960117340088,0.7227362584653153,1.0,18.0,0.0
B,L,"[4, 9]",1.0,9.0,0.28085899353027344,1.8201169967651367,0.4431255801294478,1.0,19.0,0.0
R,U,"[3, 9]",1.0,10.0,0.2232990264892578,1.693350076675415,0.36989880772647443,1.0,20.0,0.0
,,"(6, 6)",,,,,,,,
R,U,"[5, 6]",1.0,1.0,0.5878691673278809,4.663812875747681,0.6169533090755919,2.0,21.0,0.0
Y,R,"[5, 7]",1.0,2.0,0.1985940933227539,1.8848350048065186,0.5851745955658232,2.0,22.0,0.0
Y,R,"[5, 8]",1.0,3.0,0.1783909797668457,1.8195350170135498,0.5380610736287803,2.0,23.0,0.0
G,D,"[6, 8]",1.0,4.0,0.24607610702514648,1.8818819522857666,0.5366445123392378,2.0,24.0,0.0
Y,R,"[6, 9]",1.0,5.0,0.25629210472106934,1.9523069858551025,0.5889859901577438,2.0,25.0,0.0
Y,R,"[6, 10]",1.0,6.0,0.1657729148864746,1.6703438758850098,0.40947020733867906,2.0,26.0,0.0
G,D,"[7, 10]",0.0,6.0,0.2439110279083252,1.6355869770050049,0.29527489904517795,2.0,27.0,0.0
R,U,"[6, 10]",0.0,6.0,0.5208740234375,1.9625980854034424,0.3579115246771326,2.0,28.0,0.0
R,U,"[5, 10]",1.0,7.0,0.9321081638336182,2.4300591945648193,0.40451938158870004,2.0,29.0,0.0
B,L,"[5, 9]",0.0,7.0,0.3673880100250244,1.955854892730713,0.49364221710818484,2.0,30.0,0.0
,,"(6, 6)",,,,,,,,
R,U,"[5, 6]",1.0,1.0,0.4607579708099365,3.3848049640655518,0.2622235888825373,3.0,31.0,0.0
Y,R,"[5, 7]",1.0,2.0,0.3005979061126709,1.645941972732544,0.25791929974175326,3.0,32.0,0.0
Y,R,"[5, 8]",1.0,3.0,0.2847261428833008,1.9089138507843018,0.5334824201874788,3.0,33.0,0.0
G,D,"[6, 8]",1.0,4.0,0.20003104209899902,1.9695439338684082,0.6695696606127934,3.0,34.0,0.0
Y,R,"[6, 9]",1.0,5.0,0.16956520080566406,2.008971929550171,0.7451382821902054,3.0,35.0,0.0
Y,R,"[6, 10]",1.0,6.0,0.15643811225891113,1.6923489570617676,0.4377652077091704,3.0,36.0,0.0
R,U,"[5, 10]",1.0,7.0,0.2371368408203125,1.6087708473205566,0.263522614862211,3.0,37.0,0.0
R,U,"[4, 10]",1.0,8.0,0.5233199596405029,2.3172800540924072,0.6801932158753702,3.0,38.0,0.0
B,L,"[4, 9]",1.0,9.0,0.2133018970489502,1.7523488998413086,0.4329036933129993,3.0,39.0,0.0
R,U,"[3, 9]",1.0,10.0,0.28337597846984863,1.7032108306884766,0.3197085594692126,3.0,40.0,0.0
,,"(6, 6)",,,,,,,,
R,U,"[5, 6]",1.0,1.0,0.48831987380981445,2.812964916229248,0.3493718977614626,4.0,41.0,0.0
Y,R,"[5, 7]",1.0,2.0,0.2939770221710205,1.7758679389953613,0.3752996943331922,4.0,42.0,0.0
Y,R,"[5, 8]",1.0,3.0,0.24327588081359863,2.0014231204986572,0.659795406095256,4.0,43.0,0.0
G,D,"[6, 8]",1.0,4.0,0.19481301307678223,1.7108700275421143,0.42084818755434694,4.0,44.0,0.0
Y,R,"[6, 9]",1.0,5.0,0.28331995010375977,2.122464179992676,0.7429630202133348,4.0,45.0,0.0
Y,R,"[6, 10]",1.0,6.0,0.19925999641418457,1.6853549480438232,0.39550850772056445,4.0,46.0,0.0
R,U,"[5, 10]",1.0,7.0,0.3238260746002197,1.8224999904632568,0.40132977993001595,4.0,47.0,0.0
R,U,"[4, 10]",1.0,8.0,0.47670912742614746,2.1303820610046387,0.548107095861432,4.0,48.0,0.0
B,L,"[4, 9]",1.0,9.0,0.26236915588378906,1.724025011062622,0.3556691559238377,4.0,49.0,0.0
R,U,"[3, 9]",1.0,10.0,0.4848968982696533,2.274190902709961,0.6963563841303115,4.0,50.0,0.0
,,"(6, 6)",,,,,,,,
R,U,"[5, 6]",1.0,1.0,0.42685604095458984,2.5458450317382812,0.4423679842861739,5.0,51.0,0.0
Y,R,"[5, 7]",1.0,2.0,0.2334129810333252,1.7750599384307861,0.45076875481397605,5.0,52.0,0.0
Y,R,"[5, 8]",1.0,3.0,0.21749210357666016,1.6502530574798584,0.3345568766728359,5.0,53.0,0.0
G,D,"[6, 8]",1.0,4.0,0.27899599075317383,1.7603449821472168,0.37818384329003113,5.0,54.0,0.0
Y,R,"[6, 9]",1.0,5.0,0.26516294479370117,1.9490439891815186,0.5937170875383286,5.0,55.0,0.0
Y,R,"[6, 10]",1.0,6.0,0.16716790199279785,1.7877380847930908,0.5316442652707718,5.0,56.0,0.0
R,U,"[5, 10]",1.0,7.0,0.28917813301086426,1.6843860149383545,0.28294983263054513,5.0,57.0,0.0
B,L,"[5, 9]",0.0,7.0,0.9160439968109131,2.5246708393096924,0.5074039705649949,5.0,58.0,0.0
R,U,"[4, 9]",1.0,8.0,0.6472721099853516,2.4422919750213623,0.6993874243851483,5.0,59.0,0.0
B,L,"[4, 8]",0.0,8.0,0.24439191818237305,1.6984059810638428,0.34831028503606204,5.0,60.0,0.0
,,"(6, 6)",,,,,,,,
R,U,"[5, 6]",1.0,1.0,0.4696040153503418,3.0844199657440186,0.39935194551387165,6.0,61.0,0.0
Y,R,"[5, 7]",1.0,2.0,0.3026399612426758,1.7164762020111084,0.3161855488955578,6.0,62.0,0.0
Y,R,"[5, 8]",1.0,3.0,0.28792691230773926,1.7153708934783936,0.298073297997769,6.0,63.0,0.0
G,D,"[6, 8]",1.0,4.0,0.34429097175598145,2.019965887069702,0.5676938874195385,6.0,64.0,0.0
Y,R,"[6, 9]",1.0,5.0,0.1943058967590332,1.8679218292236328,0.5692077937033737,6.0,65.0,0.0
Y,R,"[6, 10]",1.0,6.0,0.24786782264709473,1.9652459621429443,0.6176846562109344,6.0,66.0,0.0
R,U,"[5, 10]",1.0,7.0,0.28021812438964844,1.9699912071228027,0.5876545214583377,6.0,67.0,0.0
R,U,"[4, 10]",1.0,8.0,0.2490861415863037,1.9394140243530273,0.5938982086881701,6.0,68.0,0.0
B,L,"[4, 9]",1.0,9.0,0.2754180431365967,1.987417221069336,0.6145433977854817,6.0,69.0,0.0
R,U,"[3, 9]",1.0,10.0,0.21460509300231934,2.012531042098999,0.6942197648032913,6.0,70.0,0.0
,,"(6, 6)",,,,,,,,
R,U,"[5, 6]",1.0,1.0,0.5404958724975586,2.265407085418701,0.3096380128124871,7.0,71.0,0.0
Y,R,"[5, 7]",1.0,2.0,0.28200197219848633,1.9393460750579834,0.5653474342582498,7.0,72.0,0.0
Y,R,"[5, 8]",1.0,3.0,0.257875919342041,1.940493106842041,0.5724451657600218,7.0,73.0,0.0
G,D,"[6, 8]",1.0,4.0,0.5547080039978027,1.953279972076416,0.29297489317769915,7.0,74.0,0.0
Y,R,"[6, 9]",1.0,5.0,0.33768582344055176,2.098923921585083,0.6580782591504977,7.0,75.0,0.0
Y,R,"[6, 10]",1.0,6.0,0.12098097801208496,1.824181079864502,0.6156821811173421,7.0,76.0,0.0
R,U,"[5, 10]",1.0,7.0,0.260483980178833,1.6471760272979736,0.2797874314170442,7.0,77.0,0.0
R,U,"[4, 10]",1.0,8.0,0.3975181579589844,1.8670148849487305,0.3635171662610567,7.0,78.0,0.0
B,L,"[4, 9]",1.0,9.0,0.2690119743347168,1.7455778121948242,0.3756502454548314,7.0,79.0,0.0
R,U,"[3, 9]",1.0,10.0,0.2379159927368164,1.7235920429229736,0.3992816534508717,7.0,80.0,0.0
,,"(6, 6)",,,,,,,,
R,U,"[5, 6]",1.0,1.0,0.29843807220458984,3.2081761360168457,0.4406075011780553,8.0,81.0,0.0
Y,R,"[5, 7]",1.0,2.0,0.2497420310974121,1.7138731479644775,0.37157312122773883,8.0,82.0,0.0
Y,R,"[5, 8]",1.0,3.0,0.2803478240966797,1.9321720600128174,0.5534668023276648,8.0,83.0,0.0
G,D,"[6, 8]",1.0,4.0,0.21139097213745117,2.0382261276245117,0.7249787548095223,8.0,84.0,0.0
Y,R,"[6, 9]",1.0,5.0,0.23230195045471191,1.6847119331359863,0.36009667397615097,8.0,85.0,0.0
Y,R,"[6, 10]",1.0,6.0,0.2662520408630371,1.8607308864593506,0.5037335754107013,8.0,86.0,0.0
R,U,"[5, 10]",1.0,7.0,0.2019650936126709,1.6895489692687988,0.3937413207247849,8.0,87.0,0.0
R,U,"[4, 10]",1.0,8.0,0.2803049087524414,2.111963987350464,0.7386380886629764,8.0,88.0,0.0
B,L,"[4, 9]",1.0,9.0,0.18766188621520996,1.9705581665039062,0.6926332642145203,8.0,89.0,0.0
R,U,"[3, 9]",1.0,10.0,0.25626611709594727,2.058739185333252,0.7012831808957705,8.0,90.0,0.0
,,"(6, 6)",,,,,,,,
R,U,"[5, 6]",1.0,1.0,0.34578394889831543,2.286648988723755,0.35495532734276664,9.0,91.0,0.0
Y,R,"[5, 7]",1.0,2.0,0.2553079128265381,1.7951741218566895,0.43349496335455073,9.0,92.0,0.0
Y,R,"[5, 8]",1.0,3.0,0.2701761722564697,1.8313591480255127,0.4648364747462305,9.0,93.0,0.0
G,D,"[6, 8]",1.0,4.0,0.24999594688415527,2.0681889057159424,0.7161500733748163,9.0,94.0,0.0
Y,R,"[6, 9]",1.0,5.0,0.16457700729370117,1.5248639583587646,0.25823222049572747,9.0,95.0,0.0
Y,R,"[6, 10]",1.0,6.0,0.33287787437438965,2.105855941772461,0.6804329943412791,9.0,96.0,0.0
R,U,"[5, 10]",1.0,7.0,0.18204498291015625,1.7289760112762451,0.44295955770462386,9.0,97.0,0.0
R,U,"[4, 10]",1.0,8.0,0.41560792922973633,1.8153328895568848,0.30835068885745615,9.0,98.0,0.0
B,L,"[4, 9]",1.0,9.0,0.43291497230529785,1.95350980758667,0.42849687557789956,9.0,99.0,0.0
R,U,"[3, 9]",1.0,10.0,0.2772409915924072,1.7876720428466797,0.41625528354258395,9.0,100.0,0.0
,,"(6, 6)",,,,,,,,
R,U,"[5, 6]",1.0,1.0,0.3435239791870117,2.5032589435577393,0.2531390483510792,10.0,101.0,0.0
Y,R,"[5, 7]",1.0,2.0,0.3520970344543457,1.9195311069488525,0.4724712985334052,10.0,102.0,0.0
Y,R,"[5, 8]",1.0,3.0,0.2555820941925049,1.970268964767456,0.6092176080866882,10.0,103.0,0.0
G,D,"[6, 8]",1.0,4.0,0.21010303497314453,1.5927188396453857,0.2856414035204017,10.0,104.0,0.0
Y,R,"[6, 9]",1.0,5.0,0.42136096954345703,1.914193868637085,0.38308481942805,10.0,105.0,0.0
Y,R,"[6, 10]",1.0,6.0,0.23070597648620605,1.6789560317993164,0.3453929024942148,10.0,106.0,0.0
R,U,"[5, 10]",1.0,7.0,0.2937891483306885,1.8925769329071045,0.5045813158143755,10.0,107.0,0.0
R,U,"[4, 10]",1.0,8.0,0.22186994552612305,1.610023021697998,0.2815080952985243,10.0,108.0,0.0
B,L,"[4, 9]",1.0,9.0,0.3671278953552246,2.0780889987945557,0.6092157865690114,10.0,109.0,0.0
R,U,"[3, 9]",1.0,10.0,0.24382591247558594,1.8108971118927002,0.47035040582247867,10.0,110.0,0.0
,,"(6, 6)",,,,,,,,
R,U,"[5, 6]",1.0,1.0,0.36866092681884766,2.9991400241851807,0.3366154215427098,11.0,111.0,0.0
Y,R,"[5, 7]",1.0,2.0,0.2891519069671631,1.8566858768463135,0.4598562551038441,11.0,112.0,0.0
Y,R,"[5, 8]",1.0,3.0,0.2262578010559082,1.6529030799865723,0.3293706242414427,11.0,113.0,0.0
G,D,"[6, 8]",1.0,4.0,0.296795129776001,1.767855167388916,0.36379830495132187,11.0,114.0,0.0
Y,R,"[6, 9]",1.0,5.0,0.19295406341552734,2.012101888656616,0.7089125069340362,11.0,115.0,0.0
Y,R,"[6, 10]",1.0,6.0,0.130126953125,1.633924961090088,0.40995282980892156,11.0,116.0,0.0
R,U,"[5, 10]",1.0,7.0,0.2487800121307373,1.9368841648101807,0.5966902948572042,11.0,117.0,0.0
R,U,"[4, 10]",1.0,8.0,0.42785215377807617,2.127593994140625,0.5908681444864297,11.0,118.0,0.0
B,L,"[4, 9]",1.0,9.0,0.2534358501434326,1.8607659339904785,0.5184147701982749,11.0,119.0,0.0
R,U,"[3, 9]",1.0,10.0,0.2657458782196045,1.6242971420288086,0.25963338290039517,11.0,120.0,0.0
,,"(6, 6)",,,,,,,,
R,U,"[5, 6]",1.0,1.0,0.4125549793243408,2.697364091873169,0.39040882464383675,12.0,121.0,0.0
Y,R,"[5, 7]",1.0,2.0,0.2772550582885742,2.125051975250244,0.748396412768646,12.0,122.0,0.0
Y,R,"[5, 8]",1.0,3.0,0.21602797508239746,2.0026938915252686,0.684503480100286,12.0,123.0,0.0
G,D,"[6, 8]",1.0,4.0,0.23305892944335938,1.7862348556518555,0.4542998310300541,12.0,124.0,0.0
Y,R,"[6, 9]",1.0,5.0,0.36566591262817383,1.9131100177764893,0.4508067070068571,12.0,125.0,0.0
Y,R,"[6, 10]",1.0,6.0,0.2580239772796631,2.0850038528442383,0.7189905134687751,12.0,126.0,0.0
G,D,"[7, 10]",0.0,6.0,0.23889613151550293,1.9613149166107178,0.6137393927216563,12.0,127.0,0.0
R,U,"[6, 10]",0.0,6.0,0.6641390323638916,2.061241865158081,0.29205194269601625,12.0,128.0,0.0
R,U,"[5, 10]",1.0,7.0,0.7665719985961914,2.4630467891693115,0.604726133445703,12.0,129.0,0.0
B,L,"[5, 9]",0.0,7.0,0.7177820205688477,2.352957010269165,0.5411114723212125,12.0,130.0,0.0
,,"(6, 6)",,,,,,,,
R,U,"[5, 6]",1.0,1.0,0.4416999816894531,3.7763760089874268,0.7006371602470707,13.0,131.0,0.0
Y,R,"[5, 7]",1.0,2.0,0.21262598037719727,1.8511090278625488,0.535436415098661,13.0,132.0,0.0
Y,R,"[5, 8]",1.0,3.0,0.26094985008239746,1.8849968910217285,0.5203353153161496,13.0,133.0,0.0
G,D,"[6, 8]",1.0,4.0,0.3009309768676758,1.9982919692993164,0.6020775968256209,13.0,134.0,0.0
Y,R,"[6, 9]",1.0,5.0,0.22336888313293457,1.719071865081787,0.387926542209837,13.0,135.0,0.0
Y,R,"[6, 10]",1.0,6.0,0.29516005516052246,1.6685070991516113,0.27334071992283765,13.0,136.0,0.0
G,D,"[7, 10]",0.0,6.0,0.5972020626068115,2.126274824142456,0.43275577047426445,13.0,137.0,0.0
R,U,"[6, 10]",0.0,6.0,0.6587550640106201,2.412881851196289,0.6454471915685169,13.0,138.0,0.0
R,U,"[5, 10]",1.0,7.0,0.2371540069580078,1.7161328792572021,0.395200001050162,13.0,139.0,0.0
R,U,"[4, 10]",1.0,8.0,0.44219493865966797,2.065199851989746,0.5269047341137347,13.0,140.0,0.0
,,"(6, 6)",,,,,,,,
R,U,"[5, 6]",1.0,1.0,0.5643560886383057,3.6312968730926514,0.6582203448673056,14.0,141.0,0.0
Y,R,"[5, 7]",1.0,2.0,0.25954699516296387,1.8885090351104736,0.5303411466309141,14.0,142.0,0.0
Y,R,"[5, 8]",1.0,3.0,0.2896099090576172,1.7178499698638916,0.3149026224290756,14.0,143.0,0.0
G,D,"[6, 8]",1.0,4.0,0.5441200733184814,1.9882268905639648,0.33658490470251884,14.0,144.0,0.0
Y,R,"[6, 9]",1.0,5.0,0.33507704734802246,1.969871997833252,0.5396034032836995,14.0,145.0,0.0
Y,R,"[6, 10]",1.0,6.0,0.23910117149353027,1.6407630443572998,0.296716607969271,14.0,146.0,0.0
R,U,"[5, 10]",1.0,7.0,0.28014087677001953,1.863814115524292,0.47773255777422813,14.0,147.0,0.0
R,U,"[4, 10]",1.0,8.0,0.29624295234680176,2.094148874282837,0.7049355282038863,14.0,148.0,0.0
B,L,"[4, 9]",1.0,9.0,0.24330711364746094,2.0156328678131104,0.6706112595653523,14.0,149.0,0.0
R,U,"[3, 9]",1.0,10.0,0.2500178813934326,1.6456639766693115,0.30000056629257293,14.0,150.0,0.0
,,"(6, 6)",,,,,,,,
R,U,"[5, 6]",1.0,1.0,0.38657093048095703,2.8701751232147217,0.4534626452499626,15.0,151.0,0.0
Y,R,"[5, 7]",1.0,2.0,0.27387404441833496,1.8968100547790527,0.5168995764689446,15.0,152.0,0.0
Y,R,"[5, 8]",1.0,3.0,0.23934292793273926,1.9800450801849365,0.6468795758586459,15.0,153.0,0.0
G,D,"[6, 8]",1.0,4.0,0.2439711093902588,1.9919559955596924,0.6388967535425825,15.0,154.0,0.0
Y,R,"[6, 9]",1.0,5.0,0.20481109619140625,1.5595109462738037,0.26547692489767105,15.0,155.0,0.0
Y,R,"[6, 10]",1.0,6.0,0.4960930347442627,2.0938258171081543,0.49224680351946787,15.0,156.0,0.0
R,U,"[5, 10]",1.0,7.0,0.3178839683532715,1.6776378154754639,0.2702364001628442,15.0,157.0,0.0
R,U,"[4, 10]",1.0,8.0,0.48343706130981445,2.084425926208496,0.5044650021061051,15.0,158.0,0.0
B,L,"[4, 9]",1.0,9.0,0.299008846282959,2.081178903579712,0.6855180210956431,15.0,159.0,0.0
R,U,"[3, 9]",1.0,10.0,0.2591359615325928,2.0129687786102295,0.6485036280834442,15.0,160.0,0.0
,,"(6, 6)",,,,,,,,
R,U,"[5, 6]",1.0,1.0,0.3098490238189697,2.8284828662872314,0.4272992426567558,16.0,161.0,0.0
Y,R,"[5, 7]",1.0,2.0,0.24386811256408691,2.054198980331421,0.7146197096843905,16.0,162.0,0.0
Y,R,"[5, 8]",1.0,3.0,0.17925000190734863,1.823199987411499,0.5379534213890877,16.0,163.0,0.0
G,D,"[6, 8]",1.0,4.0,0.2702009677886963,2.0513999462127686,0.6892715061666885,16.0,164.0,0.0
Y,R,"[6, 9]",1.0,5.0,0.2707080841064453,1.6884291172027588,0.32807394009415125,16.0,165.0,0.0
Y,R,"[6, 10]",1.0,6.0,0.23248910903930664,1.8264529705047607,0.5044356879682486,16.0,166.0,0.0
G,D,"[7, 10]",0.0,6.0,0.23862600326538086,1.877790927886963,0.5322525385462126,16.0,167.0,0.0
R,U,"[6, 10]",0.0,6.0,0.19106388092041016,1.6318988800048828,0.33107446682634173,16.0,168.0,0.0
R,U,"[5, 10]",1.0,7.0,0.3355870246887207,2.0968239307403564,0.6608338228338189,16.0,169.0,0.0
B,L,"[5, 9]",-2.0,7.0,1.2472829818725586,2.7918360233306885,0.5196238492334235,16.0,170.0,0.0
,,"(6, 6)",,,,,,,,
R,U,"[5, 6]",1.0,1.0,0.3973698616027832,3.0128958225250244,0.6324642286798031,17.0,171.0,0.0
Y,R,"[5, 7]",1.0,2.0,0.2283339500427246,1.742238998413086,0.40828628133636663,17.0,172.0,0.0
Y,R,"[5, 8]",1.0,3.0,0.26556396484375,2.0352230072021484,0.676427820723517,17.0,173.0,0.0
G,D,"[6, 8]",1.0,4.0,0.13614392280578613,1.8075499534606934,0.5842622232450965,17.0,174.0,0.0
Y,R,"[6, 9]",1.0,5.0,0.18667984008789062,1.56593918800354,0.283804663673004,17.0,175.0,0.0
Y,R,"[6, 10]",1.0,6.0,0.42407894134521484,2.0555570125579834,0.522461169211476,17.0,176.0,0.0
R,U,"[5, 10]",1.0,7.0,0.2801210880279541,2.079857110977173,0.7022555313213718,17.0,177.0,0.0
R,U,"[4, 10]",1.0,8.0,0.6278209686279297,2.192286968231201,0.46153193083717603,17.0,178.0,0.0
B,L,"[4, 9]",1.0,9.0,0.29558682441711426,1.7613799571990967,0.37296132628716083,17.0,179.0,0.0
R,U,"[3, 9]",1.0,10.0,0.28695011138916016,1.9114480018615723,0.5343066164525399,17.0,180.0,0.0
,,"(6, 6)",,,,,,,,
R,U,"[5, 6]",1.0,1.0,0.4048469066619873,2.44317889213562,0.6107424793435606,18.0,181.0,0.0
Y,R,"[5, 7]",1.0,2.0,0.1750199794769287,1.914151906967163,0.6416870706969943,18.0,182.0,0.0
Y,R,"[5, 8]",1.0,3.0,0.2094128131866455,1.8218159675598145,0.5135469865284117,18.0,183.0,0.0
G,D,"[6, 8]",1.0,4.0,0.26311802864074707,2.046370029449463,0.6765573474818777,18.0,184.0,0.0
Y,R,"[6, 9]",1.0,5.0,0.24831509590148926,1.8612120151519775,0.5211928164487536,18.0,185.0,0.0
Y,R,"[6, 10]",1.0,6.0,0.24309015274047852,1.689640998840332,0.3443258416101108,18.0,186.0,0.0
R,U,"[5, 10]",1.0,7.0,0.41197991371154785,2.098250150680542,0.5923807492708149,18.0,187.0,0.0
R,U,"[4, 10]",1.0,8.0,0.2761998176574707,1.6914069652557373,0.31719423130150576,18.0,188.0,0.0
B,L,"[4, 9]",1.0,9.0,0.37920594215393066,1.8722121715545654,0.38962458641707925,18.0,189.0,0.0
R,U,"[3, 9]",1.0,10.0,0.29282498359680176,1.7448890209197998,0.36797909074878943,18.0,190.0,0.0
,,"(6, 6)",,,,,,,,
R,U,"[5, 6]",1.0,1.0,0.44089603424072266,2.561735153198242,0.579421738701293,19.0,191.0,0.0
Y,R,"[5, 7]",1.0,2.0,0.2144758701324463,1.82796311378479,0.5075945924526319,19.0,192.0,0.0
Y,R,"[5, 8]",1.0,3.0,0.2684798240661621,1.9727599620819092,0.6136546675747061,19.0,193.0,0.0
G,D,"[6, 8]",1.0,4.0,0.16223406791687012,1.9905810356140137,0.7206407052975254,19.0,194.0,0.0
Y,R,"[6, 9]",1.0,5.0,0.21366596221923828,1.9398751258850098,0.6273430500681432,19.0,195.0,0.0
Y,R,"[6, 10]",1.0,6.0,0.14088678359985352,1.5173659324645996,0.27840286113797513,19.0,196.0,0.0
R,U,"[5, 10]",1.0,7.0,0.4611198902130127,2.058070182800293,0.5030713422888413,19.0,197.0,0.0
R,U,"[4, 10]",1.0,8.0,0.2975180149078369,1.6709840297698975,0.2742487415410388,19.0,198.0,0.0
B,L,"[4, 9]",1.0,9.0,0.46884918212890625,2.0311219692230225,0.4719306863707478,19.0,199.0,0.0
R,U,"[3, 9]",1.0,10.0,0.3087308406829834,1.75777006149292,0.34650679857789435,19.0,200.0,0.0
,,"(6, 6)",,,,,,,,
R,U,"[5, 6]",1.0,1.0,0.4612300395965576,2.5523109436035156,0.34881198829965016,20.0,201.0,0.0
Y,R,"[5, 7]",1.0,2.0,0.3271958827972412,1.78165602684021,0.34729467151667454,20.0,202.0,0.0
Y,R,"[5, 8]",1.0,3.0,0.27678799629211426,1.7532310485839844,0.3671421637560794,20.0,203.0,0.0
G,D,"[6, 8]",1.0,4.0,0.21205997467041016,1.7516450881958008,0.435348775861792,20.0,204.0,0.0
Y,R,"[6, 9]",1.0,5.0,0.2309250831604004,1.9429349899291992,0.6114551219399619,20.0,205.0,0.0
Y,R,"[6, 10]",1.0,6.0,0.15060210227966309,1.681859016418457,0.44360769234174396,20.0,206.0,0.0
R,U,"[5, 10]",1.0,7.0,0.27150893211364746,1.6361150741577148,0.2798534392625202,20.0,207.0,0.0
Y,R,"[5, 11]",0.0,7.0,0.473466157913208,1.8769190311431885,0.29013765577044376,20.0,208.0,0.0
R,U,"[4, 11]",0.0,7.0,0.6658358573913574,2.4975011348724365,0.7372038038821872,20.0,209.0,0.0
R,U,"[3, 11]",0.0,7.0,0.588798999786377,1.9873080253601074,0.29168781254352616,20.0,210.0,0.0
,,"(6, 6)",,,,,,,,
R,U,"[5, 6]",1.0,1.0,0.3912780284881592,3.379702091217041,0.6876364581005735,21.0,211.0,0.0
Y,R,"[5, 7]",1.0,2.0,0.2145841121673584,1.5941410064697266,0.2822557033737497,21.0,212.0,0.0
Y,R,"[5, 8]",1.0,3.0,0.25533294677734375,1.90224289894104,0.5343537179202189,21.0,213.0,0.0
G,D,"[6, 8]",1.0,4.0,0.23781514167785645,2.0806000232696533,0.7481119406334724,21.0,214.0,0.0
Y,R,"[6, 9]",1.0,5.0,0.197235107421875,1.7803659439086914,0.47867289873333535,21.0,215.0,0.0
Y,R,"[6, 10]",1.0,6.0,0.22611212730407715,2.0644969940185547,0.7429816198557513,21.0,216.0,0.0
R,U,"[5, 10]",1.0,7.0,0.1722240447998047,1.6869609355926514,0.4135845723993194,21.0,217.0,0.0
R,U,"[4, 10]",1.0,8.0,0.2682640552520752,1.7361700534820557,0.3666274336180912,21.0,218.0,0.0
B,L,"[4, 9]",1.0,9.0,0.4017479419708252,1.974985122680664,0.4747305425476807,21.0,219.0,0.0
R,U,"[3, 9]",1.0,10.0,0.2722151279449463,1.848858118057251,0.4736894685069314,21.0,220.0,0.0
,,"(6, 6)",,,,,,,,
R,U,"[5, 6]",1.0,1.0,0.3146049976348877,3.316767930984497,0.4905389022064233,22.0,221.0,0.0
Y,R,"[5, 7]",1.0,2.0,0.23894691467285156,1.7813999652862549,0.43879613554786906,22.0,222.0,0.0
Y,R,"[5, 8]",1.0,3.0,0.22940897941589355,1.6675629615783691,0.3397710082618673,22.0,223.0,0.0
G,D,"[6, 8]",1.0,4.0,0.2818729877471924,1.7915120124816895,0.4145184866151826,22.0,224.0,0.0
Y,R,"[6, 9]",1.0,5.0,0.27392005920410156,1.806988000869751,0.42147550787724897,22.0,225.0,0.0
Y,R,"[6, 10]",1.0,6.0,0.2434380054473877,1.8099899291992188,0.464790332377509,22.0,226.0,0.0
R,U,"[5, 10]",1.0,7.0,0.23343515396118164,1.8538742065429688,0.5186437623493345,22.0,227.0,0.0
R,U,"[4, 10]",1.0,8.0,0.23638010025024414,2.0079240798950195,0.6764475566408505,22.0,228.0,0.0
B,L,"[4, 9]",1.0,9.0,0.19356584548950195,1.99332594871521,0.7030698825220165,22.0,229.0,0.0
R,U,"[3, 9]",1.0,10.0,0.14527297019958496,1.8145999908447266,0.5679829907493049,22.0,230.0,0.0
,,"(6, 6)",,,,,,,,
R,U,"[5, 6]",1.0,1.0,0.4001500606536865,3.161870002746582,0.4633754332154312,23.0,231.0,0.0
Y,R,"[5, 7]",1.0,2.0,0.22937393188476562,1.9743201732635498,0.6372520759279876,23.0,232.0,0.0
Y,R,"[5, 8]",1.0,3.0,0.39844799041748047,2.0311520099639893,0.5353609003234776,23.0,233.0,0.0
G,D,"[6, 8]",1.0,4.0,0.18456816673278809,1.8905072212219238,0.6091421764703231,23.0,234.0,0.0
Y,R,"[6, 9]",1.0,5.0,0.18320393562316895,1.7376229763031006,0.46373966129599653,23.0,235.0,0.0
Y,R,"[6, 10]",1.0,6.0,0.24529600143432617,1.8814082145690918,0.5282813678878364,23.0,236.0,0.0
R,U,"[5, 10]",1.0,7.0,0.272629976272583,1.943882942199707,0.5721903450323622,23.0,237.0,0.0
R,U,"[4, 10]",1.0,8.0,0.36867213249206543,1.7304441928863525,0.26963536142297134,23.0,238.0,0.0
B,L,"[4, 9]",1.0,9.0,0.3414790630340576,2.074907064437866,0.627575105272802,23.0,239.0,0.0
R,U,"[3, 9]",1.0,10.0,0.19982600212097168,1.707366943359375,0.4186255124344404,23.0,240.0,0.0
,,"(6, 6)",,,,,,,,
R,U,"[5, 6]",1.0,1.0,0.5309348106384277,3.248525857925415,0.7001985373861255,24.0,241.0,0.0
Y,R,"[5, 7]",1.0,2.0,0.19532513618469238,1.6722350120544434,0.3727706061127069,24.0,242.0,0.0
Y,R,"[5, 8]",1.0,3.0,0.30595993995666504,1.7936809062957764,0.38318949118080164,24.0,243.0,0.0
G,D,"[6, 8]",1.0,4.0,0.2888040542602539,1.783499002456665,0.3834131676246285,24.0,244.0,0.0
Y,R,"[6, 9]",1.0,5.0,0.4186670780181885,2.2363240718841553,0.7194783245174055,24.0,245.0,0.0
Y,R,"[6, 10]",1.0,6.0,0.19981694221496582,1.700273036956787,0.4032623331415723,24.0,246.0,0.0
R,U,"[5, 10]",1.0,7.0,0.34932518005371094,2.027100086212158,0.5803431550215488,24.0,247.0,0.0
R,U,"[4, 10]",1.0,8.0,0.2740139961242676,1.8246119022369385,0.43849751527470376,24.0,248.0,0.0
B,L,"[4, 9]",1.0,9.0,0.41488099098205566,1.8864569664001465,0.3750318186344214,24.0,249.0,0.0
R,U,"[3, 9]",1.0,10.0,0.39872193336486816,2.233077049255371,0.7410233206428902,24.0,250.0,0.0
,,"(6, 6)",,,,,,,,
R,U,"[5, 6]",1.0,1.0,0.4075131416320801,2.4194579124450684,0.6605936364720744,25.0,251.0,0.0
Y,R,"[5, 7]",1.0,2.0,0.21333694458007812,1.7977268695831299,0.49187572374079197,25.0,252.0,0.0
Y,R,"[5, 8]",1.0,3.0,0.27538013458251953,1.7355401515960693,0.3608830948745502,25.0,253.0,0.0
G,D,"[6, 8]",1.0,4.0,0.31517696380615234,2.0335350036621094,0.6275340481608584,25.0,254.0,0.0
Y,R,"[6, 9]",1.0,5.0,0.22299408912658691,1.8379039764404297,0.5155427059431985,25.0,255.0,0.0
Y,R,"[6, 10]",1.0,6.0,0.30918216705322266,1.8503191471099854,0.4326069081945999,25.0,256.0,0.0
R,U,"[5, 10]",1.0,7.0,0.2981679439544678,1.67295503616333,0.27277489649793496,25.0,257.0,0.0
R,U,"[4, 10]",1.0,8.0,0.3124070167541504,2.030122995376587,0.6188812404978614,25.0,258.0,0.0
B,L,"[4, 9]",1.0,9.0,0.26919102668762207,1.8347840309143066,0.47054032530434997,25.0,259.0,0.0
R,U,"[3, 9]",1.0,10.0,0.2048661708831787,1.638880968093872,0.3263831961444897,25.0,260.0,0.0
,,"(6, 6)",,,,,,,,
R,U,"[5, 6]",1.0,1.0,0.4161560535430908,2.6280298233032227,0.4876056542967849,26.0,261.0,0.0
Y,R,"[5, 7]",1.0,2.0,0.1497020721435547,1.7905149459838867,0.5448165747267298,26.0,262.0,0.0
Y,R,"[5, 8]",1.0,3.0,0.2810051441192627,1.9451210498809814,0.5733024320547263,26.0,263.0,0.0
G,D,"[6, 8]",1.0,4.0,0.2541029453277588,1.7099318504333496,0.36673247580770535,26.0,264.0,0.0
Y,R,"[6, 9]",1.0,5.0,0.4346029758453369,2.0173158645629883,0.48388083683869787,26.0,265.0,0.0
Y,R,"[6, 10]",1.0,6.0,0.2598578929901123,1.9238100051879883,0.5575863321474092,26.0,266.0,0.0
R,U,"[5, 10]",1.0,7.0,0.23825788497924805,2.0773301124572754,0.7348034255685274,26.0,267.0,0.0
R,U,"[4, 10]",1.0,8.0,0.16915392875671387,1.644031047821045,0.3792571849191894,26.0,268.0,0.0
B,L,"[4, 9]",1.0,9.0,0.37204504013061523,1.989335060119629,0.5017641665842468,26.0,269.0,0.0
R,U,"[3, 9]",1.0,10.0,0.2639908790588379,1.9548299312591553,0.5899242878420861,26.0,270.0,0.0
,,"(6, 6)",,,,,,,,
R,U,"[5, 6]",1.0,1.0,0.4474911689758301,2.430894136428833,0.6541142750593247,27.0,271.0,0.0
Y,R,"[5, 7]",1.0,2.0,0.17345499992370605,1.6979999542236328,0.41888295199415243,27.0,272.0,0.0
Y,R,"[5, 8]",1.0,3.0,0.3387730121612549,1.8451898097991943,0.38097856710278305,27.0,273.0,0.0
G,D,"[6, 8]",1.0,4.0,0.46424078941345215,1.8678648471832275,0.2986434935751365,27.0,274.0,0.0
Y,R,"[6, 9]",1.0,5.0,0.2530989646911621,2.089595079421997,0.7381103770239923,27.0,275.0,0.0
Y,R,"[6, 10]",1.0,6.0,0.30292606353759766,1.8746819496154785,0.4797159479978193,27.0,276.0,0.0
R,U,"[5, 10]",1.0,7.0,0.24952101707458496,1.6463398933410645,0.29289422567139345,27.0,277.0,0.0
R,U,"[4, 10]",1.0,8.0,0.47130393981933594,1.9039020538330078,0.34685704985551463,27.0,278.0,0.0
B,L,"[4, 9]",1.0,9.0,0.49662184715270996,2.0031168460845947,0.4000355568389211,27.0,279.0,0.0
R,U,"[3, 9]",1.0,10.0,0.27373290061950684,2.1278889179229736,0.7441570512266955,27.0,280.0,0.0
,,"(6, 6)",,,,,,,,
R,U,"[5, 6]",1.0,1.0,0.38773393630981445,2.5920541286468506,0.25350909484348255,28.0,281.0,0.0
Y,R,"[5, 7]",1.0,2.0,0.3639068603515625,2.044978141784668,0.5814386548356376,28.0,282.0,0.0
Y,R,"[5, 8]",1.0,3.0,0.22546911239624023,2.004425048828125,0.6693126584307416,28.0,283.0,0.0
G,D,"[6, 8]",1.0,4.0,0.15473008155822754,1.5407459735870361,0.2770123836293739,28.0,284.0,0.0
Y,R,"[6, 9]",1.0,5.0,0.3980860710144043,1.874089002609253,0.3843198698574461,28.0,285.0,0.0
Y,R,"[6, 10]",1.0,6.0,0.2598409652709961,1.9655351638793945,0.6000431694191962,28.0,286.0,0.0
R,U,"[5, 10]",1.0,7.0,0.19638776779174805,1.739081859588623,0.4390612995728845,28.0,287.0,0.0
R,U,"[4, 10]",1.0,8.0,0.2599301338195801,1.9184699058532715,0.5573990564596073,28.0,288.0,0.0
B,L,"[4, 9]",1.0,9.0,0.2373180389404297,1.8945698738098145,0.568668246275005,28.0,289.0,0.0
R,U,"[3, 9]",1.0,10.0,0.1076040267944336,1.9051079750061035,0.6902173808538974,28.0,290.0,0.0
,,"(6, 6)",,,,,,,,
R,U,"[5, 6]",1.0,1.0,0.3694579601287842,2.177945137023926,0.43524908367728327,29.0,291.0,0.0
Y,R,"[5, 7]",1.0,2.0,0.24723005294799805,1.6614620685577393,0.31347979242337565,29.0,292.0,0.0
Y,R,"[5, 8]",1.0,3.0,0.18770980834960938,1.8481559753417969,0.5613407112409359,29.0,293.0,0.0
G,D,"[6, 8]",-1.0,3.0,0.07175803184509277,5.518062114715576,0.3297843459327069,29.0,294.0,0.0
Y,R,"[6, 9]",1.0,4.0,0.27315306663513184,1.7419750690460205,0.35508792798769184,29.0,295.0,0.0
Y,R,"[6, 10]",1.0,5.0,0.2618439197540283,1.8109471797943115,0.4494018496687397,29.0,296.0,0.0
R,U,"[5, 10]",1.0,6.0,0.1845839023590088,1.7265369892120361,0.4425414020439966,29.0,297.0,0.0
R,U,"[4, 10]",1.0,7.0,0.24489617347717285,1.942270040512085,0.6013269202154912,29.0,298.0,0.0
B,L,"[4, 9]",1.0,8.0,0.23591995239257812,1.860914945602417,0.5291247297119174,29.0,299.0,0.0
R,U,"[3, 9]",1.0,9.0,0.22315287590026855,2.0489327907562256,0.7112339811769268,29.0,300.0,0.0
,,"(6, 6)",,,,,,,,
R,U,"[5, 6]",1.0,1.0,0.39573097229003906,2.5995819568634033,0.3612091542609881,30.0,301.0,0.0
Y,R,"[5, 7]",1.0,2.0,0.29488110542297363,2.0108699798583984,0.6217604628781277,30.0,302.0,0.0
Y,R,"[5, 8]",1.0,3.0,0.1693248748779297,1.5843980312347412,0.3231741906603498,30.0,303.0,0.0
G,D,"[6, 8]",1.0,4.0,0.42503881454467773,1.915605068206787,0.3885402997970158,30.0,304.0,0.0
Y,R,"[6, 9]",1.0,5.0,0.3774230480194092,2.205108165740967,0.726956417783563,30.0,305.0,0.0
Y,R,"[6, 10]",1.0,6.0,0.2145540714263916,1.7262060642242432,0.42006913986029365,30.0,306.0,0.0
R,U,"[5, 10]",1.0,7.0,0.672238826751709,2.184581995010376,0.40475115836194897,30.0,307.0,0.0
R,U,"[4, 10]",1.0,8.0,0.3072929382324219,1.8833949565887451,0.47136536930737877,30.0,308.0,0.0
B,L,"[4, 9]",1.0,9.0,0.24685096740722656,1.7926130294799805,0.44750321823107675,30.0,309.0,0.0
R,U,"[3, 9]",1.0,10.0,0.2537651062011719,1.8877758979797363,0.5351946919559044,30.0,310.0,0.0
,,"(6, 6)",,,,,,,,
R,U,"[5, 6]",1.0,1.0,0.3624119758605957,2.4580538272857666,0.6763566742634501,31.0,311.0,0.0
Y,R,"[5, 7]",1.0,2.0,0.22469091415405273,1.660153865814209,0.3368541384005876,31.0,312.0,0.0
Y,R,"[5, 8]",1.0,3.0,0.25478601455688477,1.6099088191986084,0.2635956060619184,31.0,313.0,0.0
G,D,"[6, 8]",1.0,4.0,0.41045618057250977,2.0419809818267822,0.5220857618054899,31.0,314.0,0.0
Y,R,"[6, 9]",1.0,5.0,0.2290799617767334,1.6034231185913086,0.27565378916639094,31.0,315.0,0.0
Y,R,"[6, 10]",1.0,6.0,0.2681450843811035,1.9220850467681885,0.5641866237293427,31.0,316.0,0.0
R,U,"[5, 10]",1.0,7.0,0.37630414962768555,1.9885480403900146,0.5195390108782852,31.0,317.0,0.0
R,U,"[4, 10]",1.0,8.0,0.21862220764160156,1.9942991733551025,0.6802632164685607,31.0,318.0,0.0
B,L,"[4, 9]",1.0,9.0,0.19065594673156738,2.050459146499634,0.7473651379388085,31.0,319.0,0.0
R,U,"[3, 9]",1.0,10.0,0.20897698402404785,1.9070210456848145,0.5880263533488579,31.0,320.0,0.0
,,"(6, 6)",,,,,,,,
R,U,"[5, 6]",1.0,1.0,0.27950215339660645,2.3911919593811035,0.7123990061288614,32.0,321.0,0.0
Y,R,"[5, 7]",-1.0,1.0,0.09816098213195801,5.934692144393921,0.6973185663091911,32.0,322.0,0.0
Y,R,"[5, 8]",1.0,2.0,0.2558720111846924,1.856071949005127,0.4867862895363479,32.0,323.0,0.0
G,D,"[6, 8]",1.0,3.0,0.2436070442199707,2.0494370460510254,0.702753624838393,32.0,324.0,0.0
Y,R,"[6, 9]",1.0,4.0,0.22580695152282715,1.8331010341644287,0.5027065890834803,32.0,325.0,0.0
Y,R,"[6, 10]",1.0,5.0,0.2465989589691162,1.7530879974365234,0.40605291157045054,32.0,326.0,0.0
R,U,"[5, 10]",1.0,6.0,0.2854950428009033,2.0635461807250977,0.6859503983274036,32.0,327.0,0.0
R,U,"[4, 10]",1.0,7.0,0.21006989479064941,2.063124895095825,0.7489384795349954,32.0,328.0,0.0
B,L,"[4, 9]",1.0,8.0,0.19565296173095703,1.8947808742523193,0.5939478498803391,32.0,329.0,0.0
R,U,"[3, 9]",1.0,9.0,0.22113394737243652,1.9827890396118164,0.676713979127594,32.0,330.0,0.0
,,"(6, 6)",,,,,,,,
R,U,"[5, 6]",1.0,1.0,0.45880913734436035,2.1962459087371826,0.3068047456590827,33.0,331.0,0.0
Y,R,"[5, 7]",1.0,2.0,0.30800819396972656,2.142448902130127,0.7321834033128878,33.0,332.0,0.0
Y,R,"[5, 8]",-1.0,2.0,0.09692811965942383,5.6118409633636475,0.37766379422436824,33.0,333.0,0.0
G,D,"[6, 8]",1.0,3.0,0.26468491554260254,1.6172120571136475,0.261879744767682,33.0,334.0,0.0
Y,R,"[6, 9]",1.0,4.0,0.38264012336730957,1.9112629890441895,0.4395073255341832,33.0,335.0,0.0
Y,R,"[6, 10]",1.0,5.0,0.3019578456878662,2.0210108757019043,0.627083221723746,33.0,336.0,0.0
R,U,"[5, 10]",1.0,6.0,0.14776301383972168,1.5874049663543701,0.34794505298742534,33.0,337.0,0.0
R,U,"[4, 10]",1.0,7.0,0.4423410892486572,2.066871166229248,0.5147472518663445,33.0,338.0,0.0
B,L,"[4, 9]",1.0,8.0,0.27973389625549316,2.0205819606781006,0.6353984919594999,33.0,339.0,0.0
R,U,"[3, 9]",1.0,9.0,0.2521932125091553,2.079751968383789,0.7317039886467182,33.0,340.0,0.0
,,"(6, 6)",,,,,,,,
R,U,"[5, 6]",1.0,1.0,0.3390049934387207,2.5511560440063477,0.4000059699780941,34.0,341.0,0.0
Y,R,"[5, 7]",1.0,2.0,0.28411102294921875,1.7522192001342773,0.3688093507236597,34.0,342.0,0.0
Y,R,"[5, 8]",1.0,3.0,0.5001521110534668,2.189405918121338,0.5914906778387837,34.0,343.0,0.0
G,D,"[6, 8]",1.0,4.0,0.2651679515838623,1.7649919986724854,0.4066106195383976,34.0,344.0,0.0
Y,R,"[6, 9]",1.0,5.0,0.37244105339050293,1.941370964050293,0.46455394140184225,34.0,345.0,0.0
Y,R,"[6, 10]",1.0,6.0,0.3543870449066162,2.1118600368499756,0.6590664326809429,34.0,346.0,0.0
R,U,"[5, 10]",1.0,7.0,0.27739500999450684,1.8816311359405518,0.508080716055353,34.0,347.0,0.0
R,U,"[4, 10]",1.0,8.0,0.3451120853424072,1.9341340065002441,0.4922209079997151,34.0,348.0,0.0
B,L,"[4, 9]",1.0,9.0,0.29984402656555176,1.8839330673217773,0.49290433781481074,34.0,349.0,0.0
R,U,"[3, 9]",1.0,10.0,0.695580005645752,2.314063787460327,0.5236298379963906,34.0,350.0,0.0
,,"(6, 6)",,,,,,,,
R,U,"[5, 6]",1.0,1.0,0.5182609558105469,3.2850608825683594,0.7417303353188601,35.0,351.0,0.0
Y,R,"[5, 7]",1.0,2.0,0.2507951259613037,1.6457288265228271,0.30470379161157185,35.0,352.0,0.0
Y,R,"[5, 8]",1.0,3.0,0.5173699855804443,2.1860978603363037,0.5738361333067403,35.0,353.0,0.0
G,D,"[6, 8]",1.0,4.0,0.2577860355377197,1.8570878505706787,0.49786854562064337,35.0,354.0,0.0
Y,R,"[6, 9]",1.0,5.0,0.255126953125,1.8720240592956543,0.5032203592341105,35.0,355.0,0.0
Y,R,"[6, 10]",1.0,6.0,0.21320796012878418,2.06174898147583,0.7479667615360848,35.0,356.0,0.0
R,U,"[5, 10]",1.0,7.0,0.12471389770507812,1.8312489986419678,0.5961842950550228,35.0,357.0,0.0
R,U,"[4, 10]",-2.0,7.0,1.3175029754638672,2.6665821075439453,0.3130154496469524,35.0,358.0,0.0
B,L,"[4, 9]",1.0,8.0,0.6508760452270508,2.1951541900634766,0.4414050191576142,35.0,359.0,0.0
R,U,"[3, 9]",1.0,9.0,0.27063703536987305,1.7684540748596191,0.4099440230155485,35.0,360.0,0.0
,,"(6, 6)",,,,,,,,
R,U,"[5, 6]",1.0,1.0,0.3676149845123291,2.7348320484161377,0.7278412005295793,36.0,361.0,0.0
Y,R,"[5, 7]",1.0,2.0,0.19879794120788574,1.958050012588501,0.6693332232179728,36.0,362.0,0.0
Y,R,"[5, 8]",1.0,3.0,0.19534587860107422,1.944077968597412,0.6468869534999127,36.0,363.0,0.0
G,D,"[6, 8]",1.0,4.0,0.594379186630249,2.253488063812256,0.550398122374003,36.0,364.0,0.0
Y,R,"[6, 9]",1.0,5.0,0.4984118938446045,2.0844361782073975,0.4850608976757701,36.0,365.0,0.0
Y,R,"[6, 10]",1.0,6.0,0.22109103202819824,1.891571044921875,0.5769473722873744,36.0,366.0,0.0
R,U,"[5, 10]",1.0,7.0,0.2846090793609619,1.8698949813842773,0.49646834247565785,36.0,367.0,0.0
R,U,"[4, 10]",1.0,8.0,0.2820429801940918,2.0088891983032227,0.6219858914925303,36.0,368.0,0.0
B,L,"[4, 9]",1.0,9.0,0.19656801223754883,1.9596199989318848,0.6649202135994001,36.0,369.0,0.0
R,U,"[3, 9]",1.0,10.0,0.16397309303283691,1.695134162902832,0.4270350746901859,36.0,370.0,0.0
,,"(6, 6)",,,,,,,,
R,U,"[5, 6]",1.0,1.0,0.27668190002441406,2.3403050899505615,0.6504149285029992,37.0,371.0,0.0
Y,R,"[5, 7]",1.0,2.0,0.2349100112915039,1.9186429977416992,0.5857493626248411,37.0,372.0,0.0
Y,R,"[5, 8]",1.0,3.0,0.23523688316345215,1.778209924697876,0.44760545773063026,37.0,373.0,0.0
G,D,"[6, 8]",1.0,4.0,0.24187707901000977,2.0935680866241455,0.7406754314964095,37.0,374.0,0.0
Y,R,"[6, 9]",-1.0,4.0,0.054901123046875,5.4551191329956055,0.27988290990872194,37.0,375.0,0.0
Y,R,"[6, 10]",1.0,5.0,0.2961149215698242,2.0323331356048584,0.6285848468484911,37.0,376.0,0.0
R,U,"[5, 10]",1.0,6.0,0.340548038482666,1.874932050704956,0.4369315622697018,37.0,377.0,0.0
R,U,"[4, 10]",1.0,7.0,0.25516390800476074,1.9264650344848633,0.5633745987938972,37.0,378.0,0.0
B,L,"[4, 9]",1.0,8.0,0.24053192138671875,2.0501058101654053,0.6966788441187783,37.0,379.0,0.0
R,U,"[3, 9]",1.0,9.0,0.3594028949737549,1.8444709777832031,0.37480702980585195,37.0,380.0,0.0
,,"(6, 6)",,,,,,,,
R,U,"[5, 6]",1.0,1.0,0.34539198875427246,7.761067152023315,0.41947772219168655,38.0,381.0,0.0
Y,R,"[5, 7]",1.0,2.0,0.21160006523132324,1.9092490673065186,0.5952101354780372,38.0,382.0,0.0
Y,R,"[5, 8]",1.0,3.0,0.21941018104553223,1.622257947921753,0.31772827304910456,38.0,383.0,0.0
G,D,"[6, 8]",1.0,4.0,0.2672569751739502,1.6781208515167236,0.31251440219473814,38.0,384.0,0.0
Y,R,"[6, 9]",1.0,5.0,0.2694380283355713,1.9573278427124023,0.6030048857531274,38.0,385.0,0.0
Y,R,"[6, 10]",1.0,6.0,0.2108750343322754,1.7058219909667969,0.39237838795455,38.0,386.0,0.0
R,U,"[5, 10]",1.0,7.0,0.2349989414215088,1.8818960189819336,0.5574080250777318,38.0,387.0,0.0
R,U,"[4, 10]",1.0,8.0,0.226593017578125,2.051703929901123,0.725590219600246,38.0,388.0,0.0
B,L,"[4, 9]",1.0,9.0,0.1556699275970459,1.6552479267120361,0.39771779585902417,38.0,389.0,0.0
R,U,"[3, 9]",1.0,10.0,0.24904084205627441,1.6664819717407227,0.31459219375367214,38.0,390.0,0.0
,,"(6, 6)",,,,,,,,
R,U,"[5, 6]",1.0,1.0,0.2456681728363037,2.817222833633423,0.48167544804263235,39.0,391.0,0.0
Y,R,"[5, 7]",1.0,2.0,0.3039069175720215,1.827178955078125,0.42555630271901695,39.0,392.0,0.0
Y,R,"[5, 8]",1.0,3.0,0.27675414085388184,1.8432221412658691,0.4686592560624747,39.0,393.0,0.0
G,D,"[6, 8]",1.0,4.0,0.15537095069885254,1.707273006439209,0.44282897762985685,39.0,394.0,0.0
Y,R,"[6, 9]",1.0,5.0,0.3823580741882324,1.8549268245697021,0.3810131040965686,39.0,395.0,0.0
Y,R,"[6, 10]",1.0,6.0,0.2307908535003662,1.7719368934631348,0.436270432389454,39.0,396.0,0.0
R,U,"[5, 10]",1.0,7.0,0.31232500076293945,1.6783390045166016,0.2648437263406916,39.0,397.0,0.0
R,U,"[4, 10]",1.0,8.0,0.2779510021209717,1.7654190063476562,0.3801340032089591,39.0,398.0,0.0
B,L,"[4, 9]",1.0,9.0,0.29027891159057617,1.8244831562042236,0.4213871470204731,39.0,399.0,0.0
R,U,"[3, 9]",1.0,10.0,0.25409507751464844,1.7162389755249023,0.37105265867982185,39.0,400.0,0.0
,,"(6, 6)",,,,,,,,
R,U,"[5, 6]",1.0,1.0,0.2428741455078125,2.9712321758270264,0.2926360295256523,40.0,401.0,0.0
Y,R,"[5, 7]",1.0,2.0,0.2096879482269287,1.8723089694976807,0.5644577856079087,40.0,402.0,0.0
Y,R,"[5, 8]",1.0,3.0,0.13865995407104492,1.8157331943511963,0.5634730862529211,40.0,403.0,0.0
G,D,"[6, 8]",1.0,4.0,0.17031192779541016,1.8389899730682373,0.5692389526967383,40.0,404.0,0.0
Y,R,"[6, 9]",1.0,5.0,0.1366899013519287,1.5823779106140137,0.35192659415556826,40.0,405.0,0.0
Y,R,"[6, 10]",1.0,6.0,0.2483210563659668,2.0184390544891357,0.6699225467855081,40.0,406.0,0.0
R,U,"[5, 10]",1.0,7.0,0.19779181480407715,1.9373610019683838,0.6404397044456789,40.0,407.0,0.0
R,U,"[4, 10]",1.0,8.0,0.24415993690490723,1.8641159534454346,0.5217700384228641,40.0,408.0,0.0
B,L,"[4, 9]",1.0,9.0,0.2175769805908203,1.8152530193328857,0.5035683005733875,40.0,409.0,0.0
R,U,"[3, 9]",1.0,10.0,0.2197740077972412,1.8258419036865234,0.5127886172148597,40.0,410.0,0.0
,,"(6, 6)",,,,,,,,
R,U,"[5, 6]",1.0,1.0,0.3287379741668701,2.456403970718384,0.6355897510512919,41.0,411.0,0.0
Y,R,"[5, 7]",-1.0,1.0,0.06421899795532227,5.749443054199219,0.5521683069210256,41.0,412.0,0.0
Y,R,"[5, 8]",1.0,2.0,0.24708008766174316,1.8939588069915771,0.5460432651551541,41.0,413.0,0.0
G,D,"[6, 8]",1.0,3.0,0.22412419319152832,1.972687005996704,0.6352871676718088,41.0,414.0,0.0
Y,R,"[6, 9]",1.0,4.0,0.22777986526489258,1.7130320072174072,0.38209963859561197,41.0,415.0,0.0
Y,R,"[6, 10]",1.0,5.0,0.29494309425354004,2.1480631828308105,0.7463780925012835,41.0,416.0,0.0
R,U,"[5, 10]",-1.0,5.0,0.058351993560791016,5.540527105331421,0.35411921869227325,41.0,417.0,0.0
R,U,"[4, 10]",1.0,6.0,0.544558048248291,1.9389610290527344,0.2932375853801058,41.0,418.0,0.0
B,L,"[4, 9]",1.0,7.0,0.6704380512237549,2.378537178039551,0.6214859521092226,41.0,419.0,0.0
R,U,"[3, 9]",1.0,8.0,0.4581739902496338,2.2062549591064453,0.6444093481372843,41.0,420.0,0.0
,,"(6, 6)",,,,,,,,
R,U,"[5, 6]",1.0,1.0,0.4519820213317871,3.7753548622131348,0.7196529511875407,42.0,421.0,0.0
Y,R,"[5, 7]",1.0,2.0,0.24478983879089355,1.960447072982788,0.6136969755220605,42.0,422.0,0.0
Y,R,"[5, 8]",1.0,3.0,0.23856592178344727,1.7680890560150146,0.41532029237795937,42.0,423.0,0.0
G,D,"[6, 8]",1.0,4.0,0.2691168785095215,1.893537998199463,0.5254769237845959,42.0,424.0,0.0
Y,R,"[6, 9]",1.0,5.0,0.22293901443481445,1.6384539604187012,0.3140771055741186,42.0,425.0,0.0
Y,R,"[6, 10]",1.0,6.0,0.3539700508117676,1.9215331077575684,0.4687621414106111,42.0,426.0,0.0
R,U,"[5, 10]",1.0,7.0,0.659398078918457,2.3000400066375732,0.5355434869555575,42.0,427.0,0.0
R,U,"[4, 10]",1.0,8.0,0.32529616355895996,1.7418098449707031,0.31093382540721626,42.0,428.0,0.0
B,L,"[4, 9]",1.0,9.0,0.5000081062316895,2.0482850074768066,0.45903283087070784,42.0,429.0,0.0
R,U,"[3, 9]",1.0,10.0,0.31595587730407715,1.8932030200958252,0.48568510935476106,42.0,430.0,0.0
,,"(6, 6)",,,,,,,,
R,U,"[5, 6]",1.0,1.0,0.2986321449279785,1.8486151695251465,0.2512788007544661,43.0,431.0,0.0
Y,R,"[5, 7]",1.0,2.0,0.23819208145141602,2.066762924194336,0.7341094462872897,43.0,432.0,0.0
Y,R,"[5, 8]",1.0,3.0,0.23554205894470215,1.7972638607025146,0.4650997710147396,43.0,433.0,0.0
G,D,"[6, 8]",1.0,4.0,0.29659295082092285,2.0328779220581055,0.6310775300863762,43.0,434.0,0.0
Y,R,"[6, 9]",1.0,5.0,0.2729380130767822,1.7863521575927734,0.4011079414570338,43.0,435.0,0.0
R,U,"[5, 9]",0.0,5.0,0.40400099754333496,1.7993171215057373,0.30047574814484823,43.0,436.0,0.0
R,U,"[4, 9]",1.0,6.0,0.7631008625030518,2.2818498611450195,0.4157224506409211,43.0,437.0,0.0
R,U,"[3, 9]",1.0,7.0,0.36187100410461426,2.1510169506073,0.6830509497807498,43.0,438.0,0.0
B,L,"[3, 8]",0.0,7.0,0.2129058837890625,1.9509921073913574,0.6341926981086083,43.0,439.0,0.0
R,U,"[2, 8]",0.0,7.0,0.2390141487121582,1.613732099533081,0.26504923378441647,43.0,440.0,0.0
,,"(6, 6)",,,,,,,,
R,U,"[5, 6]",1.0,1.0,0.2789168357849121,3.612161159515381,0.6767332343096639,44.0,441.0,0.0
Y,R,"[5, 7]",1.0,2.0,0.21363306045532227,1.637282133102417,0.3311651828623808,44.0,442.0,0.0
Y,R,"[5, 8]",1.0,3.0,0.3925449848175049,2.0540311336517334,0.5515281943423316,44.0,443.0,0.0
G,D,"[6, 8]",1.0,4.0,0.2617337703704834,1.9616739749908447,0.5965327023062281,44.0,444.0,0.0
Y,R,"[6, 9]",1.0,5.0,0.26103901863098145,2.006639003753662,0.6366362568701036,44.0,445.0,0.0
Y,R,"[6, 10]",1.0,6.0,0.2669260501861572,1.7133820056915283,0.35021597371975655,44.0,446.0,0.0
R,U,"[5, 10]",1.0,7.0,0.38260388374328613,1.885411024093628,0.4022712156530843,44.0,447.0,0.0
R,U,"[4, 10]",1.0,8.0,0.2732369899749756,1.9136390686035156,0.5325972360493183,44.0,448.0,0.0
B,L,"[4, 9]",1.0,9.0,0.23377299308776855,1.8986539840698242,0.564584556274172,44.0,449.0,0.0
R,U,"[3, 9]",1.0,10.0,0.21164703369140625,1.7419259548187256,0.4232594004856423,44.0,450.0,0.0
,,"(6, 6)",,,,,,,,
R,U,"[5, 6]",1.0,1.0,0.18912100791931152,2.3198699951171875,0.6096411302407868,45.0,451.0,0.0
Y,R,"[5, 7]",-1.0,1.0,0.0018398761749267578,5.735789060592651,0.6121390330795486,45.0,452.0,0.0
Y,R,"[5, 8]",1.0,2.0,0.2636258602142334,1.6840541362762451,0.3299308393836998,45.0,453.0,0.0
G,D,"[6, 8]",1.0,3.0,0.27266883850097656,1.8290159702301025,0.44214926153712286,45.0,454.0,0.0
Y,R,"[6, 9]",1.0,4.0,0.18010497093200684,1.957794189453125,0.6829807780607713,45.0,455.0,0.0
Y,R,"[6, 10]",1.0,5.0,0.24066495895385742,1.766050100326538,0.4160090003641456,45.0,456.0,0.0
R,U,"[5, 10]",1.0,6.0,0.26508593559265137,1.9612040519714355,0.5937475454771208,45.0,457.0,0.0
R,U,"[4, 10]",1.0,7.0,0.216810941696167,1.7568950653076172,0.45063466566988364,45.0,458.0,0.0
B,L,"[4, 9]",1.0,8.0,0.29037904739379883,2.004202127456665,0.6048630207814643,45.0,459.0,0.0
R,U,"[3, 9]",1.0,9.0,0.20029401779174805,1.8332149982452393,0.5382285122914373,45.0,460.0,0.0
,,"(6, 6)",,,,,,,,
R,U,"[5, 6]",1.0,1.0,0.2796790599822998,2.9437170028686523,0.2989475108562683,46.0,461.0,0.0
Y,R,"[5, 7]",1.0,2.0,0.3042480945587158,1.9353399276733398,0.5342357812591224,46.0,462.0,0.0
Y,R,"[5, 8]",1.0,3.0,0.21992111206054688,1.7521908283233643,0.4364925845255157,46.0,463.0,0.0
G,D,"[6, 8]",1.0,4.0,0.20217394828796387,1.5692880153656006,0.27262508889520615,46.0,464.0,0.0
Y,R,"[6, 9]",1.0,5.0,0.31232285499572754,1.8681070804595947,0.45720544228695575,46.0,465.0,0.0
Y,R,"[6, 10]",1.0,6.0,0.22565698623657227,1.9344730377197266,0.6082971306666252,46.0,466.0,0.0
R,U,"[5, 10]",1.0,7.0,0.22578001022338867,1.645315170288086,0.32045178882870134,46.0,467.0,0.0
R,U,"[4, 10]",1.0,8.0,0.573173999786377,2.2113239765167236,0.5316881044358375,46.0,468.0,0.0
B,L,"[4, 9]",1.0,9.0,0.22495198249816895,1.5909450054168701,0.256168515673618,46.0,469.0,0.0
R,U,"[3, 9]",1.0,10.0,0.253709077835083,1.6052210330963135,0.2615675348763441,46.0,470.0,0.0
,,"(6, 6)",,,,,,,,
R,U,"[5, 6]",1.0,1.0,0.2356429100036621,2.1878650188446045,0.4492494715792909,47.0,471.0,0.0
Y,R,"[5, 7]",1.0,2.0,0.20369195938110352,1.8700611591339111,0.5690679429655485,47.0,472.0,0.0
Y,R,"[5, 8]",1.0,3.0,0.18637704849243164,1.6134281158447266,0.332865977360646,47.0,473.0,0.0
G,D,"[6, 8]",1.0,4.0,0.262531042098999,1.7230970859527588,0.3560466248821148,47.0,474.0,0.0
Y,R,"[6, 9]",1.0,5.0,0.26090002059936523,1.9529509544372559,0.5920374181281243,47.0,475.0,0.0
Y,R,"[6, 10]",1.0,6.0,0.13892602920532227,1.6392178535461426,0.39811907071656244,47.0,476.0,0.0
R,U,"[5, 10]",1.0,7.0,0.4431607723236084,2.2250568866729736,0.6729741415603785,47.0,477.0,0.0
R,U,"[4, 10]",1.0,8.0,0.23868298530578613,1.6025669574737549,0.2592850958191579,47.0,478.0,0.0
B,L,"[4, 9]",1.0,9.0,0.48464107513427734,1.8527090549468994,0.2786222303542087,47.0,479.0,0.0
R,U,"[3, 9]",1.0,10.0,0.3157379627227783,1.7948870658874512,0.3902375633720608,47.0,480.0,0.0
,,"(6, 6)",,,,,,,,
R,U,"[5, 6]",1.0,1.0,0.5235261917114258,2.6701390743255615,0.5436055009642836,48.0,481.0,0.0
Y,R,"[5, 7]",1.0,2.0,0.30631303787231445,1.7206270694732666,0.314408567200086,48.0,482.0,0.0
Y,R,"[5, 8]",1.0,3.0,0.36971306800842285,1.800577163696289,0.3317295747670569,48.0,483.0,0.0
G,D,"[6, 8]",1.0,4.0,0.34476709365844727,1.8394908905029297,0.3875653354354066,48.0,484.0,0.0
Y,R,"[6, 9]",1.0,5.0,0.2950170040130615,1.961456060409546,0.5658456574311146,48.0,485.0,0.0
Y,R,"[6, 10]",-1.0,5.0,0.02631998062133789,5.737963914871216,0.5869881075483987,48.0,486.0,0.0
R,U,"[5, 10]",1.0,6.0,0.2956259250640869,1.7774360179901123,0.38144815557061273,48.0,487.0,0.0
R,U,"[4, 10]",1.0,7.0,0.288470983505249,2.006063938140869,0.604117931407235,48.0,488.0,0.0
B,L,"[4, 9]",1.0,8.0,0.19629311561584473,1.9659779071807861,0.6699744254145927,48.0,489.0,0.0
R,U,"[3, 9]",1.0,9.0,0.24120783805847168,1.7584800720214844,0.41201727231618634,48.0,490.0,0.0
,,"(6, 6)",,,,,,,,
R,U,"[5, 6]",1.0,1.0,0.5713620185852051,3.845465898513794,0.5407592029671613,49.0,491.0,0.0
Y,R,"[5, 7]",1.0,2.0,0.21625995635986328,1.680582046508789,0.3715726364978462,49.0,492.0,0.0
Y,R,"[5, 8]",1.0,3.0,0.23217296600341797,1.619837999343872,0.2915936921948699,49.0,493.0,0.0
G,D,"[6, 8]",1.0,4.0,0.2244260311126709,1.7960069179534912,0.4707110334226114,49.0,494.0,0.0
Y,R,"[6, 9]",1.0,5.0,0.21124505996704102,1.9830338954925537,0.6702689577855472,49.0,495.0,0.0
Y,R,"[6, 10]",1.0,6.0,0.21099400520324707,1.9394659996032715,0.6264612762093009,49.0,496.0,0.0
R,U,"[5, 10]",1.0,7.0,0.1978600025177002,2.004934072494507,0.714715383727554,49.0,497.0,0.0
R,U,"[4, 10]",1.0,8.0,0.1961350440979004,1.7470641136169434,0.44543385670388425,49.0,498.0,0.0
B,L,"[4, 9]",1.0,9.0,0.31700992584228516,2.0156729221343994,0.6109669488577908,49.0,499.0,0.0
R,U,"[3, 9]",-1.0,9.0,0.021694183349609375,5.743561029434204,0.6045990401673431,49.0,500.0,0.0
,,"(6, 6)",,,,,,,,
R,U,"[5, 6]",1.0,1.0,0.3323709964752197,3.72196888923645,0.626440725736958,50.0,501.0,0.0
Y,R,"[5, 7]",1.0,2.0,0.249129056930542,1.8158948421478271,0.4758637022256992,50.0,502.0,0.0
Y,R,"[5, 8]",1.0,3.0,0.27053308486938477,1.9045400619506836,0.5472548621623724,50.0,503.0,0.0
G,D,"[6, 8]",1.0,4.0,0.204909086227417,2.057158946990967,0.7375171926421391,50.0,504.0,0.0
Y,R,"[6, 9]",1.0,5.0,0.22939205169677734,1.672252893447876,0.3435148453107682,50.0,505.0,0.0
Y,R,"[6, 10]",1.0,6.0,0.48327112197875977,2.2313921451568604,0.6579847223267643,50.0,506.0,0.0
R,U,"[5, 10]",1.0,7.0,0.26310300827026367,1.6265079975128174,0.26831131804680625,50.0,507.0,0.0
R,U,"[4, 10]",1.0,8.0,0.5217809677124023,2.0598769187927246,0.44459252842345826,50.0,508.0,0.0
B,L,"[4, 9]",1.0,9.0,0.26192712783813477,1.9774880409240723,0.6219570667638129,50.0,509.0,0.0
R,U,"[3, 9]",1.0,10.0,0.28242993354797363,1.7866771221160889,0.4089004093384629,50.0,510.0,0.0
,,"(6, 6)",,,,,,,,
R,U,"[5, 6]",1.0,1.0,0.28321099281311035,2.293398141860962,0.6353677332506706,51.0,511.0,0.0
Y,R,"[5, 7]",1.0,2.0,0.24261784553527832,1.7969880104064941,0.44938569971335274,51.0,512.0,0.0
Y,R,"[5, 8]",1.0,3.0,0.4904019832611084,2.2517659664154053,0.6508035936113471,51.0,513.0,0.0
G,D,"[6, 8]",1.0,4.0,0.24274611473083496,2.045581102371216,0.6964437641358722,51.0,514.0,0.0
Y,R,"[6, 9]",1.0,5.0,0.19786405563354492,1.5627479553222656,0.2597032712541884,51.0,515.0,0.0
Y,R,"[6, 10]",1.0,6.0,0.4586820602416992,2.115083932876587,0.5578142158780348,51.0,516.0,0.0
R,U,"[5, 10]",1.0,7.0,0.29160094261169434,1.8959660530090332,0.5039718823810628,51.0,517.0,0.0
R,U,"[4, 10]",1.0,8.0,0.2988159656524658,2.010986804962158,0.61487900038294,51.0,518.0,0.0
B,L,"[4, 9]",1.0,9.0,0.2454240322113037,1.819823980331421,0.4682261697071889,51.0,519.0,0.0
R,U,"[3, 9]",1.0,10.0,0.2669539451599121,1.9975109100341797,0.6321671301597693,51.0,520.0,0.0
,,"(6, 6)",,,,,,,,
R,U,"[5, 6]",1.0,1.0,0.20969390869140625,2.364956855773926,0.7471427735459837,52.0,521.0,0.0
Y,R,"[5, 7]",-1.0,1.0,0.022703886032104492,5.639250040054321,0.4866516721537888,52.0,522.0,0.0
Y,R,"[5, 8]",1.0,2.0,0.42620015144348145,1.803236961364746,0.27348295924999944,52.0,523.0,0.0
G,D,"[6, 8]",1.0,3.0,0.42723584175109863,2.185429811477661,0.6586765552245444,52.0,524.0,0.0
Y,R,"[6, 9]",-1.0,3.0,0.08156895637512207,5.5560829639434814,0.34846724398996465,52.0,525.0,0.0
R,U,"[5, 9]",0.0,3.0,0.3934791088104248,2.0695040225982666,0.5678584516200327,52.0,526.0,0.0
R,U,"[4, 9]",1.0,4.0,0.275770902633667,2.012241840362549,0.6300023095528677,52.0,527.0,0.0
R,U,"[3, 9]",1.0,5.0,0.24329710006713867,2.0091569423675537,0.6557960860185711,52.0,528.0,0.0
B,L,"[3, 8]",0.0,5.0,0.23545098304748535,1.754709005355835,0.4274104790445344,52.0,529.0,0.0
R,U,"[2, 8]",0.0,5.0,0.37240099906921387,2.133941888809204,0.661171735331973,52.0,530.0,0.0
,,"(6, 6)",,,,,,,,
R,U,"[5, 6]",1.0,1.0,0.3793449401855469,2.758790969848633,0.2703551883255869,53.0,531.0,0.0
Y,R,"[5, 7]",1.0,2.0,0.3962368965148926,2.1775271892547607,0.6809695092519801,53.0,532.0,0.0
Y,R,"[5, 8]",1.0,3.0,0.2555501461029053,1.9887590408325195,0.6363875773903667,53.0,533.0,0.0
G,D,"[6, 8]",1.0,4.0,0.21901702880859375,1.5663070678710938,0.25309688741039804,53.0,534.0,0.0
Y,R,"[6, 9]",1.0,5.0,0.8074548244476318,2.3398139476776123,0.42622684338227385,53.0,535.0,0.0
Y,R,"[6, 10]",1.0,6.0,0.4402129650115967,2.0138180255889893,0.4733090995260357,53.0,536.0,0.0
R,U,"[5, 10]",1.0,7.0,0.2665700912475586,1.7798969745635986,0.4199663245738568,53.0,537.0,0.0
R,U,"[4, 10]",1.0,8.0,0.25223708152770996,1.6059978008270264,0.2594113851165104,53.0,538.0,0.0
B,L,"[4, 9]",1.0,9.0,0.39136409759521484,2.0437569618225098,0.5528290409701784,53.0,539.0,0.0
R,U,"[3, 9]",1.0,10.0,0.19849300384521484,1.7280051708221436,0.4310788670953699,53.0,540.0,0.0
,,"(6, 6)",,,,,,,,
R,U,"[5, 6]",1.0,1.0,0.2693939208984375,2.4232981204986572,0.437757947946111,54.0,541.0,0.0
Y,R,"[5, 7]",1.0,2.0,0.2478640079498291,1.7512381076812744,0.40573503213025613,54.0,542.0,0.0
Y,R,"[5, 8]",1.0,3.0,0.28161001205444336,1.7378990650177002,0.3602971947330101,54.0,543.0,0.0
G,D,"[6, 8]",1.0,4.0,0.2854790687561035,2.0516622066497803,0.6784920175680904,54.0,544.0,0.0
Y,R,"[6, 9]",1.0,5.0,0.1936490535736084,1.5771589279174805,0.2894066120810342,54.0,545.0,0.0
Y,R,"[6, 10]",1.0,6.0,0.43901801109313965,2.1574018001556396,0.6131732517310017,54.0,546.0,0.0
R,U,"[5, 10]",1.0,7.0,0.2346038818359375,1.9420700073242188,0.6049381844956677,54.0,547.0,0.0
R,U,"[4, 10]",1.0,8.0,0.3504669666290283,1.9580919742584229,0.5134156321601455,54.0,548.0,0.0
B,L,"[4, 9]",1.0,9.0,0.22879886627197266,2.0202219486236572,0.6835163853556117,54.0,549.0,0.0
R,U,"[3, 9]",1.0,10.0,0.19405508041381836,1.5519039630889893,0.2526527983718792,54.0,550.0,0.0
,,"(6, 6)",,,,,,,,
R,U,"[5, 6]",1.0,1.0,0.2460160255432129,2.3106560707092285,0.6962427431810864,55.0,551.0,0.0
Y,R,"[5, 7]",-1.0,1.0,0.016681909561157227,5.616847038269043,0.4633191277465391,55.0,552.0,0.0
Y,R,"[5, 8]",1.0,2.0,0.42789506912231445,1.9937059879302979,0.45708047385771255,55.0,553.0,0.0
Y,R,"[5, 9]",0.0,2.0,0.3048129081726074,1.9797120094299316,0.5700938759801315,55.0,554.0,0.0
R,U,"[4, 9]",1.0,3.0,0.23540496826171875,1.8376779556274414,0.5077548001573969,55.0,555.0,0.0
R,U,"[3, 9]",1.0,4.0,0.27524900436401367,2.037153959274292,0.6619865057946137,55.0,556.0,0.0
B,L,"[3, 8]",0.0,4.0,0.22495603561401367,1.8085219860076904,0.48688545366997277,55.0,557.0,0.0
R,U,"[2, 8]",0.0,4.0,0.6670970916748047,2.4675538539886475,0.7043370101698934,55.0,558.0,0.0
R,U,"[1, 8]",0.0,4.0,0.625715970993042,2.3947789669036865,0.6658197564233709,55.0,559.0,0.0
B,L,"[1, 7]",-2.0,4.0,1.0710349082946777,2.6798911094665527,0.5625734816391113,55.0,560.0,0.0
,,"(6, 6)",,,,,,,,
R,U,"[5, 6]",1.0,1.0,0.3464319705963135,3.9304311275482178,0.31021557786163273,56.0,561.0,0.0
Y,R,"[5, 7]",1.0,2.0,0.3801589012145996,1.8056979179382324,0.3322978561512041,56.0,562.0,0.0
Y,R,"[5, 8]",1.0,3.0,0.47245287895202637,1.999553918838501,0.415258621645874,56.0,563.0,0.0
G,D,"[6, 8]",1.0,4.0,0.36475205421447754,2.0671639442443848,0.5988095120366415,56.0,564.0,0.0
Y,R,"[6, 9]",1.0,5.0,0.24786114692687988,1.7233991622924805,0.3726072579044419,56.0,565.0,0.0
Y,R,"[6, 10]",1.0,6.0,0.3023052215576172,1.9704749584197998,0.5762187328947627,56.0,566.0,0.0
R,U,"[5, 10]",1.0,7.0,0.26169610023498535,2.0173799991607666,0.6600653497135869,56.0,567.0,0.0
R,U,"[4, 10]",1.0,8.0,0.20808696746826172,1.964050054550171,0.6576281798837758,56.0,568.0,0.0
B,L,"[4, 9]",1.0,9.0,0.2494220733642578,1.9506001472473145,0.6082362919291009,56.0,569.0,0.0
R,U,"[3, 9]",1.0,10.0,0.20963096618652344,1.8227851390838623,0.5145451012096266,56.0,570.0,0.0
,,"(6, 6)",,,,,,,,
R,U,"[5, 6]",1.0,1.0,0.30946993827819824,2.1214640140533447,0.2528849574927098,57.0,571.0,0.0
Y,R,"[5, 7]",1.0,2.0,0.4177219867706299,2.228729009628296,0.7143986709272612,57.0,572.0,0.0
Y,R,"[5, 8]",1.0,3.0,0.24650001525878906,1.6471889019012451,0.29532867605577323,57.0,573.0,0.0
G,D,"[6, 8]",1.0,4.0,0.3251609802246094,1.8499269485473633,0.4287136480185879,57.0,574.0,0.0
Y,R,"[6, 9]",1.0,5.0,0.38808608055114746,1.7863211631774902,0.3150307635137951,57.0,575.0,0.0
Y,R,"[6, 10]",1.0,6.0,0.3241419792175293,1.88993501663208,0.454981901761653,57.0,576.0,0.0
R,U,"[5, 10]",1.0,7.0,0.2215108871459961,1.9629981517791748,0.6345380301452819,57.0,577.0,0.0
R,U,"[4, 10]",1.0,8.0,0.22339200973510742,1.938694953918457,0.6066249306967175,57.0,578.0,0.0
B,L,"[4, 9]",1.0,9.0,0.23910880088806152,1.9125230312347412,0.5691406849165326,57.0,579.0,0.0
R,U,"[3, 9]",1.0,10.0,0.22655487060546875,1.76363205909729,0.433009859229431,57.0,580.0,0.0
,,"(6, 6)",,,,,,,,
R,U,"[5, 6]",1.0,1.0,0.17519593238830566,2.3175101280212402,0.6835951290804753,58.0,581.0,0.0
Y,R,"[5, 7]",1.0,2.0,0.24511408805847168,1.8441839218139648,0.49478283457647265,58.0,582.0,0.0
Y,R,"[5, 8]",1.0,3.0,0.3569469451904297,2.039536952972412,0.5842102583226332,58.0,583.0,0.0
G,D,"[6, 8]",1.0,4.0,0.26509714126586914,1.9003469944000244,0.5346493732153214,58.0,584.0,0.0
Y,R,"[6, 9]",1.0,5.0,0.30124402046203613,1.9359729290008545,0.5372660270072742,58.0,585.0,0.0
Y,R,"[6, 10]",1.0,6.0,0.15851211547851562,1.6212801933288574,0.35873189776462566,58.0,586.0,0.0
R,U,"[5, 10]",1.0,7.0,0.3103039264678955,1.830967903137207,0.42299078422783876,58.0,587.0,0.0
R,U,"[4, 10]",1.0,8.0,0.30503010749816895,1.9210739135742188,0.5106531017979548,58.0,588.0,0.0
B,L,"[4, 9]",1.0,9.0,0.23938703536987305,1.9240789413452148,0.5847425451184831,58.0,589.0,0.0
R,U,"[3, 9]",1.0,10.0,0.23720407485961914,1.837587833404541,0.48919541734480865,58.0,590.0,0.0
,,"(6, 6)",,,,,,,,
R,U,"[5, 6]",1.0,1.0,0.23014497756958008,2.447316884994507,0.40322223289092757,59.0,591.0,0.0
Y,R,"[5, 7]",1.0,2.0,0.4262731075286865,2.0533218383789062,0.5231381513953619,59.0,592.0,0.0
Y,R,"[5, 8]",1.0,3.0,0.24092698097229004,1.8039498329162598,0.46043548922879357,59.0,593.0,0.0
G,D,"[6, 8]",1.0,4.0,0.20598912239074707,1.9096400737762451,0.603654573793968,59.0,594.0,0.0
Y,R,"[6, 9]",1.0,5.0,0.2734360694885254,1.9281680583953857,0.548340131475944,59.0,595.0,0.0
Y,R,"[6, 10]",1.0,6.0,0.22430086135864258,1.688662052154541,0.3537863395421722,59.0,596.0,0.0
R,U,"[5, 10]",1.0,7.0,0.24648594856262207,1.7373080253601074,0.3911934004432283,59.0,597.0,0.0
R,U,"[4, 10]",1.0,8.0,0.3177790641784668,1.9892518520355225,0.5801830791033394,59.0,598.0,0.0
B,L,"[4, 9]",1.0,9.0,0.22158193588256836,1.7767839431762695,0.4572708228626163,59.0,599.0,0.0
R,U,"[3, 9]",1.0,10.0,0.2611210346221924,1.9206011295318604,0.5610389341293865,59.0,600.0,0.0
,,"(6, 6)",,,,,,,,
R,U,"[5, 6]",1.0,1.0,0.3928837776184082,3.0621581077575684,0.6234108587440277,60.0,601.0,0.0
Y,R,"[5, 7]",1.0,2.0,0.2339339256286621,1.5772500038146973,0.2508607766840012,60.0,602.0,0.0
Y,R,"[5, 8]",1.0,3.0,0.3840761184692383,1.7589480876922607,0.2764603480159155,60.0,603.0,0.0
G,D,"[6, 8]",1.0,4.0,0.3397030830383301,2.026484966278076,0.5860649269621483,60.0,604.0,0.0
Y,R,"[6, 9]",1.0,5.0,0.23046612739562988,1.7551109790802002,0.42475875342429503,60.0,605.0,0.0
Y,R,"[6, 10]",1.0,6.0,0.36052989959716797,2.069031000137329,0.6101827667847113,60.0,606.0,0.0
R,U,"[5, 10]",1.0,7.0,0.2652249336242676,1.8296458721160889,0.4733261720061122,60.0,607.0,0.0
R,U,"[4, 10]",1.0,8.0,0.27751803398132324,1.901458978652954,0.5248325409294015,60.0,608.0,0.0
B,L,"[4, 9]",1.0,9.0,0.24198389053344727,1.952775001525879,0.6109020339055033,60.0,609.0,0.0
R,U,"[3, 9]",1.0,10.0,0.24725008010864258,1.733522891998291,0.39454372557165523,60.0,610.0,0.0
,,"(6, 6)",,,,,,,,
R,U,"[5, 6]",1.0,1.0,0.2537670135498047,2.816555976867676,0.5277143992669149,61.0,611.0,0.0
Y,R,"[5, 7]",1.0,2.0,0.2630641460418701,1.8942949771881104,0.5388042951475256,61.0,612.0,0.0
Y,R,"[5, 8]",1.0,3.0,0.2571389675140381,1.7807838916778564,0.41976836893947717,61.0,613.0,0.0
G,D,"[6, 8]",1.0,4.0,0.28809404373168945,1.7170169353485107,0.3367584744631264,61.0,614.0,0.0
Y,R,"[6, 9]",1.0,5.0,0.30904293060302734,1.766726016998291,0.35351166968934683,61.0,615.0,0.0
Y,R,"[6, 10]",1.0,6.0,0.2708470821380615,2.059098958969116,0.6790688986472497,61.0,616.0,0.0
R,U,"[5, 10]",1.0,7.0,0.17316699028015137,2.0324249267578125,0.7448085897558234,61.0,617.0,0.0
R,U,"[4, 10]",1.0,8.0,0.2294139862060547,1.9894499778747559,0.6679308584664314,61.0,618.0,0.0
B,L,"[4, 9]",1.0,9.0,0.22339916229248047,1.7700679302215576,0.4380039265616512,61.0,619.0,0.0
R,U,"[3, 9]",1.0,10.0,0.2791149616241455,2.053887128829956,0.6749832674244727,61.0,620.0,0.0
,,"(6, 6)",,,,,,,,
R,U,"[5, 6]",1.0,1.0,0.2534761428833008,2.947859048843384,0.40640493592884785,62.0,621.0,0.0
Y,R,"[5, 7]",1.0,2.0,0.2668919563293457,1.7003159523010254,0.340229470259396,62.0,622.0,0.0
Y,R,"[5, 8]",1.0,3.0,0.24692296981811523,1.682093858718872,0.3390764805071557,62.0,623.0,0.0
G,D,"[6, 8]",1.0,4.0,0.3456730842590332,2.052489995956421,0.6079679961170688,62.0,624.0,0.0
Y,R,"[6, 9]",1.0,5.0,0.14188003540039062,1.9119489192962646,0.6699193550768919,62.0,625.0,0.0
Y,R,"[6, 10]",1.0,6.0,0.16370177268981934,1.6154210567474365,0.35238020603552883,62.0,626.0,0.0
R,U,"[5, 10]",1.0,7.0,0.3186068534851074,1.9844400882720947,0.5700209248658674,62.0,627.0,0.0
R,U,"[4, 10]",1.0,8.0,0.75699782371521,2.608017921447754,0.7444326157756523,62.0,628.0,0.0
B,L,"[4, 9]",1.0,9.0,0.22731399536132812,1.752305030822754,0.4304657348088555,62.0,629.0,0.0
R,U,"[3, 9]",1.0,10.0,0.2662479877471924,1.6790709495544434,0.3096835347887097,62.0,630.0,0.0
,,"(6, 6)",,,,,,,,
R,U,"[5, 6]",1.0,1.0,0.2703728675842285,1.9559807777404785,0.3318653215928423,63.0,631.0,0.0
Y,R,"[5, 7]",1.0,2.0,0.3084750175476074,1.7500278949737549,0.33245661655905184,63.0,632.0,0.0
Y,R,"[5, 8]",1.0,3.0,0.25952911376953125,2.0645840167999268,0.6965863472550708,63.0,633.0,0.0
G,D,"[6, 8]",1.0,4.0,0.22535920143127441,2.0080409049987793,0.6713643646776795,63.0,634.0,0.0
Y,R,"[6, 9]",1.0,5.0,0.22289800643920898,2.055893898010254,0.743911794082279,63.0,635.0,0.0
Y,R,"[6, 10]",1.0,6.0,0.2349700927734375,1.9312231540679932,0.6087306018543142,63.0,636.0,0.0
R,U,"[5, 10]",1.0,7.0,0.2448439598083496,1.6509981155395508,0.3100903715864252,63.0,637.0,0.0
R,U,"[4, 10]",1.0,8.0,0.30086517333984375,1.892760992050171,0.5025653254347271,63.0,638.0,0.0
B,L,"[4, 9]",1.0,9.0,0.23411893844604492,1.6059210300445557,0.27544603693292186,63.0,639.0,0.0
R,U,"[3, 9]",1.0,10.0,0.3120100498199463,1.7931509017944336,0.3851077804155055,63.0,640.0,0.0
,,"(6, 6)",,,,,,,,
R,U,"[5, 6]",1.0,1.0,0.3533201217651367,4.01629900932312,0.4515945935653598,64.0,641.0,0.0
Y,R,"[5, 7]",1.0,2.0,0.2045290470123291,1.8746860027313232,0.5595833337845841,64.0,642.0,0.0
Y,R,"[5, 8]",1.0,3.0,0.20330405235290527,1.8891382217407227,0.5985019921999963,64.0,643.0,0.0
G,D,"[6, 8]",1.0,4.0,0.11397314071655273,1.573364019393921,0.35563945029699934,64.0,644.0,0.0
Y,R,"[6, 9]",1.0,5.0,0.36924314498901367,1.9776620864868164,0.5164376696101385,64.0,645.0,0.0
Y,R,"[6, 10]",1.0,6.0,0.20905780792236328,1.7317869663238525,0.4148267513475726,64.0,646.0,0.0
R,U,"[5, 10]",1.0,7.0,0.2552919387817383,1.8092470169067383,0.44095718414309526,64.0,647.0,0.0
R,U,"[4, 10]",1.0,8.0,0.23486590385437012,1.6153309345245361,0.2896450527931433,64.0,648.0,0.0
B,L,"[4, 9]",1.0,9.0,0.3243107795715332,2.043468952178955,0.6163710964046949,64.0,649.0,0.0
R,U,"[3, 9]",1.0,10.0,0.18131709098815918,1.7518470287322998,0.46820518576023257,64.0,650.0,0.0
,,"(6, 6)",,,,,,,,
R,U,"[5, 6]",1.0,1.0,0.20284795761108398,2.7228338718414307,0.3579158286540555,65.0,651.0,0.0
Y,R,"[5, 7]",1.0,2.0,0.33867788314819336,1.8606469631195068,0.41851006322187667,65.0,652.0,0.0
Y,R,"[5, 8]",1.0,3.0,0.3201019763946533,1.800732135772705,0.3694224710626642,65.0,653.0,0.0
G,D,"[6, 8]",1.0,4.0,0.3324930667877197,2.0580921173095703,0.6273196498096882,65.0,654.0,0.0
Y,R,"[6, 9]",1.0,5.0,0.21532821655273438,1.6327450275421143,0.3269662138952214,65.0,655.0,0.0
Y,R,"[6, 10]",1.0,6.0,0.3099231719970703,2.01724910736084,0.6106039807016832,65.0,656.0,0.0
R,U,"[5, 10]",1.0,7.0,0.2315380573272705,1.6926331520080566,0.3702111865300874,65.0,657.0,0.0
R,U,"[4, 10]",1.0,8.0,0.4493119716644287,1.8339900970458984,0.28774952130829945,65.0,658.0,0.0
B,L,"[4, 9]",1.0,9.0,0.36876487731933594,2.1151039600372314,0.652301932191813,65.0,659.0,0.0
R,U,"[3, 9]",1.0,10.0,0.21164512634277344,1.91538405418396,0.6013117525054255,65.0,660.0,0.0
,,"(6, 6)",,,,,,,,
R,U,"[5, 6]",1.0,1.0,0.31441402435302734,2.4915359020233154,0.7427313407743079,66.0,661.0,0.0
Y,R,"[5, 7]",1.0,2.0,0.19075989723205566,1.7713990211486816,0.4810403971891336,66.0,662.0,0.0
Y,R,"[5, 8]",1.0,3.0,0.25060200691223145,1.643984079360962,0.2919372430476316,66.0,663.0,0.0
G,D,"[6, 8]",1.0,4.0,0.4393289089202881,2.1701231002807617,0.6284694686454513,66.0,664.0,0.0
Y,R,"[6, 9]",1.0,5.0,0.11572408676147461,1.6874849796295166,0.48273785951154086,66.0,665.0,0.0
Y,R,"[6, 10]",1.0,6.0,0.6869351863861084,2.237170934677124,0.4366160397556635,66.0,666.0,0.0
G,D,"[7, 10]",0.0,6.0,0.3192901611328125,2.0256590843200684,0.6123064722570419,66.0,667.0,0.0
R,U,"[6, 10]",0.0,6.0,0.2767319679260254,1.76249098777771,0.39171694104093063,66.0,668.0,0.0
R,U,"[5, 10]",1.0,7.0,0.24239492416381836,1.7627811431884766,0.4210616446880879,66.0,669.0,0.0
B,L,"[5, 9]",0.0,7.0,0.3832530975341797,1.7809269428253174,0.3021051489475929,66.0,670.0,0.0
,,"(6, 6)",,,,,,,,
R,U,"[5, 6]",1.0,1.0,0.3480222225189209,3.128962993621826,0.431097088527783,67.0,671.0,0.0
Y,R,"[5, 7]",1.0,2.0,0.25006604194641113,1.852344036102295,0.5000951495472834,67.0,672.0,0.0
Y,R,"[5, 8]",1.0,3.0,0.28013110160827637,1.8465831279754639,0.46317008081458155,67.0,673.0,0.0
G,D,"[6, 8]",1.0,4.0,0.24937701225280762,2.0775909423828125,0.7240493075457901,67.0,674.0,0.0
Y,R,"[6, 9]",1.0,5.0,0.23278498649597168,1.680276870727539,0.3547645139986992,67.0,675.0,0.0
Y,R,"[6, 10]",1.0,6.0,0.2787048816680908,1.6736109256744385,0.2949873934984554,67.0,676.0,0.0
R,U,"[5, 10]",1.0,7.0,0.2819399833679199,1.6964821815490723,0.3250193041008168,67.0,677.0,0.0
R,U,"[4, 10]",1.0,8.0,0.6008119583129883,2.365402936935425,0.6733253828490504,67.0,678.0,0.0
B,L,"[4, 9]",1.0,9.0,0.22620487213134766,1.7659008502960205,0.43938096757439415,67.0,679.0,0.0
R,U,"[3, 9]",1.0,10.0,0.2636411190032959,1.6311860084533691,0.27076967477588076,67.0,680.0,0.0
,,"(6, 6)",,,,,,,,
R,U,"[5, 6]",1.0,1.0,0.332395076751709,2.234833002090454,0.5388608502925587,68.0,681.0,0.0
Y,R,"[5, 7]",1.0,2.0,0.10125398635864258,1.4927551746368408,0.2985066559695117,68.0,682.0,0.0
Y,R,"[5, 8]",1.0,3.0,0.45395994186401367,2.1528701782226562,0.6010985323044002,68.0,683.0,0.0
G,D,"[6, 8]",1.0,4.0,0.22945094108581543,1.7302069664001465,0.39819063714299974,68.0,684.0,0.0
Y,R,"[6, 9]",1.0,5.0,0.4397921562194824,2.0349490642547607,0.483168356968757,68.0,685.0,0.0
Y,R,"[6, 10]",1.0,6.0,0.30085182189941406,1.7729558944702148,0.3728459501992008,68.0,686.0,0.0
R,U,"[5, 10]",1.0,7.0,0.35504794120788574,1.9746551513671875,0.530707022409209,68.0,687.0,0.0
R,U,"[4, 10]",1.0,8.0,0.27663588523864746,2.0529959201812744,0.6668439185914705,68.0,688.0,0.0
B,L,"[4, 9]",1.0,9.0,0.22780299186706543,1.6470940113067627,0.3143721697601966,68.0,689.0,0.0
R,U,"[3, 9]",1.0,10.0,0.3078272342681885,1.6719639301300049,0.25305510685285354,68.0,690.0,0.0
,,"(6, 6)",,,,,,,,
R,U,"[5, 6]",1.0,1.0,0.5430200099945068,3.032064914703369,0.468380720936769,69.0,691.0,0.0
Y,R,"[5, 7]",1.0,2.0,0.21143698692321777,1.7217819690704346,0.40690837644343936,69.0,692.0,0.0
Y,R,"[5, 8]",1.0,3.0,0.27475404739379883,1.804948091506958,0.42859603340373215,69.0,693.0,0.0
G,D,"[6, 8]",1.0,4.0,0.6835100650787354,2.3213860988616943,0.5499102203075927,69.0,694.0,0.0
Y,R,"[6, 9]",1.0,5.0,0.38420605659484863,2.0819640159606934,0.5984075409756024,69.0,695.0,0.0
Y,R,"[6, 10]",1.0,6.0,0.32015490531921387,1.953474998474121,0.5353528426426579,69.0,696.0,0.0
R,U,"[5, 10]",1.0,7.0,0.2720530033111572,2.1051180362701416,0.7236668018455207,69.0,697.0,0.0
R,U,"[4, 10]",1.0,8.0,0.2412710189819336,2.0271410942077637,0.6842159456603636,69.0,698.0,0.0
B,L,"[4, 9]",1.0,9.0,0.2249009609222412,1.6868550777435303,0.3548052764564733,69.0,699.0,0.0
R,U,"[3, 9]",1.0,10.0,0.2998650074005127,2.0281670093536377,0.6327384980649597,69.0,700.0,0.0
,,"(6, 6)",,,,,,,,
R,U,"[5, 6]",1.0,1.0,0.5701601505279541,2.544139862060547,0.5769014829415198,70.0,701.0,0.0
Y,R,"[5, 7]",1.0,2.0,0.21802401542663574,1.6115407943725586,0.3055525732788034,70.0,702.0,0.0
Y,R,"[5, 8]",1.0,3.0,0.37345218658447266,2.224961042404175,0.7467085972381562,70.0,703.0,0.0
G,D,"[6, 8]",1.0,4.0,0.19815492630004883,1.590134859085083,0.2872673708730627,70.0,704.0,0.0
Y,R,"[6, 9]",1.0,5.0,0.5725340843200684,2.275222063064575,0.5956899343337216,70.0,705.0,0.0
Y,R,"[6, 10]",1.0,6.0,0.21744799613952637,1.653182029724121,0.3490810792118229,70.0,706.0,0.0
R,U,"[5, 10]",1.0,7.0,0.398892879486084,2.156002998352051,0.6547952935661676,70.0,707.0,0.0
R,U,"[4, 10]",1.0,8.0,0.7379498481750488,2.508547067642212,0.6633358589163718,70.0,708.0,0.0
B,L,"[4, 9]",1.0,9.0,0.19928598403930664,1.871129035949707,0.5680187482150238,70.0,709.0,0.0
R,U,"[3, 9]",1.0,10.0,0.2525970935821533,1.748898983001709,0.40038082460950813,70.0,710.0,0.0
,,"(6, 6)",,,,,,,,
R,U,"[5, 6]",1.0,1.0,0.39322805404663086,22.339032888412476,0.672929283534267,71.0,711.0,0.0
Y,R,"[5, 7]",1.0,2.0,0.19808506965637207,1.8811070919036865,0.587364169679023,71.0,712.0,0.0
Y,R,"[5, 8]",1.0,3.0,0.17236995697021484,1.9367601871490479,0.6575642648331326,71.0,713.0,0.0
G,D,"[6, 8]",1.0,4.0,0.12946009635925293,1.971621036529541,0.7457193998472326,71.0,714.0,0.0
Y,R,"[6, 9]",-1.0,4.0,0.07987403869628906,5.858447074890137,0.6376990445393658,71.0,715.0,0.0
Y,R,"[6, 10]",1.0,5.0,0.2897360324859619,2.0856001377105713,0.6899387068419661,71.0,716.0,0.0
G,D,"[7, 10]",0.0,5.0,0.3040030002593994,1.8039031028747559,0.4108973420932652,71.0,717.0,0.0
R,U,"[6, 10]",-2.0,5.0,1.2664999961853027,2.7084100246429443,0.4193406682419289,71.0,718.0,0.0
B,L,"[6, 9]",0.0,5.0,0.5046100616455078,2.0152971744537354,0.41797021718992244,71.0,719.0,0.0
R,U,"[5, 9]",0.0,5.0,0.35572290420532227,2.116331100463867,0.6507132746995637,71.0,720.0,0.0
,,"(6, 6)",,,,,,,,
R,U,"[5, 6]",1.0,1.0,0.5086369514465332,3.2759830951690674,0.3104553991970327,72.0,721.0,0.0
Y,R,"[5, 7]",1.0,2.0,0.29781007766723633,1.7747890949249268,0.38525758889471823,72.0,722.0,0.0
Y,R,"[5, 8]",1.0,3.0,0.25476503372192383,2.0450520515441895,0.6967454527036148,72.0,723.0,0.0
G,D,"[6, 8]",1.0,4.0,0.2105119228363037,2.032680034637451,0.712762077842231,72.0,724.0,0.0
Y,R,"[6, 9]",1.0,5.0,0.21647191047668457,1.9027729034423828,0.5823507758490468,72.0,725.0,0.0
Y,R,"[6, 10]",1.0,6.0,0.2344048023223877,1.944054126739502,0.6097180307732191,72.0,726.0,0.0
R,U,"[5, 10]",1.0,7.0,0.630079984664917,2.295650005340576,0.5720686730453879,72.0,727.0,0.0
R,U,"[4, 10]",1.0,8.0,0.21717309951782227,1.7051501274108887,0.39413538561376504,72.0,728.0,0.0
B,L,"[4, 9]",1.0,9.0,0.3832850456237793,1.829531192779541,0.35716534870404,72.0,729.0,0.0
R,U,"[3, 9]",1.0,10.0,0.3130340576171875,1.9380009174346924,0.5283127306429025,72.0,730.0,0.0
,,"(6, 6)",,,,,,,,
R,U,"[5, 6]",1.0,1.0,0.4490830898284912,2.9308090209960938,0.6089930671142014,73.0,731.0,0.0
Y,R,"[5, 7]",1.0,2.0,0.27251410484313965,1.988844871520996,0.6144967975990896,73.0,732.0,0.0
Y,R,"[5, 8]",1.0,3.0,0.28661012649536133,1.9700970649719238,0.5848022823592939,73.0,733.0,0.0
G,D,"[6, 8]",1.0,4.0,0.3690800666809082,1.8986940383911133,0.433587908178048,73.0,734.0,0.0
Y,R,"[6, 9]",1.0,5.0,0.4819018840789795,2.250493049621582,0.6672348470761494,73.0,735.0,0.0
Y,R,"[6, 10]",1.0,6.0,0.2952110767364502,2.0829601287841797,0.6836103844503221,73.0,736.0,0.0
R,U,"[5, 10]",1.0,7.0,0.295867919921875,1.8880329132080078,0.4884633995748171,73.0,737.0,0.0
R,U,"[4, 10]",1.0,8.0,0.5207400321960449,1.9519970417022705,0.3406156724172608,73.0,738.0,0.0
B,L,"[4, 9]",1.0,9.0,0.5567688941955566,2.324800968170166,0.6652357793917485,73.0,739.0,0.0
R,U,"[3, 9]",1.0,10.0,0.2535288333892822,1.9512269496917725,0.5998018035683481,73.0,740.0,0.0
,,"(6, 6)",,,,,,,,
R,U,"[5, 6]",1.0,1.0,0.24470305442810059,2.202186107635498,0.46845814038749933,74.0,741.0,0.0
Y,R,"[5, 7]",1.0,2.0,0.32257986068725586,1.9615321159362793,0.5303461580952236,74.0,742.0,0.0
Y,R,"[5, 8]",1.0,3.0,0.2557840347290039,1.7090039253234863,0.3395774341485268,74.0,743.0,0.0
G,D,"[6, 8]",1.0,4.0,0.3838191032409668,2.04408597946167,0.5667590946991496,74.0,744.0,0.0
Y,R,"[6, 9]",1.0,5.0,0.19400596618652344,1.8719069957733154,0.5721801886818184,74.0,745.0,0.0
Y,R,"[6, 10]",1.0,6.0,0.22029519081115723,2.0601611137390137,0.7487484090905735,74.0,746.0,0.0
R,U,"[5, 10]",1.0,7.0,0.1439220905303955,1.5360291004180908,0.28531073974531057,74.0,747.0,0.0
R,U,"[4, 10]",1.0,8.0,0.5405440330505371,2.185918092727661,0.5376300394178402,74.0,748.0,0.0
B,L,"[4, 9]",1.0,9.0,0.3270230293273926,1.7677710056304932,0.33906384283859886,74.0,749.0,0.0
R,U,"[3, 9]",1.0,10.0,0.3979170322418213,2.066041946411133,0.5716003820529818,74.0,750.0,0.0
,,"(6, 6)",,,,,,,,
R,U,"[5, 6]",1.0,1.0,0.2506420612335205,1.929744005203247,0.285034494294004,75.0,751.0,0.0
Y,R,"[5, 7]",1.0,2.0,0.31577587127685547,1.895704984664917,0.48041261055497625,75.0,752.0,0.0
Y,R,"[5, 8]",1.0,3.0,0.2181229591369629,1.8679161071777344,0.5483980884941708,75.0,753.0,0.0
G,D,"[6, 8]",1.0,4.0,0.23918700218200684,1.783768892288208,0.43224508347423674,75.0,754.0,0.0
Y,R,"[6, 9]",1.0,5.0,0.3089711666107178,1.9198338985443115,0.5020800229164336,75.0,755.0,0.0
Y,R,"[6, 10]",1.0,6.0,0.29345202445983887,1.9602470397949219,0.562227181478834,75.0,756.0,0.0
R,U,"[5, 10]",1.0,7.0,0.6114580631256104,2.170999050140381,0.46666421315906514,75.0,757.0,0.0
R,U,"[4, 10]",1.0,8.0,0.2902038097381592,1.9559321403503418,0.555962043934867,75.0,758.0,0.0
B,L,"[4, 9]",1.0,9.0,0.3201260566711426,2.0886261463165283,0.677734963973468,75.0,759.0,0.0
R,U,"[3, 9]",1.0,10.0,0.2638669013977051,1.8350350856781006,0.4796750182835728,75.0,760.0,0.0
,,"(6, 6)",,,,,,,,
R,U,"[5, 6]",1.0,1.0,0.4803938865661621,2.307882070541382,0.4543589586926426,76.0,761.0,0.0
Y,R,"[5, 7]",1.0,2.0,0.2855839729309082,1.9263889789581299,0.5473532405090462,76.0,762.0,0.0
Y,R,"[5, 8]",1.0,3.0,0.25986790657043457,1.906315803527832,0.5370610709709994,76.0,763.0,0.0
G,D,"[6, 8]",1.0,4.0,0.33055782318115234,1.8157479763031006,0.38632220214630686,76.0,764.0,0.0
Y,R,"[6, 9]",1.0,5.0,0.5515332221984863,2.2240560054779053,0.5768442057858404,76.0,765.0,0.0
Y,R,"[6, 10]",1.0,6.0,0.31891489028930664,2.139356851577759,0.7327730171493684,76.0,766.0,0.0
R,U,"[5, 10]",1.0,7.0,0.2339799404144287,1.9974870681762695,0.6637193257264058,76.0,767.0,0.0
R,U,"[4, 10]",1.0,8.0,0.2969660758972168,2.1202239990234375,0.7172568120790279,76.0,768.0,0.0
B,L,"[4, 9]",1.0,9.0,0.23525404930114746,1.9536209106445312,0.6215015332947202,76.0,769.0,0.0
R,U,"[3, 9]",1.0,10.0,0.21467804908752441,1.8336660861968994,0.5215178499961517,76.0,770.0,0.0
,,"(6, 6)",,,,,,,,
R,U,"[5, 6]",1.0,1.0,0.46799516677856445,2.573561191558838,0.4121715267658838,77.0,771.0,0.0
Y,R,"[5, 7]",1.0,2.0,0.25246095657348633,2.0034828186035156,0.6653148988071476,77.0,772.0,0.0
Y,R,"[5, 8]",1.0,3.0,0.12614703178405762,1.568856954574585,0.33443461053841245,77.0,773.0,0.0
G,D,"[6, 8]",1.0,4.0,0.4085359573364258,2.068510055541992,0.5526939557983628,77.0,774.0,0.0
Y,R,"[6, 9]",1.0,5.0,0.27254199981689453,1.676697015762329,0.2962823075217098,77.0,775.0,0.0
Y,R,"[6, 10]",1.0,6.0,0.404325008392334,2.184375047683716,0.6803465438944001,77.0,776.0,0.0
R,U,"[5, 10]",1.0,7.0,0.17107510566711426,1.8299989700317383,0.5438386141690815,77.0,777.0,0.0
R,U,"[4, 10]",1.0,8.0,0.2774970531463623,1.7378120422363281,0.3652909692981646,77.0,778.0,0.0
B,L,"[4, 9]",1.0,9.0,0.3094940185546875,1.9485790729522705,0.5303299173695191,77.0,779.0,0.0
R,U,"[3, 9]",1.0,10.0,0.22778606414794922,2.0191450119018555,0.6827303058900496,77.0,780.0,0.0
,,"(6, 6)",,,,,,,,
R,U,"[5, 6]",1.0,1.0,0.4081699848175049,2.6612331867218018,0.5277752754406846,78.0,781.0,0.0
Y,R,"[5, 7]",1.0,2.0,0.1939232349395752,1.8291840553283691,0.5400383378009729,78.0,782.0,0.0
Y,R,"[5, 8]",1.0,3.0,0.23496198654174805,1.9765689373016357,0.649828881300067,78.0,783.0,0.0
G,D,"[6, 8]",1.0,4.0,0.1235501766204834,1.6598050594329834,0.42662926409385116,78.0,784.0,0.0
Y,R,"[6, 9]",1.0,5.0,0.645535945892334,2.0924251079559326,0.352417103047355,78.0,785.0,0.0
Y,R,"[6, 10]",1.0,6.0,0.3247339725494385,2.0282740592956543,0.5972359361037174,78.0,786.0,0.0
R,U,"[5, 10]",1.0,7.0,0.24173688888549805,1.657762050628662,0.30525436665960226,78.0,787.0,0.0
R,U,"[4, 10]",1.0,8.0,0.37061405181884766,1.913309097290039,0.4517884718754306,78.0,788.0,0.0
B,L,"[4, 9]",1.0,9.0,0.32300281524658203,1.7312371730804443,0.29990751438148155,78.0,789.0,0.0
R,U,"[3, 9]",1.0,10.0,0.3054637908935547,1.909609079360962,0.4927293368540167,78.0,790.0,0.0
,,"(6, 6)",,,,,,,,
R,U,"[5, 6]",1.0,1.0,0.5332260131835938,2.34306001663208,0.302695571848876,79.0,791.0,0.0
Y,R,"[5, 7]",1.0,2.0,0.35773801803588867,2.017941951751709,0.553760349223966,79.0,792.0,0.0
Y,R,"[5, 8]",1.0,3.0,0.2887449264526367,1.8287489414215088,0.4325321795642627,79.0,793.0,0.0
G,D,"[6, 8]",1.0,4.0,0.31572914123535156,2.0116870403289795,0.594158220364309,79.0,794.0,0.0
Y,R,"[6, 9]",1.0,5.0,0.2418811321258545,1.7535438537597656,0.4145009725479485,79.0,795.0,0.0
Y,R,"[6, 10]",1.0,6.0,0.33817410469055176,2.0090718269348145,0.5568657747827429,79.0,796.0,0.0
R,U,"[5, 10]",1.0,7.0,0.301285982131958,2.0495190620422363,0.6562533999934455,79.0,797.0,0.0
R,U,"[4, 10]",1.0,8.0,0.22129178047180176,1.6300370693206787,0.32004595303268196,79.0,798.0,0.0
B,L,"[4, 9]",1.0,9.0,0.3231828212738037,1.8265080451965332,0.396511360274511,79.0,799.0,0.0
R,U,"[3, 9]",1.0,10.0,0.3068859577178955,1.776521921157837,0.3565127118111774,79.0,800.0,0.0
,,"(6, 6)",,,,,,,,
R,U,"[5, 6]",1.0,1.0,0.3972818851470947,2.6198270320892334,0.5927146726378956,80.0,801.0,0.0
Y,R,"[5, 7]",1.0,2.0,0.24259209632873535,1.9490931034088135,0.6083923943073017,80.0,802.0,0.0
Y,R,"[5, 8]",1.0,3.0,0.22378301620483398,1.760235071182251,0.43571727668555976,80.0,803.0,0.0
G,D,"[6, 8]",1.0,4.0,0.3030738830566406,1.6818420886993408,0.28441432824779583,80.0,804.0,0.0
Y,R,"[6, 9]",1.0,5.0,0.2719869613647461,1.7059831619262695,0.3236688964370074,80.0,805.0,0.0
Y,R,"[6, 10]",1.0,6.0,0.2859950065612793,1.8809700012207031,0.5044563071937793,80.0,806.0,0.0
R,U,"[5, 10]",1.0,7.0,0.19515705108642578,1.8430840969085693,0.5475400341811008,80.0,807.0,0.0
R,U,"[4, 10]",1.0,8.0,0.15621495246887207,2.0006000995635986,0.7314035321961401,80.0,808.0,0.0
B,L,"[4, 9]",1.0,9.0,0.15285897254943848,1.6840450763702393,0.4323766618638668,80.0,809.0,0.0
R,U,"[3, 9]",1.0,10.0,0.28050684928894043,1.8775579929351807,0.49325005952761536,80.0,810.0,0.0
,,"(6, 6)",,,,,,,,
R,U,"[5, 6]",1.0,1.0,0.30831193923950195,2.638767957687378,0.2989550249264651,81.0,811.0,0.0
Y,R,"[5, 7]",1.0,2.0,0.26097989082336426,1.9239461421966553,0.555911120385784,81.0,812.0,0.0
Y,R,"[5, 8]",1.0,3.0,0.24435710906982422,1.8330039978027344,0.489094537797183,81.0,813.0,0.0
G,D,"[6, 8]",1.0,4.0,0.2470998764038086,1.8308298587799072,0.4866073073670383,81.0,814.0,0.0
Y,R,"[6, 9]",1.0,5.0,0.22269797325134277,1.7339608669281006,0.40407092404776257,81.0,815.0,0.0
Y,R,"[6, 10]",1.0,6.0,0.26743102073669434,1.660856008529663,0.29831157340942316,81.0,816.0,0.0
R,U,"[5, 10]",1.0,7.0,0.490955114364624,2.3195950984954834,0.7180825164153688,81.0,817.0,0.0
R,U,"[4, 10]",-1.0,7.0,0.059784889221191406,5.619565963745117,0.43745032443514575,81.0,818.0,0.0
B,L,"[4, 9]",1.0,8.0,0.2547588348388672,1.8196189403533936,0.4736749489975556,81.0,819.0,0.0
R,U,"[3, 9]",1.0,9.0,0.24346613883972168,1.837827205657959,0.4948197154197792,81.0,820.0,0.0
,,"(6, 6)",,,,,,,,
R,U,"[5, 6]",1.0,1.0,0.4540088176727295,2.6153719425201416,0.6934999791254443,82.0,821.0,0.0
Y,R,"[5, 7]",-1.0,1.0,0.03369593620300293,5.59416389465332,0.43805557212601876,82.0,822.0,0.0
Y,R,"[5, 8]",1.0,2.0,0.3111231327056885,1.668370008468628,0.2567209343850197,82.0,823.0,0.0
G,D,"[6, 8]",1.0,3.0,0.34746503829956055,1.9410920143127441,0.49744439851534616,82.0,824.0,0.0
Y,R,"[6, 9]",1.0,4.0,0.1582651138305664,1.9677860736846924,0.6985243521681026,82.0,825.0,0.0
Y,R,"[6, 10]",1.0,5.0,0.6885998249053955,2.1126670837402344,0.31153584190693473,82.0,826.0,0.0
R,U,"[5, 10]",1.0,6.0,0.27976489067077637,2.0501840114593506,0.678033069153843,82.0,827.0,0.0
R,U,"[4, 10]",1.0,7.0,0.15361785888671875,1.8248889446258545,0.586384683201179,82.0,828.0,0.0
B,L,"[4, 9]",1.0,8.0,0.25638604164123535,1.8027260303497314,0.4393019643483921,82.0,829.0,0.0
R,U,"[3, 9]",1.0,9.0,0.1745319366455078,1.7761969566345215,0.4988121592045748,82.0,830.0,0.0
,,"(6, 6)",,,,,,,,
R,U,"[5, 6]",1.0,1.0,0.3387289047241211,2.6996560096740723,0.5485327240151855,83.0,831.0,0.0
Y,R,"[5, 7]",1.0,2.0,0.17335104942321777,1.6811599731445312,0.39656107636912247,83.0,832.0,0.0
Y,R,"[5, 8]",1.0,3.0,0.14281606674194336,1.975973129272461,0.7221315208103491,83.0,833.0,0.0
G,D,"[6, 8]",-1.0,3.0,0.03734612464904785,5.50222110748291,0.341487046204528,83.0,834.0,0.0
G,D,"[7, 8]",0.0,3.0,0.49164819717407227,1.987410068511963,0.39548926477317253,83.0,835.0,0.0
R,U,"[6, 8]",0.0,3.0,0.8581280708312988,2.6740479469299316,0.7194145708149944,83.0,836.0,0.0
R,U,"[5, 8]",0.0,3.0,0.3929469585418701,1.7851970195770264,0.2883975290167563,83.0,837.0,0.0
R,U,"[4, 8]",0.0,3.0,0.9479959011077881,2.6740169525146484,0.6283447153194532,83.0,838.0,0.0
B,L,"[4, 7]",0.0,3.0,0.5820090770721436,2.011976957321167,0.34098245339684186,83.0,839.0,0.0
R,U,"[3, 7]",0.0,3.0,0.4176208972930908,1.8352971076965332,0.3264214202702263,83.0,840.0,0.0
,,"(6, 6)",,,,,,,,
R,U,"[5, 6]",1.0,1.0,0.45485401153564453,3.743549108505249,0.7362291831334846,84.0,841.0,0.0
Y,R,"[5, 7]",1.0,2.0,0.21052789688110352,1.6083569526672363,0.29493532528609495,84.0,842.0,0.0
Y,R,"[5, 8]",1.0,3.0,0.4223768711090088,2.056452989578247,0.5346751433892319,84.0,843.0,0.0
G,D,"[6, 8]",1.0,4.0,0.23681306838989258,2.0158801078796387,0.6836691538405675,84.0,844.0,0.0
Y,R,"[6, 9]",1.0,5.0,0.19323205947875977,1.8568711280822754,0.5573207536687934,84.0,845.0,0.0
Y,R,"[6, 10]",1.0,6.0,0.252302885055542,1.6755130290985107,0.33332508993593873,84.0,846.0,0.0
R,U,"[5, 10]",1.0,7.0,0.9580111503601074,2.4199628829956055,0.35328038740024575,84.0,847.0,0.0
R,U,"[4, 10]",1.0,8.0,0.3484668731689453,1.9997148513793945,0.5528337042633236,84.0,848.0,0.0
B,L,"[4, 9]",1.0,9.0,0.21042108535766602,1.8396649360656738,0.5257326053354161,84.0,849.0,0.0
R,U,"[3, 9]",1.0,10.0,0.2592341899871826,2.0590081214904785,0.7012633893900159,84.0,850.0,0.0
,,"(6, 6)",,,,,,,,
R,U,"[5, 6]",1.0,1.0,0.417896032333374,2.524306058883667,0.5592176135412272,85.0,851.0,0.0
Y,R,"[5, 7]",1.0,2.0,0.13791894912719727,1.6633529663085938,0.4061577232418247,85.0,852.0,0.0
Y,R,"[5, 8]",1.0,3.0,0.31043386459350586,1.9322738647460938,0.5215851543461081,85.0,853.0,0.0
G,D,"[6, 8]",1.0,4.0,0.3041980266571045,1.7584500312805176,0.34700103301841545,85.0,854.0,0.0
Y,R,"[6, 9]",1.0,5.0,0.27755308151245117,1.7540600299835205,0.36772541518875895,85.0,855.0,0.0
Y,R,"[6, 10]",1.0,6.0,0.3756530284881592,2.005441904067993,0.5230279734654346,85.0,856.0,0.0
R,U,"[5, 10]",1.0,7.0,0.3046538829803467,1.7279999256134033,0.33460091894791244,85.0,857.0,0.0
R,U,"[4, 10]",1.0,8.0,0.3413550853729248,2.14962100982666,0.700539809242624,85.0,858.0,0.0
B,L,"[4, 9]",1.0,9.0,0.17972493171691895,1.7112061977386475,0.4284245323350904,85.0,859.0,0.0
R,U,"[3, 9]",1.0,10.0,0.2864949703216553,1.6887290477752686,0.31755541879234145,85.0,860.0,0.0
,,"(6, 6)",,,,,,,,
R,U,"[5, 6]",1.0,1.0,0.39531898498535156,2.7460861206054688,0.4302254045372582,86.0,861.0,0.0
Y,R,"[5, 7]",1.0,2.0,0.2506258487701416,1.6816010475158691,0.3287128331528506,86.0,862.0,0.0
Y,R,"[5, 8]",1.0,3.0,0.30906009674072266,1.7710599899291992,0.3663588825322987,86.0,863.0,0.0
G,D,"[6, 8]",1.0,4.0,0.15771818161010742,1.8524408340454102,0.5852037476936616,86.0,864.0,0.0
Y,R,"[6, 9]",1.0,5.0,0.23917913436889648,1.659226894378662,0.3114921662734158,86.0,865.0,0.0
Y,R,"[6, 10]",1.0,6.0,0.2977440357208252,2.039271116256714,0.650471775860703,86.0,866.0,0.0
R,U,"[5, 10]",1.0,7.0,0.1951439380645752,2.003182888031006,0.7035739737545039,86.0,867.0,0.0
R,U,"[4, 10]",1.0,8.0,0.20470690727233887,1.5765039920806885,0.26397464044248825,86.0,868.0,0.0
B,L,"[4, 9]",1.0,9.0,0.29372501373291016,2.003849983215332,0.6008070130722922,86.0,869.0,0.0
R,U,"[3, 9]",1.0,10.0,0.13396310806274414,1.791684865951538,0.5593328694916615,86.0,870.0,0.0
,,"(6, 6)",,,,,,,,
R,U,"[5, 6]",1.0,1.0,0.34262895584106445,2.641623020172119,0.550936612296805,87.0,871.0,0.0
Y,R,"[5, 7]",1.0,2.0,0.13433194160461426,1.8569750785827637,0.6245656301555649,87.0,872.0,0.0
Y,R,"[5, 8]",1.0,3.0,0.21264100074768066,2.0090370178222656,0.7001251556890813,87.0,873.0,0.0
G,D,"[6, 8]",1.0,4.0,0.15998005867004395,1.7031879425048828,0.43694082865584594,87.0,874.0,0.0
Y,R,"[6, 9]",1.0,5.0,0.2889108657836914,2.1164791584014893,0.719882399951282,87.0,875.0,0.0
Y,R,"[6, 10]",1.0,6.0,0.26656603813171387,1.9641399383544922,0.6008079347267212,87.0,876.0,0.0
R,U,"[5, 10]",1.0,7.0,0.30580592155456543,1.665889024734497,0.2505800533245578,87.0,877.0,0.0
R,U,"[4, 10]",1.0,8.0,0.6762039661407471,2.0467939376831055,0.2639341639277529,87.0,878.0,0.0
B,L,"[4, 9]",1.0,9.0,0.32629895210266113,2.121549129486084,0.6850349806277095,87.0,879.0,0.0
R,U,"[3, 9]",1.0,10.0,0.19698500633239746,1.7672090530395508,0.46917522406429435,87.0,880.0,0.0
,,"(6, 6)",,,,,,,,
R,U,"[5, 6]",1.0,1.0,0.4166879653930664,2.534884214401245,0.670685367706712,88.0,881.0,0.0
Y,R,"[5, 7]",1.0,2.0,0.22766613960266113,1.7191340923309326,0.3900425956831125,88.0,882.0,0.0
Y,R,"[5, 8]",1.0,3.0,0.3415861129760742,1.901810884475708,0.47515918140177194,88.0,883.0,0.0
G,D,"[6, 8]",1.0,4.0,0.3064000606536865,2.0943729877471924,0.6859429290235179,88.0,884.0,0.0
Y,R,"[6, 9]",1.0,5.0,0.4335458278656006,2.0429530143737793,0.5126212716702876,88.0,885.0,0.0
Y,R,"[6, 10]",1.0,6.0,0.2565310001373291,1.6736648082733154,0.3030954901183885,88.0,886.0,0.0
R,U,"[5, 10]",1.0,7.0,0.31492185592651367,2.058652877807617,0.6447524733787051,88.0,887.0,0.0
R,U,"[4, 10]",1.0,8.0,0.1751091480255127,1.8190569877624512,0.5473160683147139,88.0,888.0,0.0
B,L,"[4, 9]",1.0,9.0,0.25704383850097656,1.8225481510162354,0.45334078315057047,88.0,889.0,0.0
R,U,"[3, 9]",1.0,10.0,0.3000340461730957,1.6740570068359375,0.2774799686833317,88.0,890.0,0.0
,,"(6, 6)",,,,,,,,
R,U,"[5, 6]",1.0,1.0,0.4037330150604248,2.6080241203308105,0.6186027066125943,89.0,891.0,0.0
Y,R,"[5, 7]",1.0,2.0,0.2309567928314209,1.8125910758972168,0.48149249280641254,89.0,892.0,0.0
Y,R,"[5, 8]",1.0,3.0,0.28154802322387695,2.0679211616516113,0.6825459228726671,89.0,893.0,0.0
G,D,"[6, 8]",1.0,4.0,0.2096550464630127,1.6227929592132568,0.30570647350679847,89.0,894.0,0.0
Y,R,"[6, 9]",1.0,5.0,0.3400688171386719,2.084496021270752,0.6398245632046785,89.0,895.0,0.0
Y,R,"[6, 10]",1.0,6.0,0.22979211807250977,1.8054120540618896,0.4784889784370476,89.0,896.0,0.0
R,U,"[5, 10]",1.0,7.0,0.3768620491027832,2.1024739742279053,0.6312719884322641,89.0,897.0,0.0
R,U,"[4, 10]",1.0,8.0,0.22724080085754395,1.8586468696594238,0.5232896520837149,89.0,898.0,0.0
B,L,"[4, 9]",1.0,9.0,0.26650094985961914,2.037479877471924,0.6772873017992123,89.0,899.0,0.0
R,U,"[3, 9]",1.0,10.0,0.16605305671691895,1.5246858596801758,0.2691297860829635,89.0,900.0,0.0
,,"(6, 6)",,,,,,,,
R,U,"[5, 6]",1.0,1.0,0.37476587295532227,2.104430913925171,0.2569575774868344,90.0,901.0,0.0
Y,R,"[5, 7]",1.0,2.0,0.320781946182251,1.7641358375549316,0.3543122803262534,90.0,902.0,0.0
Y,R,"[5, 8]",1.0,3.0,0.34224510192871094,2.1081960201263428,0.6622464363463747,90.0,903.0,0.0
G,D,"[6, 8]",1.0,4.0,0.15267014503479004,1.5411629676818848,0.2871922577078463,90.0,904.0,0.0
Y,R,"[6, 9]",1.0,5.0,0.5419869422912598,2.0133779048919678,0.3672095924678826,90.0,905.0,0.0
Y,R,"[6, 10]",1.0,6.0,0.6387050151824951,2.439563035964966,0.6898878281385068,90.0,906.0,0.0
R,U,"[5, 10]",1.0,7.0,0.21045994758605957,1.860914945602417,0.550382808496181,90.0,907.0,0.0
R,U,"[4, 10]",1.0,8.0,0.2449178695678711,1.7694811820983887,0.4205285046869088,90.0,908.0,0.0
B,L,"[4, 9]",1.0,9.0,0.2780930995941162,1.9661378860473633,0.5865306921962158,90.0,909.0,0.0
R,U,"[3, 9]",1.0,10.0,0.19285202026367188,2.019244909286499,0.7223176313389668,90.0,910.0,0.0
,,"(6, 6)",,,,,,,,
R,U,"[5, 6]",1.0,1.0,0.422713041305542,2.518796920776367,0.5747974321006537,91.0,911.0,0.0
Y,R,"[5, 7]",1.0,2.0,0.20165109634399414,1.7539970874786377,0.4621663819091619,91.0,912.0,0.0
Y,R,"[5, 8]",1.0,3.0,0.23154711723327637,1.8612961769104004,0.5400850816036236,91.0,913.0,0.0
G,D,"[6, 8]",1.0,4.0,0.2351241111755371,1.9277889728546143,0.6010980772349737,91.0,914.0,0.0
Y,R,"[6, 9]",1.0,5.0,0.15970706939697266,1.7200589179992676,0.454709219563104,91.0,915.0,0.0
Y,R,"[6, 10]",1.0,6.0,0.2502269744873047,1.7863149642944336,0.4410947668943992,91.0,916.0,0.0
R,U,"[5, 10]",1.0,7.0,0.2656681537628174,1.65077805519104,0.29199339002025787,91.0,917.0,0.0
R,U,"[4, 10]",1.0,8.0,0.28762292861938477,1.6686410903930664,0.29397274587951305,91.0,918.0,0.0
B,L,"[4, 9]",1.0,9.0,0.2981240749359131,1.7617511749267578,0.37248168321250263,91.0,919.0,0.0
R,U,"[3, 9]",1.0,10.0,0.27280592918395996,2.0699450969696045,0.6920959025821347,91.0,920.0,0.0
,,"(6, 6)",,,,,,,,
R,U,"[5, 6]",1.0,1.0,0.40316104888916016,2.3906970024108887,0.46643384397744125,92.0,921.0,0.0
Y,R,"[5, 7]",1.0,2.0,0.22408485412597656,1.62227201461792,0.2888628849990787,92.0,922.0,0.0
Y,R,"[5, 8]",1.0,3.0,0.3197059631347656,1.6998310089111328,0.2888777376765172,92.0,923.0,0.0
G,D,"[6, 8]",1.0,4.0,0.3775060176849365,2.180272102355957,0.702041021889257,92.0,924.0,0.0
Y,R,"[6, 9]",1.0,5.0,0.16221880912780762,1.7883999347686768,0.5239411735260864,92.0,925.0,0.0
Y,R,"[6, 10]",1.0,6.0,0.257037878036499,1.7903468608856201,0.43102455929829103,92.0,926.0,0.0
R,U,"[5, 10]",1.0,7.0,0.2642219066619873,1.7890098094940186,0.4201040240288001,92.0,927.0,0.0
R,U,"[4, 10]",1.0,8.0,0.1516721248626709,1.943964958190918,0.6971404342363292,92.0,928.0,0.0
B,L,"[4, 9]",1.0,9.0,0.1927201747894287,1.8703107833862305,0.5676727689084762,92.0,929.0,0.0
R,U,"[3, 9]",1.0,10.0,0.4754199981689453,2.0435431003570557,0.4613209707999007,92.0,930.0,0.0
,,"(6, 6)",,,,,,,,
R,U,"[5, 6]",1.0,1.0,0.31928181648254395,2.47918701171875,0.6902617665799664,93.0,931.0,0.0
Y,R,"[5, 7]",1.0,2.0,0.35274195671081543,1.8279268741607666,0.3852633207015683,93.0,932.0,0.0
Y,R,"[5, 8]",1.0,3.0,0.35789918899536133,1.8966600894927979,0.43194793465455483,93.0,933.0,0.0
G,D,"[6, 8]",1.0,4.0,0.47063708305358887,1.8666942119598389,0.2988409974627956,93.0,934.0,0.0
Y,R,"[6, 9]",1.0,5.0,0.7759718894958496,2.3453381061553955,0.46096923952093893,93.0,935.0,0.0
Y,R,"[6, 10]",1.0,6.0,0.6516640186309814,2.089653968811035,0.3505150066885746,93.0,936.0,0.0
G,D,"[7, 10]",0.0,6.0,0.36770009994506836,2.186310052871704,0.7197738013780108,93.0,937.0,0.0
R,U,"[6, 10]",0.0,6.0,0.36047792434692383,1.9286260604858398,0.46534752692285747,93.0,938.0,0.0
R,U,"[5, 10]",1.0,7.0,0.2573690414428711,1.685586929321289,0.31786188797868864,93.0,939.0,0.0
R,U,"[4, 10]",-2.0,7.0,1.1680829524993896,2.761561155319214,0.5624524322414133,93.0,940.0,0.0
,,"(6, 6)",,,,,,,,
R,U,"[5, 6]",1.0,1.0,0.3668019771575928,3.683651924133301,0.646064112390775,94.0,941.0,0.0
Y,R,"[5, 7]",1.0,2.0,0.24413394927978516,1.6199250221252441,0.2664257196744181,94.0,942.0,0.0
Y,R,"[5, 8]",1.0,3.0,0.3455030918121338,1.8003668785095215,0.35021514339090587,94.0,943.0,0.0
G,D,"[6, 8]",1.0,4.0,0.3125650882720947,2.1137969493865967,0.6969047476907265,94.0,944.0,0.0
Y,R,"[6, 9]",1.0,5.0,0.18702316284179688,1.835521936416626,0.5327245106137581,94.0,945.0,0.0
Y,R,"[6, 10]",1.0,6.0,0.2508528232574463,1.798022985458374,0.44747324835975405,94.0,946.0,0.0
R,U,"[5, 10]",1.0,7.0,0.36375904083251953,1.8514518737792969,0.38233105539891704,94.0,947.0,0.0
R,U,"[4, 10]",1.0,8.0,0.49280285835266113,1.9072580337524414,0.3063847772312916,94.0,948.0,0.0
B,L,"[4, 9]",1.0,9.0,0.34732699394226074,1.9352550506591797,0.4914415000344669,94.0,949.0,0.0
R,U,"[3, 9]",1.0,10.0,0.25714683532714844,1.9824399948120117,0.623780436856945,94.0,950.0,0.0
,,"(6, 6)",,,,,,,,
R,U,"[5, 6]",1.0,1.0,0.43410801887512207,2.18133282661438,0.3220648495135125,95.0,951.0,0.0
Y,R,"[5, 7]",1.0,2.0,0.29324913024902344,2.131648063659668,0.7367524532629318,95.0,952.0,0.0
Y,R,"[5, 8]",1.0,3.0,0.11470508575439453,1.665381908416748,0.45253240040626697,95.0,953.0,0.0
G,D,"[6, 8]",1.0,4.0,0.37627696990966797,1.9570178985595703,0.47615976519985825,95.0,954.0,0.0
Y,R,"[6, 9]",1.0,5.0,0.4133150577545166,2.254483938217163,0.747061623520032,95.0,955.0,0.0
Y,R,"[6, 10]",1.0,6.0,0.294705867767334,2.0646629333496094,0.6617820639280962,95.0,956.0,0.0
R,U,"[5, 10]",1.0,7.0,0.30974388122558594,1.8748939037322998,0.4702712010110088,95.0,957.0,0.0
R,U,"[4, 10]",1.0,8.0,0.2814040184020996,1.9480249881744385,0.568240871625121,95.0,958.0,0.0
B,L,"[4, 9]",-1.0,8.0,0.09847688674926758,5.676460027694702,0.4449232942688837,95.0,959.0,0.0
R,U,"[3, 9]",1.0,9.0,0.29418110847473145,2.038283109664917,0.6496281134744538,95.0,960.0,0.0
,,"(6, 6)",,,,,,,,
R,U,"[5, 6]",1.0,1.0,0.456043004989624,2.758147954940796,0.32495200932326174,96.0,961.0,0.0
Y,R,"[5, 7]",1.0,2.0,0.5172560214996338,2.2857730388641357,0.6770125888300651,96.0,962.0,0.0
Y,R,"[5, 8]",1.0,3.0,0.2611210346221924,2.0502429008483887,0.6944053148857061,96.0,963.0,0.0
G,D,"[6, 8]",1.0,4.0,0.2402501106262207,2.038132905960083,0.6988151281205159,96.0,964.0,0.0
Y,R,"[6, 9]",-1.0,4.0,0.09206008911132812,5.786880016326904,0.5526305894399703,96.0,965.0,0.0
Y,R,"[6, 10]",1.0,5.0,0.35694193840026855,1.7549059391021729,0.2912816005537161,96.0,966.0,0.0
R,U,"[5, 10]",1.0,6.0,0.40402793884277344,1.8994450569152832,0.3905625625417195,96.0,967.0,0.0
R,U,"[4, 10]",1.0,7.0,0.29921412467956543,1.7606029510498047,0.36773397624409626,96.0,968.0,0.0
B,L,"[4, 9]",-1.0,7.0,0.0883939266204834,5.617625951766968,0.40222089698066565,96.0,969.0,0.0
R,U,"[3, 9]",1.0,8.0,0.2639639377593994,1.9911689758300781,0.6265350855606993,96.0,970.0,0.0
,,"(6, 6)",,,,,,,,
R,U,"[5, 6]",1.0,1.0,0.3642120361328125,2.4693779945373535,0.4294515411330872,97.0,971.0,0.0
Y,R,"[5, 7]",1.0,2.0,0.25244688987731934,1.9870541095733643,0.6330677679683496,97.0,972.0,0.0
Y,R,"[5, 8]",1.0,3.0,0.23317384719848633,1.619002103805542,0.28570236370773056,97.0,973.0,0.0
G,D,"[6, 8]",1.0,4.0,0.295626163482666,1.9023749828338623,0.5045003250024511,97.0,974.0,0.0
Y,R,"[6, 9]",1.0,5.0,0.1896979808807373,1.8118159770965576,0.5164981196876017,97.0,975.0,0.0
Y,R,"[6, 10]",1.0,6.0,0.23218798637390137,1.9597771167755127,0.6262074064044685,97.0,976.0,0.0
R,U,"[5, 10]",1.0,7.0,0.20406413078308105,1.5853641033172607,0.2785990356015891,97.0,977.0,0.0
R,U,"[4, 10]",1.0,8.0,0.35297107696533203,1.917490005493164,0.4792005138275903,97.0,978.0,0.0
B,L,"[4, 9]",1.0,9.0,0.1954209804534912,1.906632900238037,0.6024152050357806,97.0,979.0,0.0
R,U,"[3, 9]",1.0,10.0,0.21167802810668945,2.0503640174865723,0.7359896122875453,97.0,980.0,0.0
,,"(6, 6)",,,,,,,,
R,U,"[5, 6]",1.0,1.0,0.3603498935699463,2.2378427982330322,0.4575126747307948,98.0,981.0,0.0
Y,R,"[5, 7]",1.0,2.0,0.19255518913269043,1.6705100536346436,0.3782171865186336,98.0,982.0,0.0
Y,R,"[5, 8]",1.0,3.0,0.3451101779937744,1.7484939098358154,0.3099542077726342,98.0,983.0,0.0
G,D,"[6, 8]",1.0,4.0,0.29891395568847656,1.6946840286254883,0.3048781944830641,98.0,984.0,0.0
Y,R,"[6, 9]",1.0,5.0,0.445375919342041,2.207839012145996,0.6622333469139822,98.0,985.0,0.0
Y,R,"[6, 10]",1.0,6.0,0.1593940258026123,1.5389759540557861,0.2683779704345714,98.0,986.0,0.0
R,U,"[5, 10]",1.0,7.0,0.29920411109924316,1.9097161293029785,0.5111826896536371,98.0,987.0,0.0
R,U,"[4, 10]",1.0,8.0,0.2802259922027588,1.9338600635528564,0.5616619982928676,98.0,988.0,0.0
B,L,"[4, 9]",1.0,9.0,0.36098694801330566,2.026780128479004,0.5717189580166124,98.0,989.0,0.0
R,U,"[3, 9]",1.0,10.0,0.4167020320892334,2.2057061195373535,0.6942133615284873,98.0,990.0,0.0
,,"(6, 6)",,,,,,,,
R,U,"[5, 6]",1.0,1.0,0.3489100933074951,12.187418937683105,0.5152955620350053,99.0,991.0,0.0
Y,R,"[5, 7]",1.0,2.0,0.23813509941101074,1.6473689079284668,0.29631193040696796,99.0,992.0,0.0
Y,R,"[5, 8]",1.0,3.0,0.32817506790161133,1.9132359027862549,0.4759360358610891,99.0,993.0,0.0
G,D,"[6, 8]",1.0,4.0,0.22514081001281738,1.582853078842163,0.25923317769196325,99.0,994.0,0.0
Y,R,"[6, 9]",1.0,5.0,0.3558831214904785,1.83353590965271,0.37586327281562965,99.0,995.0,0.0
Y,R,"[6, 10]",1.0,6.0,0.24184513092041016,1.9342410564422607,0.5933767341380807,99.0,996.0,0.0
R,U,"[5, 10]",-1.0,6.0,0.05662798881530762,5.6756720542907715,0.5024550162682135,99.0,997.0,0.0
R,U,"[4, 10]",1.0,7.0,0.25318312644958496,1.6266210079193115,0.27929361835870786,99.0,998.0,0.0
B,L,"[4, 9]",1.0,8.0,0.2846708297729492,1.8451340198516846,0.440985897985303,99.0,999.0,0.0
R,U,"[3, 9]",1.0,9.0,0.16186809539794922,1.533635139465332,0.27478877874211916,99.0,1000.0,0.0
