button_choice,action_choice,coordinate_choice,reward,cumulative_reward,rt,total_trial_time,iti,block_n,trial_n,trial_type
R,U,"[5, 6]",-2.0,0.0,1.9728689193725586,3.6240930557250977,0.6080150723281799,0.0,1.0,0.0
G,D,"[6, 6]",0.0,0.0,0.5234808921813965,1.9925918579101562,0.36764815462495526,0.0,2.0,0.0
B,L,"[6, 5]",0.0,0.0,0.5670781135559082,2.4109740257263184,0.7448315568865662,0.0,3.0,0.0
R,U,"[5, 5]",0.0,0.0,0.34610700607299805,1.9172990322113037,0.47866902924241866,0.0,4.0,0.0
Y,R,"[5, 6]",0.0,0.0,0.2536640167236328,1.815438985824585,0.4609757964279084,0.0,5.0,0.0
B,L,"[5, 5]",0.0,0.0,0.1820530891418457,1.56951904296875,0.29727963160136217,0.0,6.0,0.0
G,D,"[6, 5]",0.0,0.0,0.20738506317138672,1.9757239818572998,0.6559233038419221,0.0,7.0,0.0
G,D,"[7, 5]",0.0,0.0,0.23599600791931152,1.9504411220550537,0.6229066701042881,0.0,8.0,0.0
G,D,"[8, 5]",0.0,0.0,0.22449111938476562,1.856071949005127,0.529112015432124,0.0,9.0,0.0
G,D,"[9, 5]",0.0,0.0,0.11706113815307617,1.7678141593933105,0.5467362144372658,0.0,10.0,0.0
,,"(6, 6)",,,,,,,,
R,U,"[5, 6]",1.0,1.0,0.7416019439697266,11.163872957229614,0.46033431024537125,1.0,11.0,0.0
R,U,"[4, 6]",0.0,1.0,0.2451038360595703,1.9861068725585938,0.6461727583881418,1.0,12.0,0.0
Y,R,"[4, 7]",0.0,1.0,0.2739238739013672,1.6816630363464355,0.29504852932991454,1.0,13.0,0.0
Y,R,"[4, 8]",0.0,1.0,0.3273169994354248,1.9353001117706299,0.5134178214316607,1.0,14.0,0.0
B,L,"[4, 7]",0.0,1.0,0.1982560157775879,2.0141961574554443,0.7106104556225444,1.0,15.0,0.0
B,L,"[4, 6]",0.0,1.0,0.23926186561584473,1.6937360763549805,0.35444493683349015,1.0,16.0,0.0
G,D,"[5, 6]",0.0,1.0,0.31375908851623535,1.9474740028381348,0.5353344505668667,1.0,17.0,0.0
B,L,"[5, 5]",0.0,1.0,0.19316387176513672,1.7535500526428223,0.45525573655521356,1.0,18.0,0.0
G,D,"[6, 5]",-1.0,1.0,0.08724021911621094,5.521262884140015,0.29313117918872594,1.0,19.0,0.0
G,D,"[7, 5]",0.0,1.0,0.41437792778015137,1.8596320152282715,0.3527086821988302,1.0,20.0,0.0
,,"(6, 6)",,,,,,,,
Y,R,"[6, 7]",0.0,0.0,0.7303788661956787,5.190474033355713,0.3095801941653258,2.0,21.0,0.0
Y,R,"[6, 8]",1.0,1.0,0.23927092552185059,1.7649779319763184,0.42460220955614303,2.0,22.0,0.0
Y,R,"[6, 9]",1.0,2.0,0.2639329433441162,1.8547420501708984,0.49580253555287346,2.0,23.0,0.0
Y,R,"[6, 10]",1.0,3.0,0.21082091331481934,1.7243969440460205,0.40346416804989144,2.0,24.0,0.0
Y,R,"[6, 11]",0.0,3.0,0.2090451717376709,1.642982006072998,0.3298312295471898,2.0,25.0,0.0
Y,R,"[6, 10]",-3.0,3.0,0.24522995948791504,1.7141740322113037,0.360682868192366,2.0,26.0,0.0
B,L,"[6, 9]",-2.0,3.0,1.0131890773773193,2.3922860622406006,0.35289334874850503,2.0,27.0,0.0
B,L,"[6, 8]",0.0,3.0,0.3652939796447754,1.7876942157745361,0.3237739255373534,2.0,28.0,0.0
G,D,"[7, 8]",0.0,3.0,0.3587768077850342,2.0278289318084717,0.5682475427160415,2.0,29.0,0.0
G,D,"[8, 8]",0.0,3.0,0.19274497032165527,1.9233829975128174,0.6413055172326141,2.0,30.0,0.0
,,"(6, 6)",,,,,,,,
R,U,"[5, 6]",1.0,1.0,0.6700429916381836,5.780609130859375,0.605322783953669,3.0,31.0,0.0
R,U,"[4, 6]",0.0,1.0,0.2472820281982422,1.8520560264587402,0.5071643383467628,3.0,32.0,0.0
G,D,"[5, 6]",0.0,1.0,0.24019289016723633,1.603276014328003,0.2608375303651772,3.0,33.0,0.0
B,L,"[5, 5]",0.0,1.0,0.23525786399841309,1.9948749542236328,0.6715992517963376,3.0,34.0,0.0
G,D,"[6, 5]",-1.0,1.0,0.03154706954956055,5.47711181640625,0.31559436698995946,3.0,35.0,0.0
G,D,"[7, 5]",0.0,1.0,0.8060591220855713,2.2951838970184326,0.37728556454605316,3.0,36.0,0.0
G,D,"[8, 5]",0.0,1.0,0.3333878517150879,1.7234830856323242,0.3007553840699816,3.0,37.0,0.0
G,D,"[9, 5]",0.0,1.0,0.3331739902496338,1.9887359142303467,0.5559909326135115,3.0,38.0,0.0
G,D,"[10, 5]",0.0,1.0,0.2876598834991455,1.9754979610443115,0.5980902889306878,3.0,39.0,0.0
G,D,"[11, 5]",0.0,1.0,0.2793610095977783,2.0867269039154053,0.7012628623937958,3.0,40.0,0.0
,,"(6, 6)",,,,,,,,
Y,R,"[6, 7]",0.0,0.0,0.3058290481567383,9.030362844467163,0.29840862838472,4.0,41.0,0.0
B,L,"[6, 6]",0.0,0.0,0.2207930088043213,2.059691905975342,0.7408422404883327,4.0,42.0,0.0
R,U,"[5, 6]",1.0,1.0,0.25945401191711426,1.794585943222046,0.43572957645314625,4.0,43.0,0.0
R,U,"[4, 6]",0.0,1.0,0.2455301284790039,1.6844871044158936,0.3367789597106366,4.0,44.0,0.0
G,D,"[5, 6]",0.0,1.0,0.2427821159362793,1.7179341316223145,0.3713172185454526,4.0,45.0,0.0
G,D,"[6, 6]",0.0,1.0,0.27367091178894043,2.1148290634155273,0.7356964404938672,4.0,46.0,0.0
G,D,"[7, 6]",0.0,1.0,0.20877289772033691,1.9996330738067627,0.6853599674662851,4.0,47.0,0.0
B,L,"[7, 5]",0.0,1.0,0.28350210189819336,1.8462707996368408,0.46512688594036294,4.0,48.0,0.0
Y,R,"[7, 6]",-1.0,1.0,0.016669034957885742,5.749089002609253,0.5973216729838423,4.0,49.0,0.0
G,D,"[8, 6]",0.0,1.0,0.15471410751342773,1.7886741161346436,0.5360196361220116,4.0,50.0,0.0
,,"(6, 6)",,,,,,,,
Y,R,"[6, 7]",0.0,0.0,0.2177140712738037,3.5962281227111816,0.6152743041950016,5.0,51.0,0.0
B,L,"[6, 6]",0.0,0.0,0.27505016326904297,1.806941032409668,0.4222596090298274,5.0,52.0,0.0
B,L,"[6, 5]",-1.0,0.0,0.05245494842529297,5.640570163726807,0.46270771779655184,5.0,53.0,0.0
B,L,"[6, 4]",0.0,0.0,0.4179658889770508,1.8456931114196777,0.3250292050765451,5.0,54.0,0.0
B,L,"[6, 3]",0.0,0.0,0.5127849578857422,2.1596391201019287,0.551445255675791,5.0,55.0,0.0
B,L,"[6, 2]",-2.0,0.0,1.2421290874481201,2.9261090755462646,0.6437245939823935,5.0,56.0,0.0
B,L,"[6, 1]",0.0,0.0,0.21743297576904297,2.0085830688476562,0.7021871723048119,5.0,57.0,0.0
B,L,"[6, 2]",-3.0,0.0,0.28661203384399414,2.0365262031555176,0.6553765086297861,5.0,58.0,0.0
G,D,"[7, 2]",0.0,0.0,0.3392140865325928,1.8086040019989014,0.36425431859741725,5.0,59.0,0.0
B,L,"[7, 1]",0.0,0.0,0.27146196365356445,2.072746992111206,0.6867119433908893,5.0,60.0,0.0
,,"(6, 6)",,,,,,,,
B,L,"[6, 5]",0.0,0.0,0.36681199073791504,3.4386348724365234,0.47537766146388977,6.0,61.0,0.0
G,D,"[7, 5]",0.0,0.0,0.31143784523010254,2.056833028793335,0.6485507742108773,6.0,62.0,0.0
R,U,"[6, 5]",0.0,0.0,0.22774696350097656,1.6269550323486328,0.29226204840723063,6.0,63.0,0.0
Y,R,"[6, 6]",0.0,0.0,0.2561979293823242,1.8215742111206055,0.4803330008549254,6.0,64.0,0.0
G,D,"[7, 6]",0.0,0.0,0.24068403244018555,2.0224099159240723,0.6696410150465288,6.0,65.0,0.0
G,D,"[8, 6]",0.0,0.0,0.34059786796569824,1.7757070064544678,0.3454283813505665,6.0,66.0,0.0
G,D,"[9, 6]",0.0,0.0,0.2623140811920166,1.6099770069122314,0.255141647029816,6.0,67.0,0.0
G,D,"[10, 6]",0.0,0.0,0.30957984924316406,2.0962841510772705,0.6842785420260563,6.0,68.0,0.0
G,D,"[11, 6]",0.0,0.0,0.17757916450500488,1.5515570640563965,0.2696901302559881,6.0,69.0,0.0
G,D,"[10, 6]",-3.0,0.0,0.2847919464111328,2.091804027557373,0.7109157463249126,6.0,70.0,0.0
,,"(6, 6)",,,,,,,,
Y,R,"[6, 7]",0.0,0.0,0.24578094482421875,4.338874816894531,0.34995687334215175,7.0,71.0,0.0
Y,R,"[6, 8]",1.0,1.0,0.2870180606842041,2.006031036376953,0.6225480249032784,7.0,72.0,0.0
Y,R,"[6, 9]",1.0,2.0,0.18459606170654297,1.725172996520996,0.4475114455277543,7.0,73.0,0.0
Y,R,"[6, 10]",1.0,3.0,0.26618003845214844,1.7614710330963135,0.39258472849734205,7.0,74.0,0.0
Y,R,"[6, 11]",0.0,3.0,0.32687807083129883,1.7350029945373535,0.310938519483519,7.0,75.0,0.0
Y,R,"[6, 10]",-3.0,3.0,0.3372650146484375,2.006782054901123,0.5838639574155521,7.0,76.0,0.0
B,L,"[6, 9]",0.0,3.0,0.3237800598144531,2.0173330307006836,0.5845980699445408,7.0,77.0,0.0
Y,R,"[6, 10]",0.0,3.0,0.22198891639709473,1.7332229614257812,0.4011592277457749,7.0,78.0,0.0
R,U,"[5, 10]",1.0,4.0,0.23153090476989746,1.863765001296997,0.5313980049940277,7.0,79.0,0.0
R,U,"[4, 10]",1.0,5.0,0.2578248977661133,2.063758134841919,0.6951863006137976,7.0,80.0,0.0
,,"(6, 6)",,,,,,,,
R,U,"[5, 6]",1.0,1.0,0.6701250076293945,8.173648118972778,0.5518728238440033,8.0,81.0,0.0
R,U,"[4, 6]",0.0,1.0,0.2083749771118164,1.6210641860961914,0.306566486614251,8.0,82.0,0.0
R,U,"[3, 6]",0.0,1.0,0.325667142868042,1.7801361083984375,0.35308031106424015,8.0,83.0,0.0
R,U,"[2, 6]",0.0,1.0,0.21623587608337402,1.7050809860229492,0.39150729521469735,8.0,84.0,0.0
G,D,"[3, 6]",0.0,1.0,0.18928217887878418,1.537057876586914,0.26202309434939325,8.0,85.0,0.0
Y,R,"[3, 7]",0.0,1.0,0.2628140449523926,1.9200220108032227,0.5647805377894797,8.0,86.0,0.0
R,U,"[2, 7]",0.0,1.0,0.22726178169250488,1.9250619411468506,0.5898410128562176,8.0,87.0,0.0
B,L,"[2, 6]",0.0,1.0,0.2198629379272461,1.6993529796600342,0.389331860240502,8.0,88.0,0.0
R,U,"[1, 6]",0.0,1.0,0.23479580879211426,1.8034250736236572,0.4760451033672022,8.0,89.0,0.0
R,U,"[2, 6]",-3.0,1.0,0.31779909133911133,1.6848621368408203,0.2777124889153236,8.0,90.0,0.0
,,"(6, 6)",,,,,,,,
B,L,"[6, 5]",0.0,0.0,0.40534400939941406,3.66499400138855,0.45916857265006294,9.0,91.0,0.0
Y,R,"[6, 6]",0.0,0.0,0.17180609703063965,1.913740873336792,0.6393575545762351,9.0,92.0,0.0
R,U,"[5, 6]",1.0,1.0,0.11229801177978516,1.6982789039611816,0.48759704202639337,9.0,93.0,0.0
R,U,"[4, 6]",0.0,1.0,0.22661089897155762,2.027574062347412,0.6981073218672995,9.0,94.0,0.0
G,D,"[5, 6]",-1.0,1.0,0.09782719612121582,5.794770956039429,0.5595546024489568,9.0,95.0,0.0
G,D,"[6, 6]",0.0,1.0,0.2423079013824463,2.0342650413513184,0.6936798676736466,9.0,96.0,0.0
G,D,"[7, 6]",0.0,1.0,0.19987201690673828,1.5695879459381104,0.2801772210150483,9.0,97.0,0.0
G,D,"[8, 6]",0.0,1.0,0.36749792098999023,1.7443301677703857,0.27448880534634634,9.0,98.0,0.0
G,D,"[9, 6]",0.0,1.0,0.14725708961486816,1.8256611824035645,0.5831371181222154,9.0,99.0,0.0
G,D,"[10, 6]",0.0,1.0,0.23095393180847168,2.0635769367218018,0.7300287372750591,9.0,100.0,0.0
,,"(6, 6)",,,,,,,,
R,U,"[5, 6]",1.0,1.0,0.6851119995117188,4.848736047744751,0.6118311493193664,10.0,101.0,0.0
R,U,"[4, 6]",0.0,1.0,0.2706642150878906,1.9769949913024902,0.6221114278467152,10.0,102.0,0.0
Y,R,"[4, 7]",0.0,1.0,0.2655608654022217,1.8844280242919922,0.5232088869496612,10.0,103.0,0.0
Y,R,"[4, 8]",0.0,1.0,0.2903258800506592,2.113661050796509,0.7199531917319948,10.0,104.0,0.0
R,U,"[3, 8]",0.0,1.0,0.2749600410461426,1.8120901584625244,0.4323609537993467,10.0,105.0,0.0
R,U,"[2, 8]",-2.0,1.0,1.0637907981872559,2.763530969619751,0.6621591527805641,10.0,106.0,0.0
R,U,"[1, 8]",0.0,1.0,0.4808330535888672,2.1870689392089844,0.5991408906803624,10.0,107.0,0.0
R,U,"[2, 8]",-3.0,1.0,0.2936708927154541,2.102120876312256,0.7012567875870463,10.0,108.0,0.0
Y,R,"[2, 9]",0.0,1.0,0.25942111015319824,1.9893689155578613,0.6238899249678118,10.0,109.0,0.0
R,U,"[1, 9]",0.0,1.0,0.24190402030944824,1.662247896194458,0.31986771187869656,10.0,110.0,0.0
,,"(6, 6)",,,,,,,,
R,U,"[5, 6]",1.0,1.0,0.5116841793060303,3.5481510162353516,0.6508474311143893,11.0,111.0,0.0
Y,R,"[5, 7]",1.0,2.0,0.21637892723083496,1.947577953338623,0.6317931429520536,11.0,112.0,0.0
R,U,"[4, 7]",0.0,2.0,0.2616739273071289,1.772576093673706,0.40438199348497855,11.0,113.0,0.0
R,U,"[3, 7]",0.0,2.0,0.4932432174682617,1.8695859909057617,0.27397990675208633,11.0,114.0,0.0
Y,R,"[3, 8]",0.0,2.0,0.26259303092956543,1.9742190837860107,0.614542032013315,11.0,115.0,0.0
B,L,"[3, 7]",0.0,2.0,0.27854490280151367,1.8764171600341797,0.49114425185660776,11.0,116.0,0.0
G,D,"[4, 7]",0.0,2.0,0.29593801498413086,1.832901954650879,0.4408289995518824,11.0,117.0,0.0
G,D,"[5, 7]",0.0,2.0,0.2695751190185547,1.6151549816131592,0.25586027479162626,11.0,118.0,0.0
G,D,"[6, 7]",0.0,2.0,0.31078100204467773,1.7214350700378418,0.3105353187763626,11.0,119.0,0.0
G,D,"[7, 7]",0.0,2.0,0.34209203720092773,1.760925054550171,0.3212833792025443,11.0,120.0,0.0
,,"(6, 6)",,,,,,,,
B,L,"[6, 5]",0.0,0.0,0.29370617866516113,3.5472469329833984,0.6682294000077044,12.0,121.0,0.0
Y,R,"[6, 6]",0.0,0.0,0.17466211318969727,1.6953160762786865,0.41373951517320773,12.0,122.0,0.0
R,U,"[5, 6]",1.0,1.0,0.23169493675231934,1.8027360439300537,0.4664160599044479,12.0,123.0,0.0
R,U,"[4, 6]",0.0,1.0,0.23529386520385742,1.8199331760406494,0.48638402980417195,12.0,124.0,0.0
Y,R,"[4, 7]",0.0,1.0,0.22385501861572266,1.6431360244750977,0.31277974977574596,12.0,125.0,0.0
Y,R,"[4, 8]",0.0,1.0,0.3565359115600586,1.9116721153259277,0.44094877408064453,12.0,126.0,0.0
R,U,"[3, 8]",0.0,1.0,0.22060704231262207,1.571418046951294,0.26259823545784644,12.0,127.0,0.0
R,U,"[2, 8]",-2.0,1.0,1.3492431640625,2.757078170776367,0.3694973434416105,12.0,128.0,0.0
R,U,"[1, 8]",0.0,1.0,0.22124218940734863,1.6531460285186768,0.33943921788244885,12.0,129.0,0.0
R,U,"[2, 8]",-3.0,1.0,0.35709095001220703,2.052121162414551,0.5910728293910761,12.0,130.0,0.0
,,"(6, 6)",,,,,,,,
Y,R,"[6, 7]",0.0,0.0,0.2807760238647461,3.111690044403076,0.4027497851514617,13.0,131.0,0.0
Y,R,"[6, 8]",1.0,1.0,0.22431492805480957,1.7116949558258057,0.381002621618942,13.0,132.0,0.0
Y,R,"[6, 9]",1.0,2.0,0.30066990852355957,2.1388580799102783,0.7361324967348974,13.0,133.0,0.0
Y,R,"[6, 10]",1.0,3.0,0.29624414443969727,1.673166036605835,0.2762460836841165,13.0,134.0,0.0
Y,R,"[6, 11]",0.0,3.0,0.15273284912109375,1.8771448135375977,0.6364813622540908,13.0,135.0,0.0
Y,R,"[6, 10]",-3.0,3.0,0.20301604270935059,1.8594119548797607,0.5624598421017828,13.0,136.0,0.0
R,U,"[5, 10]",1.0,4.0,0.5076038837432861,2.324936866760254,0.7041200619742709,13.0,137.0,0.0
R,U,"[4, 10]",1.0,5.0,0.233720064163208,1.6588380336761475,0.32986131823340464,13.0,138.0,0.0
R,U,"[3, 10]",0.0,5.0,0.30027198791503906,1.967184066772461,0.5635480770200649,13.0,139.0,0.0
R,U,"[2, 10]",0.0,5.0,0.2935469150543213,1.964001178741455,0.5605205692750501,13.0,140.0,0.0
,,"(6, 6)",,,,,,,,
R,U,"[5, 6]",1.0,1.0,0.42435407638549805,3.420701026916504,0.31475184949168233,14.0,141.0,0.0
R,U,"[4, 6]",-1.0,1.0,0.05034804344177246,5.641909122467041,0.4563569970747556,14.0,142.0,0.0
R,U,"[3, 6]",0.0,1.0,0.2377011775970459,1.9573919773101807,0.6135831442644176,14.0,143.0,0.0
R,U,"[2, 6]",0.0,1.0,0.19026494026184082,1.5869030952453613,0.28403591802640377,14.0,144.0,0.0
R,U,"[1, 6]",0.0,1.0,0.40160608291625977,1.8603320121765137,0.36088302742896006,14.0,145.0,0.0
R,U,"[2, 6]",-3.0,1.0,0.36154794692993164,2.19781494140625,0.741586235789458,14.0,146.0,0.0
Y,R,"[2, 7]",0.0,1.0,0.29967188835144043,2.014930009841919,0.623263093297864,14.0,147.0,0.0
R,U,"[1, 7]",0.0,1.0,0.1238710880279541,1.5065891742706299,0.2800489438137071,14.0,148.0,0.0
R,U,"[2, 7]",-3.0,1.0,0.310150146484375,1.7341609001159668,0.31419632168635414,14.0,149.0,0.0
R,U,"[1, 7]",0.0,1.0,0.19382405281066895,1.765117883682251,0.4624410697081494,14.0,150.0,0.0
,,"(6, 6)",,,,,,,,
R,U,"[5, 6]",1.0,1.0,0.5952410697937012,4.163825988769531,0.6426252999365571,15.0,151.0,0.0
R,U,"[4, 6]",0.0,1.0,0.3661010265350342,2.100058078765869,0.642523204804226,15.0,152.0,0.0
G,D,"[5, 6]",0.0,1.0,0.33992886543273926,1.7641451358795166,0.32367784846668657,15.0,153.0,0.0
R,U,"[4, 6]",0.0,1.0,0.32570600509643555,2.1230850219726562,0.6962865542389916,15.0,154.0,0.0
Y,R,"[4, 7]",0.0,1.0,0.465487003326416,2.0261240005493164,0.45601538368664163,15.0,155.0,0.0
B,L,"[4, 6]",0.0,1.0,0.20429205894470215,1.6328611373901367,0.32208584902124177,15.0,156.0,0.0
R,U,"[3, 6]",0.0,1.0,0.22788500785827637,1.895643949508667,0.5677665066333558,15.0,157.0,0.0
R,U,"[2, 6]",0.0,1.0,0.2500021457672119,1.8735170364379883,0.5243480378458918,15.0,158.0,0.0
Y,R,"[2, 7]",0.0,1.0,0.22930598258972168,1.7533671855926514,0.4276997963657333,15.0,159.0,0.0
Y,R,"[2, 8]",0.0,1.0,0.2512810230255127,1.8403010368347168,0.5013341325068834,15.0,160.0,0.0
,,"(6, 6)",,,,,,,,
R,U,"[5, 6]",1.0,1.0,0.4531669616699219,3.2390809059143066,0.5407052041297729,16.0,161.0,0.0
R,U,"[4, 6]",0.0,1.0,0.6538100242614746,2.104426145553589,0.36139291385257627,16.0,162.0,0.0
G,D,"[5, 6]",0.0,1.0,0.6670780181884766,2.1110970973968506,0.35572300159881803,16.0,163.0,0.0
Y,R,"[5, 7]",1.0,2.0,0.34509992599487305,1.9203171730041504,0.4758939732472428,16.0,164.0,0.0
B,L,"[5, 6]",0.0,2.0,0.36847615242004395,2.1112709045410156,0.6537131707390553,16.0,165.0,0.0
Y,R,"[5, 7]",0.0,2.0,0.7513670921325684,2.3051209449768066,0.4593193253606961,16.0,166.0,0.0
R,U,"[4, 7]",0.0,2.0,0.33962297439575195,1.951204776763916,0.5099631053104103,16.0,167.0,0.0
G,D,"[5, 7]",0.0,2.0,0.3898930549621582,1.911125898361206,0.42118992246881676,16.0,168.0,0.0
R,U,"[4, 7]",0.0,2.0,0.5314650535583496,2.1040189266204834,0.4749932457794754,16.0,169.0,0.0
G,D,"[5, 7]",-2.0,2.0,1.0602271556854248,2.3815970420837402,0.289934439355126,16.0,170.0,0.0
,,"(6, 6)",,,,,,,,
R,U,"[5, 6]",1.0,1.0,0.5873851776123047,6.436601877212524,0.42623364677627157,17.0,171.0,0.0
Y,R,"[5, 7]",1.0,2.0,0.33000612258911133,1.681001901626587,0.2573685877271164,17.0,172.0,0.0
G,D,"[6, 7]",0.0,2.0,0.45567798614501953,2.059433937072754,0.499777975598232,17.0,173.0,0.0
G,D,"[7, 7]",-2.0,2.0,1.471980094909668,2.9003968238830566,0.40050492549431616,17.0,174.0,0.0
G,D,"[8, 7]",0.0,2.0,0.33413100242614746,1.7975280284881592,0.3645268466889504,17.0,175.0,0.0
B,L,"[8, 6]",0.0,2.0,0.2590789794921875,2.0096681118011475,0.6405716637261303,17.0,176.0,0.0
R,U,"[7, 6]",0.0,2.0,0.3308711051940918,1.8463599681854248,0.42049816689520625,17.0,177.0,0.0
Y,R,"[7, 7]",0.0,2.0,0.50760817527771,2.1927778720855713,0.5795448248802133,17.0,178.0,0.0
R,U,"[6, 7]",0.0,2.0,0.31098508834838867,2.1081008911132812,0.6873080823311368,17.0,179.0,0.0
R,U,"[5, 7]",0.0,2.0,0.53438401222229,2.3229880332946777,0.6938816384249895,17.0,180.0,0.0
,,"(6, 6)",,,,,,,,
R,U,"[5, 6]",1.0,1.0,0.43794703483581543,3.2169458866119385,0.5774210353006897,18.0,181.0,0.0
Y,R,"[5, 7]",1.0,2.0,0.25033092498779297,1.954226016998291,0.6147023603272543,18.0,182.0,0.0
Y,R,"[5, 8]",1.0,3.0,0.3006248474121094,1.7692880630493164,0.36748854192744723,18.0,183.0,0.0
Y,R,"[5, 9]",0.0,3.0,0.3169741630554199,1.97406005859375,0.5580670757170425,18.0,184.0,0.0
B,L,"[5, 8]",0.0,3.0,0.3094470500946045,1.7125940322875977,0.30409194980535165,18.0,185.0,0.0
R,U,"[4, 8]",-2.0,3.0,1.0353069305419922,2.6542980670928955,0.5914037379975607,18.0,186.0,0.0
R,U,"[3, 8]",-2.0,3.0,1.3115229606628418,2.6385598182678223,0.2970525913552215,18.0,187.0,0.0
R,U,"[2, 8]",0.0,3.0,0.5695469379425049,2.076767921447754,0.40672105706041206,18.0,188.0,0.0
Y,R,"[2, 9]",0.0,3.0,0.27193188667297363,1.8281450271606445,0.45168300688694274,18.0,189.0,0.0
G,D,"[3, 9]",1.0,4.0,0.32944416999816895,1.8196020126342773,0.38766849440837103,18.0,190.0,0.0
,,"(6, 6)",,,,,,,,
R,U,"[5, 6]",1.0,1.0,0.4084739685058594,5.158514976501465,0.42932190195868425,19.0,191.0,0.0
Y,R,"[5, 7]",1.0,2.0,0.27100706100463867,1.9564061164855957,0.5692121606554548,19.0,192.0,0.0
Y,R,"[5, 8]",1.0,3.0,0.3640298843383789,1.8065190315246582,0.3421303606539007,19.0,193.0,0.0
B,L,"[5, 7]",0.0,3.0,0.45702409744262695,1.870285987854004,0.312617731414465,19.0,194.0,0.0
B,L,"[5, 6]",-2.0,3.0,1.6728529930114746,3.0114071369171143,0.2904629945462935,19.0,195.0,0.0
B,L,"[5, 5]",0.0,3.0,0.3075559139251709,2.049168109893799,0.6393086437677522,19.0,196.0,0.0
B,L,"[5, 4]",-2.0,3.0,1.4825949668884277,2.8866491317749023,0.3760512008602654,19.0,197.0,0.0
B,L,"[5, 3]",0.0,3.0,0.23740696907043457,1.8535358905792236,0.5296501651904872,19.0,198.0,0.0
G,D,"[6, 3]",0.0,3.0,0.3734109401702881,1.9668428897857666,0.47953284841712657,19.0,199.0,0.0
G,D,"[7, 3]",0.0,3.0,0.41576409339904785,1.8846619129180908,0.3645041239921131,19.0,200.0,0.0
,,"(6, 6)",,,,,,,,
R,U,"[5, 6]",1.0,1.0,0.7782959938049316,7.989598035812378,0.33699508323476574,20.0,201.0,0.0
Y,R,"[5, 7]",1.0,2.0,0.280703067779541,1.8865489959716797,0.5066633702451536,20.0,202.0,0.0
Y,R,"[5, 8]",1.0,3.0,0.22060513496398926,1.7690868377685547,0.4590318070392407,20.0,203.0,0.0
G,D,"[6, 8]",1.0,4.0,0.2738840579986572,2.047868013381958,0.6732182115360605,20.0,204.0,0.0
B,L,"[6, 7]",0.0,4.0,0.2382221221923828,1.9624440670013428,0.6356328032456771,20.0,205.0,0.0
G,D,"[7, 7]",0.0,4.0,0.729119062423706,2.084968090057373,0.2537145592904446,20.0,206.0,0.0
R,U,"[6, 7]",0.0,4.0,0.6865448951721191,2.199131965637207,0.4199062117791472,20.0,207.0,0.0
Y,R,"[6, 8]",0.0,4.0,0.3024580478668213,1.7118709087371826,0.315149380266159,20.0,208.0,0.0
G,D,"[7, 8]",0.0,4.0,0.4061920642852783,1.9310109615325928,0.41289933667304396,20.0,209.0,0.0
G,D,"[8, 8]",0.0,4.0,0.24082303047180176,1.9147751331329346,0.5605775150686001,20.0,210.0,0.0
,,"(6, 6)",,,,,,,,
R,U,"[5, 6]",1.0,1.0,0.7163729667663574,3.895055055618286,0.7386046709661309,21.0,211.0,0.0
Y,R,"[5, 7]",1.0,2.0,0.2075650691986084,1.908945083618164,0.5977999138958769,21.0,212.0,0.0
Y,R,"[5, 8]",1.0,3.0,0.17894697189331055,1.736816167831421,0.4513355342600526,21.0,213.0,0.0
G,D,"[6, 8]",1.0,4.0,0.29657506942749023,1.8817579746246338,0.4828264221794001,21.0,214.0,0.0
B,L,"[6, 7]",-2.0,4.0,1.7881832122802734,3.364201068878174,0.546865073944977,21.0,215.0,0.0
Y,R,"[6, 8]",0.0,4.0,0.514807939529419,2.0927441120147705,0.47322237272000195,21.0,216.0,0.0
G,D,"[7, 8]",0.0,4.0,0.4092109203338623,2.1336681842803955,0.622978437099134,21.0,217.0,0.0
B,L,"[7, 7]",0.0,4.0,0.35709404945373535,1.8005790710449219,0.3406679706376662,21.0,218.0,0.0
R,U,"[6, 7]",0.0,4.0,0.7867419719696045,2.1373720169067383,0.26132858668316705,21.0,219.0,0.0
Y,R,"[6, 8]",0.0,4.0,0.33869099617004395,1.8944261074066162,0.47203946585803397,21.0,220.0,0.0
,,"(6, 6)",,,,,,,,
R,U,"[5, 6]",1.0,1.0,0.5357542037963867,3.2016351222991943,0.4402816786983295,22.0,221.0,0.0
Y,R,"[5, 7]",1.0,2.0,0.2782719135284424,2.0564301013946533,0.6800515515684658,22.0,222.0,0.0
Y,R,"[5, 8]",-1.0,2.0,0.08998990058898926,5.786400079727173,0.5495359001245403,22.0,223.0,0.0
Y,R,"[5, 9]",0.0,2.0,0.3501119613647461,2.106771945953369,0.6563127137563953,22.0,224.0,0.0
G,D,"[6, 9]",1.0,3.0,0.31913185119628906,2.0175750255584717,0.6071933982348428,22.0,225.0,0.0
R,U,"[5, 9]",0.0,3.0,0.294475793838501,1.820828914642334,0.4278266953166605,22.0,226.0,0.0
B,L,"[5, 8]",0.0,3.0,0.6590158939361572,2.3872039318084717,0.6315271591803546,22.0,227.0,0.0
R,U,"[4, 8]",0.0,3.0,0.26860904693603516,1.6435880661010742,0.275319328018256,22.0,228.0,0.0
Y,R,"[4, 9]",1.0,4.0,0.32737088203430176,1.7393720149993896,0.31459455327600216,22.0,229.0,0.0
G,D,"[5, 9]",0.0,4.0,0.8553099632263184,2.281937837600708,0.3132309017338416,22.0,230.0,0.0
,,"(6, 6)",,,,,,,,
R,U,"[5, 6]",1.0,1.0,0.7708239555358887,3.731513023376465,0.4944805477557302,23.0,231.0,0.0
Y,R,"[5, 7]",1.0,2.0,0.26116204261779785,1.8064119815826416,0.4510396900335203,23.0,232.0,0.0
Y,R,"[5, 8]",1.0,3.0,0.23859500885009766,1.9522860050201416,0.6029375775056551,23.0,233.0,0.0
G,D,"[6, 8]",1.0,4.0,0.4134399890899658,2.2310261726379395,0.71728514714112,23.0,234.0,0.0
R,U,"[5, 8]",0.0,4.0,0.34312891960144043,1.9094719886779785,0.45997182064963793,23.0,235.0,0.0
Y,R,"[5, 9]",0.0,4.0,0.6341769695281982,2.0516459941864014,0.32841074520552743,23.0,236.0,0.0
B,L,"[5, 8]",0.0,4.0,0.842094898223877,2.3442060947418213,0.40591921759763855,23.0,237.0,0.0
B,L,"[5, 7]",0.0,4.0,0.30908703804016113,1.678006887435913,0.26735264223238453,23.0,238.0,0.0
R,U,"[4, 7]",0.0,4.0,0.6039059162139893,2.0047390460968018,0.30520527525655894,23.0,239.0,0.0
R,U,"[3, 7]",0.0,4.0,0.2656710147857666,1.7085390090942383,0.34689836105665506,23.0,240.0,0.0
,,"(6, 6)",,,,,,,,
R,U,"[5, 6]",1.0,1.0,0.6747548580169678,3.7491729259490967,0.6457635325805271,24.0,241.0,0.0
Y,R,"[5, 7]",1.0,2.0,0.25289201736450195,2.0888729095458984,0.7345255714116452,24.0,242.0,0.0
Y,R,"[5, 8]",-1.0,2.0,0.004873037338256836,5.673418998718262,0.5411107399609396,24.0,243.0,0.0
Y,R,"[5, 9]",0.0,2.0,0.30993103981018066,1.8650169372558594,0.45613434906676215,24.0,244.0,0.0
Y,R,"[5, 10]",1.0,3.0,0.2691531181335449,1.720958948135376,0.3604868624824237,24.0,245.0,0.0
G,D,"[6, 10]",1.0,4.0,0.3334169387817383,2.08223295211792,0.6593274980224251,24.0,246.0,0.0
B,L,"[6, 9]",1.0,5.0,0.5630509853363037,2.0458760261535645,0.38835245534332224,24.0,247.0,0.0
R,U,"[5, 9]",0.0,5.0,0.6059749126434326,2.167788028717041,0.45620156427406683,24.0,248.0,0.0
B,L,"[5, 8]",0.0,5.0,0.41127920150756836,2.119488000869751,0.6088150610253267,24.0,249.0,0.0
Y,R,"[5, 9]",0.0,5.0,0.2899661064147949,2.0657870769500732,0.6743256420437713,24.0,250.0,0.0
,,"(6, 6)",,,,,,,,
R,U,"[5, 6]",-2.0,0.0,1.0012638568878174,4.028138160705566,0.6025847070855599,25.0,251.0,0.0
R,U,"[4, 6]",0.0,0.0,0.462418794631958,1.9494669437408447,0.3854492628139978,25.0,252.0,0.0
R,U,"[3, 6]",0.0,0.0,0.2874889373779297,1.812497854232788,0.4311030071757719,25.0,253.0,0.0
G,D,"[4, 6]",0.0,0.0,0.738739013671875,2.571126937866211,0.7351166499459314,25.0,254.0,0.0
Y,R,"[4, 7]",0.0,0.0,0.25403404235839844,1.6190240383148193,0.25475946091253765,25.0,255.0,0.0
B,L,"[4, 6]",0.0,0.0,0.2500340938568115,1.968639850616455,0.6230940389769293,25.0,256.0,0.0
B,L,"[4, 5]",0.0,0.0,0.27478694915771484,1.8653130531311035,0.4883971158335234,25.0,257.0,0.0
B,L,"[4, 4]",0.0,0.0,0.2901139259338379,2.1061489582061768,0.7273955296548451,25.0,258.0,0.0
B,L,"[4, 3]",0.0,0.0,0.23907113075256348,2.054879903793335,0.7156477016392228,25.0,259.0,0.0
B,L,"[4, 2]",0.0,0.0,0.29836487770080566,1.7716031074523926,0.37072635093125694,25.0,260.0,0.0
,,"(6, 6)",,,,,,,,
R,U,"[5, 6]",1.0,1.0,0.8718090057373047,3.7972381114959717,0.6509332989571099,26.0,261.0,0.0
Y,R,"[5, 7]",1.0,2.0,0.26559996604919434,1.6920812129974365,0.32676601882233813,26.0,262.0,0.0
Y,R,"[5, 8]",1.0,3.0,0.3551199436187744,2.147653102874756,0.6906062669500729,26.0,263.0,0.0
G,D,"[6, 8]",1.0,4.0,0.2641890048980713,1.7145419120788574,0.3554588769426772,26.0,264.0,0.0
B,L,"[6, 7]",0.0,4.0,0.45675015449523926,2.2316370010375977,0.669875437674498,26.0,265.0,0.0
B,L,"[6, 6]",0.0,4.0,0.3639850616455078,1.865062952041626,0.40192882078270514,26.0,266.0,0.0
B,L,"[6, 5]",0.0,4.0,0.45639705657958984,2.1757700443267822,0.6109282444777023,26.0,267.0,0.0
B,L,"[6, 4]",0.0,4.0,0.3416900634765625,1.731032133102417,0.29222948871586657,26.0,268.0,0.0
B,L,"[6, 3]",0.0,4.0,0.2956249713897705,2.0245370864868164,0.632749724353781,26.0,269.0,0.0
B,L,"[6, 2]",0.0,4.0,0.34789586067199707,1.885425090789795,0.4352561500783361,26.0,270.0,0.0
,,"(6, 6)",,,,,,,,
R,U,"[5, 6]",1.0,1.0,0.48223400115966797,3.927906036376953,0.3298037040238175,27.0,271.0,0.0
Y,R,"[5, 7]",1.0,2.0,0.32720518112182617,1.6925580501556396,0.25553834563784344,27.0,272.0,0.0
Y,R,"[5, 8]",1.0,3.0,0.2709369659423828,1.7812740802764893,0.42014544567676176,27.0,273.0,0.0
G,D,"[6, 8]",1.0,4.0,0.375654935836792,2.0319719314575195,0.5518615956470196,27.0,274.0,0.0
B,L,"[6, 7]",0.0,4.0,0.4432239532470703,1.9055190086364746,0.3573240451127167,27.0,275.0,0.0
G,D,"[7, 7]",0.0,4.0,0.5061218738555908,2.0640571117401123,0.45462610262707404,27.0,276.0,0.0
G,D,"[8, 7]",0.0,4.0,0.2958519458770752,2.10168194770813,0.7061082645662402,27.0,277.0,0.0
G,D,"[9, 7]",0.0,4.0,0.28640103340148926,2.026129961013794,0.648719972269326,27.0,278.0,0.0
G,D,"[10, 7]",0.0,4.0,0.265031099319458,2.0103089809417725,0.6423765293479825,27.0,279.0,0.0
G,D,"[11, 7]",0.0,4.0,0.4139740467071533,2.227698802947998,0.7198296947173735,27.0,280.0,0.0
,,"(6, 6)",,,,,,,,
R,U,"[5, 6]",1.0,1.0,0.4405210018157959,5.309138059616089,0.6454534009073665,28.0,281.0,0.0
Y,R,"[5, 7]",1.0,2.0,0.30980896949768066,1.8419129848480225,0.4208881667674335,28.0,282.0,0.0
Y,R,"[5, 8]",1.0,3.0,0.5261709690093994,2.256742000579834,0.6275845995474992,28.0,283.0,0.0
G,D,"[6, 8]",1.0,4.0,0.7915630340576172,2.281467914581299,0.3923646316322164,28.0,284.0,0.0
B,L,"[6, 7]",0.0,4.0,0.3311140537261963,1.8749778270721436,0.4504857981460492,28.0,285.0,0.0
Y,R,"[6, 8]",0.0,4.0,0.28473997116088867,2.0786588191986084,0.6956107726619125,28.0,286.0,0.0
Y,R,"[6, 9]",1.0,5.0,0.45129919052124023,1.9686520099639893,0.4143545299167787,28.0,287.0,0.0
Y,R,"[6, 10]",1.0,6.0,0.5086019039154053,2.3285670280456543,0.7091659657784454,28.0,288.0,0.0
G,D,"[7, 10]",0.0,6.0,0.300915002822876,1.914011001586914,0.5235229128814236,28.0,289.0,0.0
Y,R,"[7, 11]",0.0,6.0,0.2623579502105713,2.08569598197937,0.7255461383239303,28.0,290.0,0.0
,,"(6, 6)",,,,,,,,
R,U,"[5, 6]",1.0,1.0,0.6858639717102051,3.246216058731079,0.3053140581130209,29.0,291.0,0.0
Y,R,"[5, 7]",1.0,2.0,0.29983997344970703,2.120276927947998,0.7252938816258866,29.0,292.0,0.0
Y,R,"[5, 8]",1.0,3.0,0.29520702362060547,2.1323931217193604,0.7408233481277291,29.0,293.0,0.0
G,D,"[6, 8]",1.0,4.0,0.4570930004119873,1.9597179889678955,0.4008805281083918,29.0,294.0,0.0
B,L,"[6, 7]",0.0,4.0,0.3180811405181885,1.9746818542480469,0.5587684937607,29.0,295.0,0.0
Y,R,"[6, 8]",0.0,4.0,0.33555102348327637,1.9466040134429932,0.5217379608488228,29.0,296.0,0.0
Y,R,"[6, 9]",1.0,5.0,0.2613081932067871,1.8190500736236572,0.45763732942084434,29.0,297.0,0.0
Y,R,"[6, 10]",1.0,6.0,0.2746548652648926,1.856011152267456,0.48008598835286903,29.0,298.0,0.0
R,U,"[5, 10]",1.0,7.0,0.425076961517334,2.162925958633423,0.6261998364053878,29.0,299.0,0.0
Y,R,"[5, 11]",0.0,7.0,0.40922999382019043,1.8517389297485352,0.34483159624540766,29.0,300.0,0.0
,,"(6, 6)",,,,,,,,
R,U,"[5, 6]",1.0,1.0,0.628878116607666,3.816500186920166,0.46113700656055706,30.0,301.0,0.0
Y,R,"[5, 7]",1.0,2.0,0.2922699451446533,1.996978998184204,0.6078703455405836,30.0,302.0,0.0
Y,R,"[5, 8]",1.0,3.0,0.12328195571899414,1.93104887008667,0.7054074880387677,30.0,303.0,0.0
G,D,"[6, 8]",1.0,4.0,0.3777639865875244,2.207098960876465,0.7291988965763394,30.0,304.0,0.0
R,U,"[5, 8]",0.0,4.0,0.2821948528289795,2.135054111480713,0.7473220054343148,30.0,305.0,0.0
Y,R,"[5, 9]",0.0,4.0,0.24588704109191895,2.0254790782928467,0.6730492204604065,30.0,306.0,0.0
Y,R,"[5, 10]",1.0,5.0,0.2520561218261719,1.9516730308532715,0.6077866765190383,30.0,307.0,0.0
Y,R,"[5, 11]",0.0,5.0,0.2950019836425781,1.724153995513916,0.332429858043453,30.0,308.0,0.0
B,L,"[5, 10]",0.0,5.0,0.5416648387908936,2.3028650283813477,0.6513560220397121,30.0,309.0,0.0
R,U,"[4, 10]",1.0,6.0,0.32370805740356445,1.8679230213165283,0.4526902101642434,30.0,310.0,0.0
,,"(6, 6)",,,,,,,,
R,U,"[5, 6]",1.0,1.0,0.6192760467529297,3.356416940689087,0.3757937774676665,31.0,311.0,0.0
Y,R,"[5, 7]",1.0,2.0,0.23689007759094238,1.6335718631744385,0.30949350415461563,31.0,312.0,0.0
Y,R,"[5, 8]",1.0,3.0,0.33550500869750977,1.6888737678527832,0.26486108353108745,31.0,313.0,0.0
G,D,"[6, 8]",1.0,4.0,0.7194809913635254,2.4110710620880127,0.5921301428387064,31.0,314.0,0.0
R,U,"[5, 8]",0.0,4.0,0.33254194259643555,1.70766019821167,0.2834849460253144,31.0,315.0,0.0
B,L,"[5, 7]",0.0,4.0,0.3913569450378418,2.0037710666656494,0.5035127983510601,31.0,316.0,0.0
Y,R,"[5, 8]",-2.0,4.0,1.099440097808838,2.5693881511688232,0.439576852877162,31.0,317.0,0.0
Y,R,"[5, 9]",0.0,4.0,0.6469898223876953,2.455806016921997,0.7119908138422395,31.0,318.0,0.0
Y,R,"[5, 10]",1.0,5.0,0.3541231155395508,1.9714570045471191,0.5335687324322232,31.0,319.0,0.0
Y,R,"[5, 11]",0.0,5.0,0.11481308937072754,1.5762150287628174,0.35976956020436923,31.0,320.0,0.0
,,"(6, 6)",,,,,,,,
R,U,"[5, 6]",1.0,1.0,0.46303892135620117,3.265995979309082,0.3590149999649059,32.0,321.0,0.0
Y,R,"[5, 7]",1.0,2.0,0.31150293350219727,1.9379730224609375,0.5299683979282628,32.0,322.0,0.0
Y,R,"[5, 8]",1.0,3.0,0.2961239814758301,1.8000409603118896,0.3969434565330472,32.0,323.0,0.0
G,D,"[6, 8]",1.0,4.0,0.345142126083374,1.7199389934539795,0.2666823865310882,32.0,324.0,0.0
G,D,"[7, 8]",0.0,4.0,0.3603839874267578,1.873607873916626,0.4068808341602548,32.0,325.0,0.0
Y,R,"[7, 9]",0.0,4.0,0.24470996856689453,1.7195720672607422,0.3764234738317641,32.0,326.0,0.0
Y,R,"[7, 10]",0.0,4.0,0.2582221031188965,1.7940030097961426,0.4370532964388909,32.0,327.0,0.0
Y,R,"[7, 11]",0.0,4.0,0.26009607315063477,1.8058910369873047,0.44282643409068034,32.0,328.0,0.0
Y,R,"[7, 10]",-3.0,4.0,0.2560999393463135,1.8047029972076416,0.4640675268335569,32.0,329.0,0.0
Y,R,"[7, 11]",0.0,4.0,0.28723812103271484,1.9295101165771484,0.5435259438502144,32.0,330.0,0.0
,,"(6, 6)",,,,,,,,
R,U,"[5, 6]",1.0,1.0,0.4579451084136963,3.432213068008423,0.5755380281797202,33.0,331.0,0.0
Y,R,"[5, 7]",1.0,2.0,0.2812819480895996,1.8895378112792969,0.5151430996565634,33.0,332.0,0.0
Y,R,"[5, 8]",1.0,3.0,0.2742011547088623,1.7450339794158936,0.36016201173687046,33.0,333.0,0.0
G,D,"[6, 8]",1.0,4.0,0.9378540515899658,2.3802359104156494,0.35686819712248996,33.0,334.0,0.0
R,U,"[5, 8]",0.0,4.0,0.804481029510498,2.1723380088806152,0.2792285130426205,33.0,335.0,0.0
G,D,"[6, 8]",0.0,4.0,0.37122488021850586,1.8105709552764893,0.33972268125891897,33.0,336.0,0.0
Y,R,"[6, 9]",1.0,5.0,0.3312098979949951,1.7125599384307861,0.2854622724793056,33.0,337.0,0.0
Y,R,"[6, 10]",1.0,6.0,0.33342814445495605,2.0673911571502686,0.6358975156003261,33.0,338.0,0.0
R,U,"[5, 10]",1.0,7.0,0.3186969757080078,1.958441972732544,0.5444852150509246,33.0,339.0,0.0
R,U,"[4, 10]",1.0,8.0,0.19768381118774414,1.705657958984375,0.4170583411826952,33.0,340.0,0.0
,,"(6, 6)",,,,,,,,
R,U,"[5, 6]",1.0,1.0,0.3538668155670166,6.708552122116089,0.49164389150644844,34.0,341.0,0.0
Y,R,"[5, 7]",1.0,2.0,0.2818448543548584,2.0144450664520264,0.6393109481327461,34.0,342.0,0.0
Y,R,"[5, 8]",-1.0,2.0,0.023553133010864258,5.485238790512085,0.3412202872531697,34.0,343.0,0.0
Y,R,"[5, 9]",0.0,2.0,0.36075496673583984,1.88258695602417,0.42383472096720887,34.0,344.0,0.0
Y,R,"[5, 10]",-1.0,2.0,0.022907018661499023,5.687007904052734,0.5439985410243181,34.0,345.0,0.0
Y,R,"[5, 11]",0.0,2.0,0.3550150394439697,2.0727381706237793,0.6164253554440089,34.0,346.0,0.0
Y,R,"[5, 10]",-3.0,2.0,0.3905799388885498,1.7978439331054688,0.2979443487482754,34.0,347.0,0.0
Y,R,"[5, 11]",0.0,2.0,0.23558688163757324,1.7259459495544434,0.39033631236224103,34.0,348.0,0.0
G,D,"[6, 11]",0.0,2.0,0.16592192649841309,1.9535138607025146,0.6933656749081295,34.0,349.0,0.0
G,D,"[7, 11]",0.0,2.0,0.29986095428466797,1.92535400390625,0.5354812664247433,34.0,350.0,0.0
,,"(6, 6)",,,,,,,,
R,U,"[5, 6]",1.0,1.0,0.6104080677032471,4.09337592124939,0.7455203242272155,35.0,351.0,0.0
Y,R,"[5, 7]",1.0,2.0,0.26123690605163574,2.03364896774292,0.6787535930012343,35.0,352.0,0.0
Y,R,"[5, 8]",1.0,3.0,0.4193840026855469,1.9648540019989014,0.4441446012901047,35.0,353.0,0.0
G,D,"[6, 8]",1.0,4.0,0.25704312324523926,1.6464340686798096,0.3070349281511968,35.0,354.0,0.0
B,L,"[6, 7]",0.0,4.0,0.33315300941467285,1.9555211067199707,0.5290508330805944,35.0,355.0,0.0
B,L,"[6, 6]",0.0,4.0,0.583298921585083,2.013988971710205,0.3265082617942687,35.0,356.0,0.0
Y,R,"[6, 7]",0.0,4.0,0.31125307083129883,1.7417330741882324,0.33484991021116756,35.0,357.0,0.0
Y,R,"[6, 8]",0.0,4.0,0.42821192741394043,2.24713397026062,0.714802032554234,35.0,358.0,0.0
Y,R,"[6, 9]",1.0,5.0,0.2831699848175049,1.7133140563964844,0.3284817725565494,35.0,359.0,0.0
Y,R,"[6, 10]",1.0,6.0,0.29715514183044434,1.759049892425537,0.370833970009113,35.0,360.0,0.0
,,"(6, 6)",,,,,,,,
R,U,"[5, 6]",1.0,1.0,0.4073500633239746,3.768932819366455,0.722496577804755,36.0,361.0,0.0
Y,R,"[5, 7]",1.0,2.0,0.2668910026550293,1.7795820236206055,0.41920173188881776,36.0,362.0,0.0
G,D,"[6, 7]",0.0,2.0,0.5004720687866211,1.8581829071044922,0.26072142932153347,36.0,363.0,0.0
Y,R,"[6, 8]",1.0,3.0,0.4935300350189209,2.1276230812072754,0.5379034929189577,36.0,364.0,0.0
Y,R,"[6, 9]",1.0,4.0,0.9734499454498291,2.348484992980957,0.26983159978517524,36.0,365.0,0.0
Y,R,"[6, 10]",1.0,5.0,0.452862024307251,1.9950189590454102,0.448005969933557,36.0,366.0,0.0
Y,R,"[6, 11]",0.0,5.0,0.5739209651947021,1.9877660274505615,0.30245023250890934,36.0,367.0,0.0
G,D,"[7, 11]",0.0,5.0,0.28756284713745117,1.6394460201263428,0.2585794858743199,36.0,368.0,0.0
R,U,"[6, 11]",0.0,5.0,0.33721399307250977,2.013378143310547,0.5883006820810903,36.0,369.0,0.0
R,U,"[5, 11]",0.0,5.0,0.566741943359375,1.9513859748840332,0.2900442072177165,36.0,370.0,0.0
,,"(6, 6)",,,,,,,,
R,U,"[5, 6]",1.0,1.0,0.7522640228271484,4.186921119689941,0.743109637968496,37.0,371.0,0.0
Y,R,"[5, 7]",-1.0,1.0,0.007306098937988281,5.537050008773804,0.4134614235419758,37.0,372.0,0.0
Y,R,"[5, 8]",1.0,2.0,0.40001702308654785,2.111952781677246,0.6084996554461554,37.0,373.0,0.0
Y,R,"[5, 9]",0.0,2.0,0.3529798984527588,2.0799078941345215,0.6383867893577706,37.0,374.0,0.0
Y,R,"[5, 10]",1.0,3.0,0.325955867767334,2.1644678115844727,0.7359372966200692,37.0,375.0,0.0
Y,R,"[5, 11]",0.0,3.0,0.3350510597229004,2.132807970046997,0.7019491450401296,37.0,376.0,0.0
Y,R,"[5, 10]",-3.0,3.0,0.30056309700012207,1.7583279609680176,0.3606143305106677,37.0,377.0,0.0
Y,R,"[5, 11]",0.0,3.0,0.8086099624633789,2.2186999320983887,0.3127061045837268,37.0,378.0,0.0
Y,R,"[5, 10]",-3.0,3.0,0.2671799659729004,1.7179749011993408,0.347131782637669,37.0,379.0,0.0
Y,R,"[5, 11]",0.0,3.0,0.40442395210266113,2.2098870277404785,0.7069180146477689,37.0,380.0,0.0
,,"(6, 6)",,,,,,,,
R,U,"[5, 6]",1.0,1.0,0.4189329147338867,3.206242084503174,0.39627801782691996,38.0,381.0,0.0
Y,R,"[5, 7]",1.0,2.0,0.3209691047668457,2.102691173553467,0.6820166334020383,38.0,382.0,0.0
Y,R,"[5, 8]",1.0,3.0,0.2617020606994629,2.0121538639068604,0.6440948757445666,38.0,383.0,0.0
G,D,"[6, 8]",1.0,4.0,0.34865498542785645,1.7919909954071045,0.3531719313762241,38.0,384.0,0.0
B,L,"[6, 7]",0.0,4.0,0.7254700660705566,2.5348880290985107,0.7041817734073041,38.0,385.0,0.0
Y,R,"[6, 8]",0.0,4.0,0.4827239513397217,1.8727900981903076,0.2939211953956256,38.0,386.0,0.0
Y,R,"[6, 9]",1.0,5.0,0.5625369548797607,2.0582499504089355,0.4022658193114129,38.0,387.0,0.0
Y,R,"[6, 10]",-2.0,5.0,1.0490171909332275,2.776387929916382,0.6950214561752404,38.0,388.0,0.0
Y,R,"[6, 11]",0.0,5.0,0.818173885345459,2.1664748191833496,0.26161005356443395,38.0,389.0,0.0
Y,R,"[6, 10]",-3.0,5.0,0.3134331703186035,1.9058070182800293,0.5004478197420061,38.0,390.0,0.0
,,"(6, 6)",,,,,,,,
R,U,"[5, 6]",1.0,1.0,0.5471839904785156,3.317249059677124,0.5175720054128743,39.0,391.0,0.0
Y,R,"[5, 7]",1.0,2.0,0.3761918544769287,2.194427967071533,0.711751136994311,39.0,392.0,0.0
Y,R,"[5, 8]",1.0,3.0,0.4397599697113037,2.1768910884857178,0.6387803045243928,39.0,393.0,0.0
G,D,"[6, 8]",1.0,4.0,0.512408971786499,2.187591791152954,0.5763022235502399,39.0,394.0,0.0
R,U,"[5, 8]",0.0,4.0,0.4009418487548828,1.8322608470916748,0.3418670341429427,39.0,395.0,0.0
Y,R,"[5, 9]",-2.0,4.0,1.3766310214996338,2.934652090072632,0.5263500383602259,39.0,396.0,0.0
Y,R,"[5, 10]",1.0,5.0,0.417158842086792,1.9322381019592285,0.4251968469548792,39.0,397.0,0.0
Y,R,"[5, 11]",0.0,5.0,0.531886100769043,2.1132280826568604,0.4883232636266436,39.0,398.0,0.0
Y,R,"[5, 10]",-3.0,5.0,0.38617515563964844,1.8334791660308838,0.3551582777708828,39.0,399.0,0.0
Y,R,"[5, 11]",0.0,5.0,0.3617870807647705,1.770240068435669,0.3088143276372729,39.0,400.0,0.0
,,"(6, 6)",,,,,,,,
R,U,"[5, 6]",1.0,1.0,0.8715460300445557,4.205832004547119,0.5975566797471707,40.0,401.0,0.0
Y,R,"[5, 7]",1.0,2.0,0.5486118793487549,2.2652089595794678,0.6127796434897601,40.0,402.0,0.0
Y,R,"[5, 8]",1.0,3.0,0.37666893005371094,1.9511749744415283,0.4639024098054762,40.0,403.0,0.0
G,D,"[6, 8]",1.0,4.0,0.296612024307251,1.951667070388794,0.5487217037322353,40.0,404.0,0.0
B,L,"[6, 7]",0.0,4.0,0.7446069717407227,2.5074069499969482,0.6560049036827964,40.0,405.0,0.0
Y,R,"[6, 8]",0.0,4.0,0.8578629493713379,2.61429500579834,0.6536348710013324,40.0,406.0,0.0
Y,R,"[6, 9]",1.0,5.0,0.3725850582122803,2.0296010971069336,0.549658470507534,40.0,407.0,0.0
Y,R,"[6, 10]",1.0,6.0,0.23849201202392578,1.9895029067993164,0.6392132383649742,40.0,408.0,0.0
R,U,"[5, 10]",1.0,7.0,0.3461930751800537,1.7850139141082764,0.34115562395369037,40.0,409.0,0.0
R,U,"[4, 10]",1.0,8.0,0.31391406059265137,2.006424903869629,0.5971345692141846,40.0,410.0,0.0
,,"(6, 6)",,,,,,,,
R,U,"[5, 6]",-2.0,0.0,1.319483995437622,5.083572864532471,0.29779953464999287,41.0,411.0,0.0
R,U,"[4, 6]",0.0,0.0,0.4806530475616455,2.0033040046691895,0.41734994111866525,41.0,412.0,0.0
R,U,"[3, 6]",0.0,0.0,0.30560898780822754,2.140316963195801,0.7239949479849039,41.0,413.0,0.0
Y,R,"[3, 7]",-1.0,0.0,0.058775901794433594,5.508826971054077,0.3162563630908976,41.0,414.0,0.0
Y,R,"[3, 8]",0.0,0.0,0.2664802074432373,1.8538248538970947,0.4866088805688827,41.0,415.0,0.0
Y,R,"[3, 9]",1.0,1.0,0.28919100761413574,1.8471729755401611,0.4672204884717706,41.0,416.0,0.0
Y,R,"[3, 10]",0.0,1.0,0.27157115936279297,2.038978099822998,0.672451114298315,41.0,417.0,0.0
G,D,"[4, 10]",1.0,2.0,0.2814500331878662,1.9332211017608643,0.5555878769748311,41.0,418.0,0.0
G,D,"[5, 10]",1.0,3.0,0.2717421054840088,2.046801805496216,0.6689529808490683,41.0,419.0,0.0
G,D,"[6, 10]",1.0,4.0,0.3137671947479248,2.021592855453491,0.607292018952136,41.0,420.0,0.0
,,"(6, 6)",,,,,,,,
R,U,"[5, 6]",1.0,1.0,0.9267041683197021,3.728714942932129,0.2528785135012683,42.0,421.0,0.0
Y,R,"[5, 7]",1.0,2.0,0.528529167175293,2.192678928375244,0.5617631044573627,42.0,422.0,0.0
Y,R,"[5, 8]",1.0,3.0,0.32840800285339355,2.015017032623291,0.5933121448191508,42.0,423.0,0.0
G,D,"[6, 8]",1.0,4.0,0.44966912269592285,1.8415980339050293,0.3019970686777222,42.0,424.0,0.0
G,D,"[7, 8]",0.0,4.0,0.3866701126098633,1.9381561279296875,0.4565379948778018,42.0,425.0,0.0
G,D,"[8, 8]",0.0,4.0,0.30948805809020996,1.6956079006195068,0.30210085140074566,42.0,426.0,0.0
G,D,"[9, 8]",0.0,4.0,0.2941911220550537,1.8537049293518066,0.4559065643214116,42.0,427.0,0.0
Y,R,"[9, 9]",0.0,4.0,0.2612318992614746,1.805138111114502,0.4440570970199946,42.0,428.0,0.0
Y,R,"[9, 10]",0.0,4.0,0.22325897216796875,1.7532708644866943,0.43060014805038754,42.0,429.0,0.0
R,U,"[8, 10]",0.0,4.0,0.15851092338562012,1.66290283203125,0.39356483454482727,42.0,430.0,0.0
,,"(6, 6)",,,,,,,,
B,L,"[6, 5]",0.0,0.0,0.4021179676055908,3.300323963165283,0.3104754545115357,43.0,431.0,0.0
Y,R,"[6, 6]",0.0,0.0,0.5953760147094727,2.190325975418091,0.5007817249701151,43.0,432.0,0.0
R,U,"[5, 6]",1.0,1.0,0.29529380798339844,2.027398109436035,0.6279993629559304,43.0,433.0,0.0
Y,R,"[5, 7]",1.0,2.0,0.2929840087890625,2.065345048904419,0.6764079680936486,43.0,434.0,0.0
Y,R,"[5, 8]",-1.0,2.0,0.053273916244506836,5.872679948806763,0.6988512087950303,43.0,435.0,0.0
Y,R,"[5, 9]",0.0,2.0,0.3014090061187744,2.1238129138946533,0.7224718939602557,43.0,436.0,0.0
Y,R,"[5, 10]",1.0,3.0,0.3438701629638672,2.0642170906066895,0.6201375887702654,43.0,437.0,0.0
G,D,"[6, 10]",1.0,4.0,0.6481571197509766,2.0984268188476562,0.35194241551185507,43.0,438.0,0.0
G,D,"[7, 10]",0.0,4.0,0.5001049041748047,2.118600845336914,0.5203759044860131,43.0,439.0,0.0
G,D,"[8, 10]",0.0,4.0,0.25121188163757324,1.6735658645629883,0.32733475728756933,43.0,440.0,0.0
,,"(6, 6)",,,,,,,,
R,U,"[5, 6]",1.0,1.0,0.4163939952850342,3.6290359497070312,0.2563941959598757,44.0,441.0,0.0
Y,R,"[5, 7]",1.0,2.0,0.6092970371246338,2.22983717918396,0.5191796141841472,44.0,442.0,0.0
Y,R,"[5, 8]",1.0,3.0,0.3379549980163574,2.1259641647338867,0.6782959417351038,44.0,443.0,0.0
G,D,"[6, 8]",1.0,4.0,0.3332099914550781,2.0247480869293213,0.6033034904642909,44.0,444.0,0.0
G,D,"[7, 8]",0.0,4.0,0.6196630001068115,2.0199759006500244,0.3066977280996959,44.0,445.0,0.0
B,L,"[7, 7]",-2.0,4.0,1.2634069919586182,2.676053047180176,0.3824427467533161,44.0,446.0,0.0
B,L,"[7, 6]",0.0,4.0,0.2750589847564697,1.9621610641479492,0.5777888307623233,44.0,447.0,0.0
B,L,"[7, 5]",0.0,4.0,0.28471803665161133,1.843738079071045,0.47159253061981987,44.0,448.0,0.0
B,L,"[7, 4]",0.0,4.0,0.32004809379577637,1.763023853302002,0.35119693367094196,44.0,449.0,0.0
B,L,"[7, 3]",0.0,4.0,0.32707810401916504,1.973207950592041,0.5408932112892522,44.0,450.0,0.0
,,"(6, 6)",,,,,,,,
R,U,"[5, 6]",1.0,1.0,0.8451910018920898,3.7599689960479736,0.4009395402047283,45.0,451.0,0.0
Y,R,"[5, 7]",1.0,2.0,0.32268691062927246,1.8432109355926514,0.410775833645746,45.0,452.0,0.0
Y,R,"[5, 8]",1.0,3.0,0.38723111152648926,1.7600018978118896,0.2873584168462979,45.0,453.0,0.0
G,D,"[6, 8]",1.0,4.0,0.3331029415130615,2.160038948059082,0.7302081202628792,45.0,454.0,0.0
G,D,"[7, 8]",0.0,4.0,0.23977899551391602,2.0522890090942383,0.6991662946256264,45.0,455.0,0.0
G,D,"[8, 8]",0.0,4.0,0.2847940921783447,2.0821070671081543,0.6978802352992458,45.0,456.0,0.0
R,U,"[7, 8]",0.0,4.0,0.29241394996643066,1.8914120197296143,0.4895163527583327,45.0,457.0,0.0
R,U,"[6, 8]",0.0,4.0,0.2743489742279053,1.9340310096740723,0.5569353524978605,45.0,458.0,0.0
R,U,"[5, 8]",0.0,4.0,0.23673605918884277,1.5964469909667969,0.2700229969265498,45.0,459.0,0.0
R,U,"[4, 8]",0.0,4.0,0.4354889392852783,1.8384349346160889,0.30834626624701944,45.0,460.0,0.0
,,"(6, 6)",,,,,,,,
R,U,"[5, 6]",1.0,1.0,0.5298399925231934,4.189245939254761,0.6643792164643167,46.0,461.0,0.0
Y,R,"[5, 7]",1.0,2.0,0.1623399257659912,2.009549856185913,0.7398467070266981,46.0,462.0,0.0
Y,R,"[5, 8]",1.0,3.0,0.21953105926513672,1.8601200580596924,0.5503410320224755,46.0,463.0,0.0
G,D,"[6, 8]",1.0,4.0,0.2515251636505127,1.9471750259399414,0.5971403967654932,46.0,464.0,0.0
B,L,"[6, 7]",0.0,4.0,0.1967151165008545,1.8682100772857666,0.5655964170606647,46.0,465.0,0.0
B,L,"[6, 6]",-1.0,4.0,0.07808494567871094,5.738998889923096,0.5208109485756123,46.0,466.0,0.0
B,L,"[6, 5]",0.0,4.0,0.4119551181793213,2.2401537895202637,0.7275223790549945,46.0,467.0,0.0
Y,R,"[6, 6]",0.0,4.0,0.8981060981750488,2.5717620849609375,0.5825693616800312,46.0,468.0,0.0
Y,R,"[6, 7]",0.0,4.0,0.6346139907836914,2.329099178314209,0.5950243375722291,46.0,469.0,0.0
Y,R,"[6, 8]",0.0,4.0,0.42009711265563965,2.1125099658966064,0.607335140659683,46.0,470.0,0.0
,,"(6, 6)",,,,,,,,
R,U,"[5, 6]",1.0,1.0,0.5427749156951904,4.774109840393066,0.48155634835801775,47.0,471.0,0.0
Y,R,"[5, 7]",1.0,2.0,0.95682692527771,2.742192029953003,0.690152125556792,47.0,472.0,0.0
Y,R,"[5, 8]",1.0,3.0,0.45652103424072266,1.8747661113739014,0.31501430913217043,47.0,473.0,0.0
G,D,"[6, 8]",1.0,4.0,0.6180398464202881,2.320957899093628,0.6023513017879807,47.0,474.0,0.0
R,U,"[5, 8]",0.0,4.0,0.8664200305938721,2.3272809982299805,0.3630887600977042,47.0,475.0,0.0
R,U,"[4, 8]",0.0,4.0,0.5700030326843262,2.210836172103882,0.5403800903884703,47.0,476.0,0.0
R,U,"[3, 8]",0.0,4.0,0.29998207092285156,1.7818500995635986,0.3889324664187635,47.0,477.0,0.0
G,D,"[4, 8]",0.0,4.0,0.3258209228515625,2.0094549655914307,0.581470963499212,47.0,478.0,0.0
G,D,"[5, 8]",0.0,4.0,0.29701995849609375,2.063027858734131,0.6609947725404676,47.0,479.0,0.0
B,L,"[5, 7]",0.0,4.0,0.24318695068359375,1.7989039421081543,0.4769163253842063,47.0,480.0,0.0
,,"(6, 6)",,,,,,,,
B,L,"[6, 5]",0.0,0.0,0.3613588809967041,4.003382205963135,0.6802319249839266,48.0,481.0,0.0
R,U,"[5, 5]",0.0,0.0,0.6994509696960449,2.5456340312957764,0.7422504470690845,48.0,482.0,0.0
R,U,"[4, 5]",0.0,0.0,0.26686811447143555,1.6953439712524414,0.33755388787917384,48.0,483.0,0.0
Y,R,"[4, 6]",0.0,0.0,0.3723599910736084,2.1531190872192383,0.6736111316802251,48.0,484.0,0.0
Y,R,"[4, 7]",0.0,0.0,0.14993619918823242,1.56821608543396,0.3255772211320343,48.0,485.0,0.0
Y,R,"[4, 8]",0.0,0.0,0.28302693367004395,1.6834211349487305,0.3088504049152695,48.0,486.0,0.0
Y,R,"[4, 9]",1.0,1.0,0.3927478790283203,1.7968530654907227,0.30572718492945,48.0,487.0,0.0
Y,R,"[4, 10]",1.0,2.0,0.2956700325012207,2.1037840843200684,0.7089881128691657,48.0,488.0,0.0
G,D,"[5, 10]",1.0,3.0,0.33269786834716797,1.8144371509552002,0.3904104778848312,48.0,489.0,0.0
G,D,"[6, 10]",-2.0,3.0,1.0418851375579834,2.4877140522003174,0.4113802055692697,48.0,490.0,0.0
,,"(6, 6)",,,,,,,,
R,U,"[5, 6]",1.0,1.0,0.6047430038452148,4.0966081619262695,0.6242562299818311,49.0,491.0,0.0
Y,R,"[5, 7]",-2.0,1.0,1.0157790184020996,2.4220099449157715,0.3797092445936534,49.0,492.0,0.0
Y,R,"[5, 8]",1.0,2.0,0.32210683822631836,2.059298038482666,0.6219717233786358,49.0,493.0,0.0
Y,R,"[5, 9]",0.0,2.0,0.30821704864501953,2.0515811443328857,0.6401461670202749,49.0,494.0,0.0
Y,R,"[5, 10]",1.0,3.0,0.33118391036987305,1.8150629997253418,0.38873249349120403,49.0,495.0,0.0
Y,R,"[5, 11]",0.0,3.0,0.28531980514526367,1.7483839988708496,0.37049992633778833,49.0,496.0,0.0
G,D,"[6, 11]",0.0,3.0,0.3390500545501709,1.8689310550689697,0.42277341425138126,49.0,497.0,0.0
G,D,"[7, 11]",-1.0,3.0,0.04604792594909668,5.532911062240601,0.3553449293897905,49.0,498.0,0.0
G,D,"[8, 11]",0.0,3.0,0.3542659282684326,2.209939956665039,0.7482238339372791,49.0,499.0,0.0
G,D,"[9, 11]",0.0,3.0,0.5149669647216797,2.1648149490356445,0.5465167736943932,49.0,500.0,0.0
,,"(6, 6)",,,,,,,,
R,U,"[5, 6]",1.0,1.0,0.7584400177001953,3.9580888748168945,0.28793931009013407,50.0,501.0,0.0
Y,R,"[5, 7]",1.0,2.0,0.48466014862060547,1.8991138935089111,0.3205095838283184,50.0,502.0,0.0
Y,R,"[5, 8]",1.0,3.0,0.4884481430053711,1.9227349758148193,0.3264097127316445,50.0,503.0,0.0
G,D,"[6, 8]",1.0,4.0,0.25099802017211914,1.7185649871826172,0.37809591992227287,50.0,504.0,0.0
G,D,"[7, 8]",0.0,4.0,0.3503298759460449,1.7837600708007812,0.3453841709558778,50.0,505.0,0.0
R,U,"[6, 8]",-2.0,4.0,1.3510408401489258,2.7403030395507812,0.36870568975960266,50.0,506.0,0.0
R,U,"[5, 8]",0.0,4.0,0.28492021560668945,2.086956024169922,0.705304234992457,50.0,507.0,0.0
R,U,"[4, 8]",0.0,4.0,0.21254205703735352,1.668074131011963,0.35702026199458226,50.0,508.0,0.0
B,L,"[4, 7]",0.0,4.0,0.640883207321167,2.075083017349243,0.3320853556839164,50.0,509.0,0.0
Y,R,"[4, 8]",0.0,4.0,0.24660611152648926,1.7252001762390137,0.3738906985664286,50.0,510.0,0.0
,,"(6, 6)",,,,,,,,
R,U,"[5, 6]",1.0,1.0,0.7693359851837158,3.8914899826049805,0.4984222333304008,51.0,511.0,0.0
Y,R,"[5, 7]",1.0,2.0,0.2437431812286377,2.036431074142456,0.6844919978768415,51.0,512.0,0.0
Y,R,"[5, 8]",1.0,3.0,0.49343299865722656,2.0562541484832764,0.45758423134083104,51.0,513.0,0.0
G,D,"[6, 8]",-1.0,3.0,0.08581304550170898,5.541935920715332,0.3327392129925419,51.0,514.0,0.0
G,D,"[7, 8]",0.0,3.0,0.32923316955566406,1.9009408950805664,0.4670523696056751,51.0,515.0,0.0
G,D,"[8, 8]",0.0,3.0,0.5773310661315918,2.2026889324188232,0.5198089415679452,51.0,516.0,0.0
G,D,"[9, 8]",0.0,3.0,0.6062772274017334,1.9725120067596436,0.25893941862996384,51.0,517.0,0.0
G,D,"[10, 8]",0.0,3.0,0.7245850563049316,2.503542900085449,0.6785350612904775,51.0,518.0,0.0
G,D,"[11, 8]",0.0,3.0,0.2975008487701416,2.121595859527588,0.733581252953875,51.0,519.0,0.0
G,D,"[10, 8]",-3.0,3.0,0.2562751770019531,1.6386830806732178,0.27246788204076783,51.0,520.0,0.0
,,"(6, 6)",,,,,,,,
R,U,"[5, 6]",1.0,1.0,0.6981499195098877,4.039881944656372,0.44541231822050154,52.0,521.0,0.0
Y,R,"[5, 7]",1.0,2.0,0.3303539752960205,2.165961980819702,0.7442309719931997,52.0,522.0,0.0
Y,R,"[5, 8]",1.0,3.0,0.3387010097503662,2.006608009338379,0.567636628822529,52.0,523.0,0.0
G,D,"[6, 8]",1.0,4.0,0.4923419952392578,1.9258530139923096,0.3270015935935098,52.0,524.0,0.0
B,L,"[6, 7]",0.0,4.0,0.5193018913269043,2.1649889945983887,0.558444518141461,52.0,525.0,0.0
G,D,"[7, 7]",0.0,4.0,0.3015730381011963,2.085056781768799,0.693381862571558,52.0,526.0,0.0
Y,R,"[7, 8]",0.0,4.0,0.36726999282836914,2.1049089431762695,0.6481993931267431,52.0,527.0,0.0
Y,R,"[7, 9]",0.0,4.0,0.2874789237976074,2.068289041519165,0.6834234175160181,52.0,528.0,0.0
Y,R,"[7, 10]",0.0,4.0,0.2937901020050049,2.0659611225128174,0.6654547213141653,52.0,529.0,0.0
Y,R,"[7, 11]",0.0,4.0,0.37150001525878906,1.7567241191864014,0.28946074753323137,52.0,530.0,0.0
,,"(6, 6)",,,,,,,,
R,U,"[5, 6]",1.0,1.0,0.6166708469390869,10.396544933319092,0.5187942473227332,53.0,531.0,0.0
Y,R,"[5, 7]",1.0,2.0,0.23395490646362305,1.6861529350280762,0.35487203694617947,53.0,532.0,0.0
Y,R,"[5, 8]",1.0,3.0,0.49797487258911133,2.260558843612671,0.6652404984806826,53.0,533.0,0.0
G,D,"[6, 8]",1.0,4.0,0.2839088439941406,2.002964973449707,0.6180411878280603,53.0,534.0,0.0
G,D,"[7, 8]",0.0,4.0,0.4048938751220703,1.9903631210327148,0.45847983006817666,53.0,535.0,0.0
Y,R,"[7, 9]",0.0,4.0,0.7814898490905762,2.6166610717773438,0.7414356128377502,53.0,536.0,0.0
Y,R,"[7, 10]",0.0,4.0,0.2977628707885742,2.086073160171509,0.6939894410940737,53.0,537.0,0.0
Y,R,"[7, 11]",0.0,4.0,0.28941988945007324,2.0947930812835693,0.7055719901625719,53.0,538.0,0.0
Y,R,"[7, 10]",-3.0,4.0,0.5896029472351074,2.1448419094085693,0.45034286777488014,53.0,539.0,0.0
Y,R,"[7, 11]",0.0,4.0,0.4903450012207031,1.9443659782409668,0.34504853385679596,53.0,540.0,0.0
,,"(6, 6)",,,,,,,,
R,U,"[5, 6]",1.0,1.0,0.4551839828491211,3.4895641803741455,0.5174364314114352,54.0,541.0,0.0
Y,R,"[5, 7]",1.0,2.0,0.2391209602355957,1.615074872970581,0.266294013929794,54.0,542.0,0.0
Y,R,"[5, 8]",1.0,3.0,0.4002659320831299,1.7514379024505615,0.25075489277541757,54.0,543.0,0.0
G,D,"[6, 8]",1.0,4.0,0.7482869625091553,2.1300477981567383,0.2807746878760135,54.0,544.0,0.0
Y,R,"[6, 9]",1.0,5.0,0.2768411636352539,1.8032050132751465,0.4169663429500871,54.0,545.0,0.0
Y,R,"[6, 10]",1.0,6.0,0.2837948799133301,2.0606589317321777,0.6774774405491332,54.0,546.0,0.0
Y,R,"[6, 11]",0.0,6.0,0.1903400421142578,1.8214240074157715,0.5324989656874854,54.0,547.0,0.0
R,U,"[5, 11]",-2.0,6.0,1.4264678955078125,3.195746898651123,0.7282706424827082,54.0,548.0,0.0
R,U,"[4, 11]",0.0,6.0,0.29401397705078125,1.9995129108428955,0.6106643340769868,54.0,549.0,0.0
R,U,"[3, 11]",0.0,6.0,0.3890500068664551,1.8888859748840332,0.3997345702259911,54.0,550.0,0.0
,,"(6, 6)",,,,,,,,
R,U,"[5, 6]",1.0,1.0,0.5590407848358154,3.24284291267395,0.37567253509216525,55.0,551.0,0.0
Y,R,"[5, 7]",1.0,2.0,0.34084510803222656,1.7334158420562744,0.2925825905348177,55.0,552.0,0.0
Y,R,"[5, 8]",1.0,3.0,0.9933311939239502,2.422537088394165,0.33179267247377525,55.0,553.0,0.0
G,D,"[6, 8]",1.0,4.0,0.6040918827056885,2.1143929958343506,0.4124782858302738,55.0,554.0,0.0
Y,R,"[6, 9]",1.0,5.0,0.2992229461669922,2.0459511280059814,0.6415348929911632,55.0,555.0,0.0
Y,R,"[6, 10]",1.0,6.0,0.19178199768066406,1.606755018234253,0.3151624899808246,55.0,556.0,0.0
B,L,"[6, 9]",0.0,6.0,0.4163339138031006,2.242002010345459,0.7234227443885415,55.0,557.0,0.0
G,D,"[7, 9]",0.0,6.0,0.4607880115509033,2.1355490684509277,0.5756411306808156,55.0,558.0,0.0
R,U,"[6, 9]",0.0,6.0,0.31441807746887207,2.108985185623169,0.7012899400914907,55.0,559.0,0.0
R,U,"[5, 9]",-2.0,6.0,1.2789080142974854,2.7490670680999756,0.43395952500063856,55.0,560.0,0.0
,,"(6, 6)",,,,,,,,
R,U,"[5, 6]",1.0,1.0,0.5219728946685791,3.804321050643921,0.5544224325117562,56.0,561.0,0.0
Y,R,"[5, 7]",1.0,2.0,0.2688448429107666,1.8630361557006836,0.5006857480337341,56.0,562.0,0.0
Y,R,"[5, 8]",1.0,3.0,0.3358609676361084,1.7058579921722412,0.27355992824476166,56.0,563.0,0.0
G,D,"[6, 8]",1.0,4.0,0.37691402435302734,2.008491039276123,0.5317266608298947,56.0,564.0,0.0
Y,R,"[6, 9]",1.0,5.0,0.49828505516052246,2.34421706199646,0.7426036147157975,56.0,565.0,0.0
Y,R,"[6, 10]",1.0,6.0,0.23183107376098633,1.799933910369873,0.47585658312272505,56.0,566.0,0.0
G,D,"[7, 10]",0.0,6.0,0.31279492378234863,2.0304770469665527,0.6227475936120563,56.0,567.0,0.0
G,D,"[8, 10]",0.0,6.0,0.3066418170928955,1.6670570373535156,0.2566191916477446,56.0,568.0,0.0
R,U,"[7, 10]",0.0,6.0,0.32306909561157227,1.971851110458374,0.544874918885121,56.0,569.0,0.0
R,U,"[6, 10]",0.0,6.0,0.9529948234558105,2.48983097076416,0.45146109899923975,56.0,570.0,0.0
,,"(6, 6)",,,,,,,,
R,U,"[5, 6]",1.0,1.0,0.3882150650024414,3.352849006652832,0.5874913294411019,57.0,571.0,0.0
Y,R,"[5, 7]",1.0,2.0,0.3494718074798584,2.0123891830444336,0.5665441856068042,57.0,572.0,0.0
Y,R,"[5, 8]",1.0,3.0,0.40824007987976074,1.8631701469421387,0.34623242732288606,57.0,573.0,0.0
G,D,"[6, 8]",1.0,4.0,0.5107710361480713,2.149017095565796,0.5283130806596205,57.0,574.0,0.0
Y,R,"[6, 9]",1.0,5.0,0.5572018623352051,2.173401117324829,0.5186609188199367,57.0,575.0,0.0
Y,R,"[6, 10]",1.0,6.0,0.35477519035339355,1.867676019668579,0.41949099478014845,57.0,576.0,0.0
R,U,"[5, 10]",1.0,7.0,0.3731210231781006,1.942072868347168,0.46136384086631327,57.0,577.0,0.0
R,U,"[4, 10]",1.0,8.0,0.42173194885253906,2.2314999103546143,0.7259638985614252,57.0,578.0,0.0
Y,R,"[4, 11]",0.0,8.0,0.2764461040496826,1.6551508903503418,0.28137173967635226,57.0,579.0,0.0
G,D,"[5, 11]",0.0,8.0,0.9556829929351807,2.6892271041870117,0.6366656052075889,57.0,580.0,0.0
,,"(6, 6)",,,,,,,,
R,U,"[5, 6]",1.0,1.0,0.4151439666748047,3.198599100112915,0.46888682575167245,58.0,581.0,0.0
Y,R,"[5, 7]",1.0,2.0,0.433243989944458,2.259768009185791,0.7283416910091027,58.0,582.0,0.0
Y,R,"[5, 8]",1.0,3.0,0.2642209529876709,1.8339970111846924,0.4792128701815037,58.0,583.0,0.0
G,D,"[6, 8]",1.0,4.0,0.6182951927185059,2.413180112838745,0.6919972448018152,58.0,584.0,0.0
Y,R,"[6, 9]",1.0,5.0,0.7725138664245605,2.137392044067383,0.26308848343323454,58.0,585.0,0.0
Y,R,"[6, 10]",1.0,6.0,0.7271449565887451,2.4823670387268066,0.6450642393249464,58.0,586.0,0.0
R,U,"[5, 10]",1.0,7.0,0.5684220790863037,2.3470299243927,0.6919000257704468,58.0,587.0,0.0
R,U,"[4, 10]",1.0,8.0,0.3323969841003418,2.0881640911102295,0.6632635183319802,58.0,588.0,0.0
B,L,"[4, 9]",1.0,9.0,0.8063881397247314,2.4263980388641357,0.5065891272561578,58.0,589.0,0.0
G,D,"[5, 9]",0.0,9.0,0.5746519565582275,2.2541401386260986,0.5772044945735686,58.0,590.0,0.0
,,"(6, 6)",,,,,,,,
R,U,"[5, 6]",1.0,1.0,0.5286688804626465,3.2050931453704834,0.4992153552833807,59.0,591.0,0.0
Y,R,"[5, 7]",1.0,2.0,0.41085314750671387,2.0443849563598633,0.5265878399079383,59.0,592.0,0.0
Y,R,"[5, 8]",1.0,3.0,0.30970001220703125,2.1394879817962646,0.7323993428435717,59.0,593.0,0.0
G,D,"[6, 8]",1.0,4.0,0.24951982498168945,1.700294017791748,0.34977694453328223,59.0,594.0,0.0
Y,R,"[6, 9]",1.0,5.0,0.5814850330352783,2.397676944732666,0.7142494554158443,59.0,595.0,0.0
Y,R,"[6, 10]",1.0,6.0,0.274554967880249,1.9880750179290771,0.601905550010303,59.0,596.0,0.0
R,U,"[5, 10]",1.0,7.0,0.3061830997467041,2.1067628860473633,0.691588372719167,59.0,597.0,0.0
R,U,"[4, 10]",1.0,8.0,0.12420892715454102,1.6528210639953613,0.4279965520991806,59.0,598.0,0.0
B,L,"[4, 9]",1.0,9.0,0.43406009674072266,1.8791499137878418,0.35725435075381284,59.0,599.0,0.0
R,U,"[3, 9]",1.0,10.0,0.27282190322875977,1.6701440811157227,0.3107672928881084,59.0,600.0,0.0
,,"(6, 6)",,,,,,,,
R,U,"[5, 6]",1.0,1.0,0.4195899963378906,3.384887933731079,0.5784165759883484,60.0,601.0,0.0
Y,R,"[5, 7]",1.0,2.0,0.339648962020874,1.8422770500183105,0.4041313082872149,60.0,602.0,0.0
G,D,"[6, 7]",0.0,2.0,0.2441880702972412,1.8877971172332764,0.5420394730763611,60.0,603.0,0.0
G,D,"[7, 7]",0.0,2.0,0.9132518768310547,2.7461819648742676,0.7376595935419985,60.0,604.0,0.0
Y,R,"[7, 8]",0.0,2.0,0.26051902770996094,1.7233920097351074,0.3613639180854776,60.0,605.0,0.0
B,L,"[7, 7]",0.0,2.0,0.3504769802093506,1.8357970714569092,0.3971659392904989,60.0,606.0,0.0
Y,R,"[7, 8]",0.0,2.0,0.33141112327575684,2.0528640747070312,0.6163810090736386,60.0,607.0,0.0
B,L,"[7, 7]",0.0,2.0,0.3214240074157715,1.7132899761199951,0.27986130675311954,60.0,608.0,0.0
R,U,"[6, 7]",0.0,2.0,0.3576529026031494,2.142549991607666,0.6719487271482003,60.0,609.0,0.0
R,U,"[5, 7]",0.0,2.0,0.37741780281066895,1.7711329460144043,0.29343528727700874,60.0,610.0,0.0
,,"(6, 6)",,,,,,,,
R,U,"[5, 6]",1.0,1.0,0.40901803970336914,2.9704790115356445,0.2972807103802724,61.0,611.0,0.0
Y,R,"[5, 7]",1.0,2.0,0.39120984077453613,1.8290300369262695,0.32609817040881617,61.0,612.0,0.0
Y,R,"[5, 8]",1.0,3.0,0.6416699886322021,2.334059953689575,0.5931949106608783,61.0,613.0,0.0
G,D,"[6, 8]",1.0,4.0,0.5552239418029785,1.981977939605713,0.32537401146845046,61.0,614.0,0.0
Y,R,"[6, 9]",1.0,5.0,0.6299471855163574,2.1426990032196045,0.4177763212273663,61.0,615.0,0.0
Y,R,"[6, 10]",1.0,6.0,0.5818881988525391,2.370043992996216,0.6875521795058932,61.0,616.0,0.0
R,U,"[5, 10]",1.0,7.0,0.42552995681762695,2.0596320629119873,0.5306654853549082,61.0,617.0,0.0
R,U,"[4, 10]",1.0,8.0,0.23651909828186035,1.7796080112457275,0.44364602542442944,61.0,618.0,0.0
B,L,"[4, 9]",1.0,9.0,0.46973395347595215,1.8877959251403809,0.3313118381154674,61.0,619.0,0.0
Y,R,"[4, 10]",0.0,9.0,0.24663186073303223,2.0787270069122314,0.7265142549920727,61.0,620.0,0.0
,,"(6, 6)",,,,,,,,
R,U,"[5, 6]",1.0,1.0,0.5358419418334961,4.067596912384033,0.6272574739143911,62.0,621.0,0.0
Y,R,"[5, 7]",1.0,2.0,0.42632293701171875,1.929091215133667,0.40648747224797693,62.0,622.0,0.0
Y,R,"[5, 8]",1.0,3.0,0.48806190490722656,1.9421820640563965,0.3647587732292581,62.0,623.0,0.0
G,D,"[6, 8]",1.0,4.0,0.35985589027404785,1.8705379962921143,0.40235393015944143,62.0,624.0,0.0
Y,R,"[6, 9]",1.0,5.0,0.28009581565856934,1.9692010879516602,0.5881136511092631,62.0,625.0,0.0
Y,R,"[6, 10]",1.0,6.0,0.3418300151824951,1.8952980041503906,0.45001584572906106,62.0,626.0,0.0
R,U,"[5, 10]",1.0,7.0,0.3767049312591553,2.0540778636932373,0.5707177384000319,62.0,627.0,0.0
R,U,"[4, 10]",1.0,8.0,0.12954306602478027,1.6980679035186768,0.4687087836257969,62.0,628.0,0.0
B,L,"[4, 9]",1.0,9.0,0.41348791122436523,1.9353430271148682,0.4207414966685727,62.0,629.0,0.0
B,L,"[4, 8]",0.0,9.0,0.30179786682128906,2.0099658966064453,0.6140146921501963,62.0,630.0,0.0
,,"(6, 6)",,,,,,,,
R,U,"[5, 6]",1.0,1.0,0.4110541343688965,3.170037031173706,0.2506544769901603,63.0,631.0,0.0
Y,R,"[5, 7]",1.0,2.0,0.38172006607055664,2.1531670093536377,0.6701884265732564,63.0,632.0,0.0
Y,R,"[5, 8]",1.0,3.0,0.21480798721313477,1.9610378742218018,0.6478176117776961,63.0,633.0,0.0
G,D,"[6, 8]",1.0,4.0,0.2670729160308838,1.9767260551452637,0.6077282562569088,63.0,634.0,0.0
Y,R,"[6, 9]",1.0,5.0,0.2502560615539551,1.776684045791626,0.4344698489468595,63.0,635.0,0.0
Y,R,"[6, 10]",1.0,6.0,0.4389171600341797,2.033107042312622,0.48445399010138857,63.0,636.0,0.0
R,U,"[5, 10]",1.0,7.0,0.29355287551879883,1.728389024734497,0.329384362218934,63.0,637.0,0.0
R,U,"[4, 10]",1.0,8.0,0.3830869197845459,1.9028630256652832,0.415462347234038,63.0,638.0,0.0
B,L,"[4, 9]",1.0,9.0,0.43804287910461426,2.103991985321045,0.5527915270891146,63.0,639.0,0.0
R,U,"[3, 9]",1.0,10.0,0.3240809440612793,2.154261827468872,0.7236377045210967,63.0,640.0,0.0
,,"(6, 6)",,,,,,,,
R,U,"[5, 6]",-2.0,0.0,1.0689809322357178,4.021630048751831,0.5116015922778532,64.0,641.0,0.0
R,U,"[4, 6]",0.0,0.0,0.2912712097167969,2.0286619663238525,0.6400218860013129,64.0,642.0,0.0
R,U,"[3, 6]",0.0,0.0,0.2911851406097412,1.851836919784546,0.45876903598211966,64.0,643.0,0.0
R,U,"[2, 6]",0.0,0.0,0.33087897300720215,1.821052074432373,0.3965241247393905,64.0,644.0,0.0
R,U,"[1, 6]",0.0,0.0,0.3235290050506592,2.13311505317688,0.6958563568254266,64.0,645.0,0.0
R,U,"[2, 6]",-1.0,0.0,0.045416831970214844,5.894503831863403,0.7068855791702228,64.0,646.0,0.0
R,U,"[1, 6]",0.0,0.0,0.4158060550689697,2.1189818382263184,0.6089997350133609,64.0,647.0,0.0
R,U,"[2, 6]",-3.0,0.0,0.37004590034484863,2.0326499938964844,0.5749952477538698,64.0,648.0,0.0
R,U,"[1, 6]",0.0,0.0,0.299144983291626,1.8120999336242676,0.42059391797685264,64.0,649.0,0.0
R,U,"[2, 6]",-1.0,0.0,0.04016709327697754,5.651746034622192,0.4889138086361019,64.0,650.0,0.0
,,"(6, 6)",,,,,,,,
R,U,"[5, 6]",1.0,1.0,0.6508610248565674,4.07335090637207,0.595163763742391,65.0,651.0,0.0
Y,R,"[5, 7]",1.0,2.0,0.6036829948425293,2.16684889793396,0.4787337082073381,65.0,652.0,0.0
Y,R,"[5, 8]",1.0,3.0,0.5776278972625732,2.3111770153045654,0.6398049297959005,65.0,653.0,0.0
G,D,"[6, 8]",1.0,4.0,0.7777829170227051,2.1741139888763428,0.2975267393002862,65.0,654.0,0.0
Y,R,"[6, 9]",1.0,5.0,0.6978201866149902,2.1441268920898438,0.34134441303395335,65.0,655.0,0.0
Y,R,"[6, 10]",1.0,6.0,0.6620268821716309,2.2337539196014404,0.474924283697865,65.0,656.0,0.0
R,U,"[5, 10]",-2.0,6.0,1.2086830139160156,2.5648081302642822,0.32314095769900575,65.0,657.0,0.0
R,U,"[4, 10]",1.0,7.0,0.2719578742980957,2.0827651023864746,0.705411071057952,65.0,658.0,0.0
R,U,"[3, 10]",-1.0,7.0,0.06112098693847656,5.552277088165283,0.3579725400940406,65.0,659.0,0.0
R,U,"[2, 10]",0.0,7.0,0.29756903648376465,1.8753139972686768,0.4829780563034506,65.0,660.0,0.0
,,"(6, 6)",,,,,,,,
R,U,"[5, 6]",1.0,1.0,0.6403958797454834,3.4308788776397705,0.3971324243715361,66.0,661.0,0.0
Y,R,"[5, 7]",1.0,2.0,0.613781213760376,2.253156900405884,0.5336659497459513,66.0,662.0,0.0
Y,R,"[5, 8]",1.0,3.0,0.3207991123199463,1.7749271392822266,0.34181985037385976,66.0,663.0,0.0
G,D,"[6, 8]",1.0,4.0,0.6933450698852539,2.2841110229492188,0.4924856055444694,66.0,664.0,0.0
Y,R,"[6, 9]",1.0,5.0,0.5676989555358887,2.2586607933044434,0.6011241845121773,66.0,665.0,0.0
Y,R,"[6, 10]",1.0,6.0,0.33026695251464844,1.833698034286499,0.40145256494402054,66.0,666.0,0.0
R,U,"[5, 10]",1.0,7.0,0.6316449642181396,2.3630518913269043,0.6308940674220895,66.0,667.0,0.0
R,U,"[4, 10]",1.0,8.0,0.21435785293579102,1.6668570041656494,0.3478738548959039,66.0,668.0,0.0
B,L,"[4, 9]",1.0,9.0,0.45822596549987793,2.2444519996643066,0.6753934599560558,66.0,669.0,0.0
R,U,"[3, 9]",1.0,10.0,0.40886783599853516,2.2524290084838867,0.7442123196831127,66.0,670.0,0.0
,,"(6, 6)",,,,,,,,
R,U,"[5, 6]",1.0,1.0,0.5998880863189697,4.720912933349609,0.5987599930359366,67.0,671.0,0.0
Y,R,"[5, 7]",1.0,2.0,0.30040717124938965,1.8931632041931152,0.49163052990816075,67.0,672.0,0.0
Y,R,"[5, 8]",1.0,3.0,0.35410189628601074,1.878896951675415,0.43721774769998273,67.0,673.0,0.0
G,D,"[6, 8]",1.0,4.0,0.6064589023590088,2.1361680030822754,0.4235175125422081,67.0,674.0,0.0
Y,R,"[6, 9]",1.0,5.0,0.21532607078552246,1.9744510650634766,0.6642257942311388,67.0,675.0,0.0
Y,R,"[6, 10]",1.0,6.0,0.2420032024383545,1.70045804977417,0.34816574471428935,67.0,676.0,0.0
R,U,"[5, 10]",1.0,7.0,0.7069590091705322,2.398653984069824,0.5798391498856371,67.0,677.0,0.0
R,U,"[4, 10]",1.0,8.0,0.13898181915283203,1.9171009063720703,0.6634944345707742,67.0,678.0,0.0
B,L,"[4, 9]",1.0,9.0,0.25620412826538086,1.6676790714263916,0.29812402084303663,67.0,679.0,0.0
R,U,"[3, 9]",1.0,10.0,0.4396958351135254,1.9888999462127686,0.4368171669110633,67.0,680.0,0.0
,,"(6, 6)",,,,,,,,
R,U,"[5, 6]",1.0,1.0,0.7025468349456787,7.53164005279541,0.251646376964152,68.0,681.0,0.0
Y,R,"[5, 7]",1.0,2.0,0.36972594261169434,1.8184618949890137,0.3533425406098048,68.0,682.0,0.0
Y,R,"[5, 8]",1.0,3.0,0.36876988410949707,2.033931016921997,0.5703042028519552,68.0,683.0,0.0
G,D,"[6, 8]",1.0,4.0,0.29138898849487305,2.132312059402466,0.7362376725675006,68.0,684.0,0.0
Y,R,"[6, 9]",1.0,5.0,0.3282809257507324,1.727527141571045,0.2969545884607781,68.0,685.0,0.0
Y,R,"[6, 10]",1.0,6.0,0.4111311435699463,1.9607210159301758,0.4408775736659768,68.0,686.0,0.0
R,U,"[5, 10]",1.0,7.0,0.40813302993774414,2.2544188499450684,0.7448749239588501,68.0,687.0,0.0
R,U,"[4, 10]",1.0,8.0,0.9210541248321533,2.6376729011535645,0.6161584670461151,68.0,688.0,0.0
B,L,"[4, 9]",1.0,9.0,0.7218329906463623,2.3788599967956543,0.5447979915618144,68.0,689.0,0.0
R,U,"[3, 9]",1.0,10.0,0.6191060543060303,2.0806500911712646,0.3756664528232856,68.0,690.0,0.0
,,"(6, 6)",,,,,,,,
R,U,"[5, 6]",1.0,1.0,0.5446929931640625,4.239809989929199,0.43193243468795695,69.0,691.0,0.0
Y,R,"[5, 7]",1.0,2.0,0.503709077835083,1.9598839282989502,0.3583287938180326,69.0,692.0,0.0
Y,R,"[5, 8]",1.0,3.0,0.5707061290740967,2.1093461513519287,0.4509336508425023,69.0,693.0,0.0
G,D,"[6, 8]",1.0,4.0,0.549968957901001,2.1507880687713623,0.5017563332641071,69.0,694.0,0.0
Y,R,"[6, 9]",1.0,5.0,0.5680060386657715,2.0689241886138916,0.40398998386198665,69.0,695.0,0.0
Y,R,"[6, 10]",1.0,6.0,0.5789229869842529,2.104962110519409,0.4253174555073907,69.0,696.0,0.0
R,U,"[5, 10]",-2.0,6.0,1.4081969261169434,3.174009084701538,0.7323880149391689,69.0,697.0,0.0
R,U,"[4, 10]",1.0,7.0,0.3697848320007324,1.8340420722961426,0.36663089568118756,69.0,698.0,0.0
R,U,"[3, 10]",0.0,7.0,0.6246349811553955,2.1449291706085205,0.41171561122467526,69.0,699.0,0.0
R,U,"[2, 10]",0.0,7.0,0.3030869960784912,2.0376429557800293,0.6487405647783985,69.0,700.0,0.0
,,"(6, 6)",,,,,,,,
R,U,"[5, 6]",1.0,1.0,0.6344141960144043,3.4918510913848877,0.5907427617259515,70.0,701.0,0.0
Y,R,"[5, 7]",1.0,2.0,0.3598670959472656,1.7702040672302246,0.3110474710902027,70.0,702.0,0.0
Y,R,"[5, 8]",1.0,3.0,0.4100208282470703,1.856389045715332,0.35076615876551104,70.0,703.0,0.0
G,D,"[6, 8]",1.0,4.0,0.9995219707489014,2.437946081161499,0.3387654113022525,70.0,704.0,0.0
Y,R,"[6, 9]",1.0,5.0,0.5889959335327148,2.1336309909820557,0.4387259023758743,70.0,705.0,0.0
Y,R,"[6, 10]",1.0,6.0,0.49463391304016113,2.0085110664367676,0.4140086045962874,70.0,706.0,0.0
R,U,"[5, 10]",1.0,7.0,0.6381540298461914,2.390122175216675,0.6539399093261584,70.0,707.0,0.0
R,U,"[4, 10]",1.0,8.0,0.6672189235687256,2.220689058303833,0.45779232774791656,70.0,708.0,0.0
B,L,"[4, 9]",1.0,9.0,0.5037610530853271,2.280139923095703,0.6875665100535762,70.0,709.0,0.0
R,U,"[3, 9]",1.0,10.0,0.4237680435180664,2.043750047683716,0.5148246422643885,70.0,710.0,0.0
,,"(6, 6)",,,,,,,,
R,U,"[5, 6]",1.0,1.0,0.44962406158447266,2.980567216873169,0.42873820079949515,71.0,711.0,0.0
Y,R,"[5, 7]",1.0,2.0,0.2857019901275635,1.9122719764709473,0.5408663740419493,71.0,712.0,0.0
Y,R,"[5, 8]",1.0,3.0,0.32105207443237305,1.948505163192749,0.5392304651202702,71.0,713.0,0.0
G,D,"[6, 8]",1.0,4.0,0.44495201110839844,1.9165430068969727,0.37253038974997216,71.0,714.0,0.0
Y,R,"[6, 9]",1.0,5.0,0.45926403999328613,1.924699068069458,0.3637771066366794,71.0,715.0,0.0
Y,R,"[6, 10]",1.0,6.0,0.36702585220336914,2.116690158843994,0.6467744223461337,71.0,716.0,0.0
R,U,"[5, 10]",1.0,7.0,0.5072698593139648,2.11081600189209,0.491216590495262,71.0,717.0,0.0
R,U,"[4, 10]",1.0,8.0,0.32651519775390625,1.776418924331665,0.35086676770808833,71.0,718.0,0.0
B,L,"[4, 9]",1.0,9.0,0.6379799842834473,2.3429598808288574,0.5935110708445646,71.0,719.0,0.0
R,U,"[3, 9]",1.0,10.0,0.22841095924377441,1.6090049743652344,0.2862330343565595,71.0,720.0,0.0
,,"(6, 6)",,,,,,,,
R,U,"[5, 6]",1.0,1.0,0.5688648223876953,3.686544179916382,0.355813975361813,72.0,721.0,0.0
Y,R,"[5, 7]",1.0,2.0,0.5384161472320557,2.2184879779815674,0.590616149121279,72.0,722.0,0.0
Y,R,"[5, 8]",1.0,3.0,0.3650069236755371,1.8115170001983643,0.35245834871728743,72.0,723.0,0.0
G,D,"[6, 8]",1.0,4.0,0.33395886421203613,1.6879560947418213,0.2570239313398621,72.0,724.0,0.0
Y,R,"[6, 9]",1.0,5.0,0.48456788063049316,2.042902946472168,0.46634556198384797,72.0,725.0,0.0
Y,R,"[6, 10]",1.0,6.0,0.279587984085083,1.7461419105529785,0.36249383406128055,72.0,726.0,0.0
R,U,"[5, 10]",1.0,7.0,0.6745181083679199,2.1870250701904297,0.399353204900476,72.0,727.0,0.0
R,U,"[4, 10]",1.0,8.0,0.3662378787994385,2.1557071208953857,0.6880245134447815,72.0,728.0,0.0
B,L,"[4, 9]",1.0,9.0,0.4941580295562744,2.058806896209717,0.46392947190987577,72.0,729.0,0.0
R,U,"[3, 9]",1.0,10.0,0.3456130027770996,2.1821091175079346,0.7290361422501592,72.0,730.0,0.0
,,"(6, 6)",,,,,,,,
R,U,"[5, 6]",1.0,1.0,0.6613190174102783,2.9010379314422607,0.6464631694134517,73.0,731.0,0.0
Y,R,"[5, 7]",1.0,2.0,0.10349392890930176,1.8802847862243652,0.6767187957396326,73.0,732.0,0.0
Y,R,"[5, 8]",1.0,3.0,0.30341386795043945,1.8278238773345947,0.43826306179470415,73.0,733.0,0.0
G,D,"[6, 8]",1.0,4.0,0.7122960090637207,2.2492270469665527,0.43724998571054047,73.0,734.0,0.0
Y,R,"[6, 9]",1.0,5.0,0.15591788291931152,1.8249659538269043,0.5620016432979107,73.0,735.0,0.0
Y,R,"[6, 10]",1.0,6.0,0.35625195503234863,1.7774109840393066,0.3229015868641029,73.0,736.0,0.0
R,U,"[5, 10]",1.0,7.0,0.6310410499572754,2.1628201007843018,0.4355662864803628,73.0,737.0,0.0
R,U,"[4, 10]",1.0,8.0,0.4031839370727539,2.1257400512695312,0.627828831778983,73.0,738.0,0.0
B,L,"[4, 9]",1.0,9.0,0.5065529346466064,2.0390400886535645,0.4334546413132003,73.0,739.0,0.0
R,U,"[3, 9]",1.0,10.0,0.5404469966888428,2.1317520141601562,0.48195943015787224,73.0,740.0,0.0
,,"(6, 6)",,,,,,,,
R,U,"[5, 6]",1.0,1.0,0.43936705589294434,2.776934862136841,0.691989898105821,74.0,741.0,0.0
Y,R,"[5, 7]",1.0,2.0,0.44249510765075684,2.1238908767700195,0.582308365853285,74.0,742.0,0.0
Y,R,"[5, 8]",1.0,3.0,0.6160509586334229,2.130059003829956,0.41263073140531525,74.0,743.0,0.0
G,D,"[6, 8]",1.0,4.0,0.5406539440155029,2.308906078338623,0.6543890399185036,74.0,744.0,0.0
Y,R,"[6, 9]",1.0,5.0,0.5959279537200928,1.9690678119659424,0.27372681405087534,74.0,745.0,0.0
Y,R,"[6, 10]",1.0,6.0,0.5659229755401611,2.325122833251953,0.6653212338638244,74.0,746.0,0.0
R,U,"[5, 10]",1.0,7.0,0.7075448036193848,2.1033570766448975,0.2854133432939614,74.0,747.0,0.0
R,U,"[4, 10]",1.0,8.0,0.3735170364379883,2.073374032974243,0.5918014432532022,74.0,748.0,0.0
B,L,"[4, 9]",1.0,9.0,0.39195704460144043,1.8565571308135986,0.36521472340316824,74.0,749.0,0.0
R,U,"[3, 9]",1.0,10.0,0.355118989944458,1.7744929790496826,0.30627918463744963,74.0,750.0,0.0
,,"(6, 6)",,,,,,,,
R,U,"[5, 6]",1.0,1.0,0.5875809192657471,5.522785186767578,0.26238032484097107,75.0,751.0,0.0
Y,R,"[5, 7]",1.0,2.0,0.7577390670776367,2.576085090637207,0.7212322134715781,75.0,752.0,0.0
Y,R,"[5, 8]",-1.0,2.0,0.06620311737060547,5.727035045623779,0.5314017492610745,75.0,753.0,0.0
Y,R,"[5, 9]",0.0,2.0,0.23588299751281738,1.7032470703125,0.3684685250353896,75.0,754.0,0.0
Y,R,"[5, 10]",1.0,3.0,0.32491588592529297,2.1115407943725586,0.6794918055990722,75.0,755.0,0.0
G,D,"[6, 10]",1.0,4.0,0.2981679439544678,2.0069448947906494,0.6030538010365422,75.0,756.0,0.0
Y,R,"[6, 11]",0.0,4.0,0.35090184211730957,2.110400915145874,0.6632489766983337,75.0,757.0,0.0
Y,R,"[6, 10]",-3.0,4.0,0.2764468193054199,2.0985028743743896,0.7119012803225906,75.0,758.0,0.0
Y,R,"[6, 11]",0.0,4.0,0.3951449394226074,2.1947309970855713,0.7063988278833263,75.0,759.0,0.0
Y,R,"[6, 10]",-3.0,4.0,0.1602928638458252,1.8662989139556885,0.6060634531444462,75.0,760.0,0.0
,,"(6, 6)",,,,,,,,
Y,R,"[6, 7]",-1.0,0.0,0.02897191047668457,13.439539909362793,0.4785816315304947,76.0,761.0,0.0
R,U,"[5, 7]",1.0,1.0,0.23645901679992676,1.78963303565979,0.46813658055864504,76.0,762.0,0.0
Y,R,"[5, 8]",1.0,2.0,0.3989229202270508,2.1885271072387695,0.6898024301102719,76.0,763.0,0.0
Y,R,"[5, 9]",0.0,2.0,0.30942392349243164,1.8106989860534668,0.4005137006703869,76.0,764.0,0.0
Y,R,"[5, 10]",1.0,3.0,0.3617260456085205,2.056346893310547,0.5900101679565193,76.0,765.0,0.0
G,D,"[6, 10]",1.0,4.0,0.27274489402770996,1.9054620265960693,0.5457099424575094,76.0,766.0,0.0
Y,R,"[6, 11]",0.0,4.0,0.3480348587036133,1.7122468948364258,0.2578939981053503,76.0,767.0,0.0
Y,R,"[6, 10]",-3.0,4.0,0.3289351463317871,1.8650970458984375,0.43972160103420677,76.0,768.0,0.0
Y,R,"[6, 11]",0.0,4.0,0.3073129653930664,1.9832799434661865,0.5727368071905456,76.0,769.0,0.0
Y,R,"[6, 10]",-3.0,4.0,0.4149050712585449,1.9573509693145752,0.44675412414223453,76.0,770.0,0.0
,,"(6, 6)",,,,,,,,
R,U,"[5, 6]",1.0,1.0,0.44986891746520996,3.6276209354400635,0.6741311974186773,77.0,771.0,0.0
Y,R,"[5, 7]",1.0,2.0,0.2416529655456543,2.055396795272827,0.7125791307913824,77.0,772.0,0.0
Y,R,"[5, 8]",1.0,3.0,0.29478001594543457,1.7926819324493408,0.38889415768865865,77.0,773.0,0.0
G,D,"[6, 8]",1.0,4.0,0.3478379249572754,1.7898030281066895,0.3453166170548857,77.0,774.0,0.0
Y,R,"[6, 9]",1.0,5.0,0.33106184005737305,2.1027109622955322,0.6810154875899632,77.0,775.0,0.0
Y,R,"[6, 10]",1.0,6.0,0.3444080352783203,1.9336459636688232,0.4813047470466872,77.0,776.0,0.0
R,U,"[5, 10]",1.0,7.0,0.569007158279419,2.4059841632843018,0.7369413046005953,77.0,777.0,0.0
R,U,"[4, 10]",-1.0,7.0,0.05803418159484863,5.738502025604248,0.542321205645639,77.0,778.0,0.0
R,U,"[3, 10]",0.0,7.0,0.4768490791320801,1.9962100982666016,0.4217833826839714,77.0,779.0,0.0
R,U,"[2, 10]",0.0,7.0,0.11080002784729004,1.7992618083953857,0.5875345537957939,77.0,780.0,0.0
,,"(6, 6)",,,,,,,,
R,U,"[5, 6]",1.0,1.0,0.8293948173522949,3.542850971221924,0.5469416119054791,78.0,781.0,0.0
Y,R,"[5, 7]",1.0,2.0,0.5375468730926514,2.363401174545288,0.726597445582825,78.0,782.0,0.0
Y,R,"[5, 8]",1.0,3.0,0.4733560085296631,1.9385669231414795,0.3655154451405025,78.0,783.0,0.0
G,D,"[6, 8]",1.0,4.0,0.5917630195617676,2.275942087173462,0.5747197084348576,78.0,784.0,0.0
Y,R,"[6, 9]",1.0,5.0,0.24692296981811523,1.9361679553985596,0.5940374881859983,78.0,785.0,0.0
Y,R,"[6, 10]",1.0,6.0,0.4872879981994629,1.8716249465942383,0.29938600179696473,78.0,786.0,0.0
R,U,"[5, 10]",1.0,7.0,0.7210350036621094,2.4120659828186035,0.577757006788236,78.0,787.0,0.0
R,U,"[4, 10]",1.0,8.0,0.4839820861816406,2.1281960010528564,0.5558099737284825,78.0,788.0,0.0
B,L,"[4, 9]",1.0,9.0,0.5255939960479736,2.3343520164489746,0.7064231470588416,78.0,789.0,0.0
R,U,"[3, 9]",1.0,10.0,0.3322770595550537,1.8844358921051025,0.457703809007326,78.0,790.0,0.0
,,"(6, 6)",,,,,,,,
R,U,"[5, 6]",1.0,1.0,0.5677530765533447,3.1525979042053223,0.4271018109565763,79.0,791.0,0.0
Y,R,"[5, 7]",1.0,2.0,0.4687628746032715,1.8615458011627197,0.30527060614195756,79.0,792.0,0.0
Y,R,"[5, 8]",1.0,3.0,0.9061288833618164,2.5156970024108887,0.5039947829813984,79.0,793.0,0.0
G,D,"[6, 8]",1.0,4.0,0.6451268196105957,2.2568359375,0.5107635011366203,79.0,794.0,0.0
Y,R,"[6, 9]",1.0,5.0,0.5044338703155518,2.1405069828033447,0.5344854588745629,79.0,795.0,0.0
Y,R,"[6, 10]",1.0,6.0,0.5093700885772705,1.8768980503082275,0.26178018815184456,79.0,796.0,0.0
R,U,"[5, 10]",1.0,7.0,0.8448441028594971,2.3870689868927,0.4483034891783304,79.0,797.0,0.0
R,U,"[4, 10]",1.0,8.0,0.3210148811340332,2.0564498901367188,0.6047490756372568,79.0,798.0,0.0
B,L,"[4, 9]",1.0,9.0,0.31790900230407715,2.0035641193389893,0.5915893848507567,79.0,799.0,0.0
R,U,"[3, 9]",1.0,10.0,0.23849916458129883,1.7291510105133057,0.40402284569051294,79.0,800.0,0.0
,,"(6, 6)",,,,,,,,
R,U,"[5, 6]",1.0,1.0,0.555042028427124,2.9959640502929688,0.4331568469941817,80.0,801.0,0.0
Y,R,"[5, 7]",1.0,2.0,0.3142549991607666,1.68870210647583,0.2722295573291027,80.0,802.0,0.0
Y,R,"[5, 8]",1.0,3.0,0.6048851013183594,2.3569090366363525,0.6451373735838049,80.0,803.0,0.0
G,D,"[6, 8]",1.0,4.0,0.2867579460144043,1.9625639915466309,0.5911253194517176,80.0,804.0,0.0
Y,R,"[6, 9]",1.0,5.0,0.23200392723083496,1.9700391292572021,0.6447342806457876,80.0,805.0,0.0
Y,R,"[6, 10]",1.0,6.0,0.26432108879089355,2.039541006088257,0.6839569746256083,80.0,806.0,0.0
R,U,"[5, 10]",1.0,7.0,0.42028307914733887,2.20192289352417,0.668840071777109,80.0,807.0,0.0
R,U,"[4, 10]",1.0,8.0,0.2052609920501709,1.8288238048553467,0.5310927298651391,80.0,808.0,0.0
B,L,"[4, 9]",1.0,9.0,0.3308579921722412,1.9619998931884766,0.5264069307856356,80.0,809.0,0.0
R,U,"[3, 9]",1.0,10.0,0.40801310539245605,2.1880228519439697,0.6809357049372116,80.0,810.0,0.0
,,"(6, 6)",,,,,,,,
R,U,"[5, 6]",1.0,1.0,0.6532628536224365,11.678217887878418,0.625511574804383,81.0,811.0,0.0
Y,R,"[5, 7]",1.0,2.0,0.394010066986084,1.8197078704833984,0.3288377718990305,81.0,812.0,0.0
Y,R,"[5, 8]",1.0,3.0,0.7375819683074951,2.3480560779571533,0.526438215020411,81.0,813.0,0.0
G,D,"[6, 8]",1.0,4.0,0.3703041076660156,2.1780970096588135,0.7212501386886196,81.0,814.0,0.0
Y,R,"[6, 9]",1.0,5.0,0.5459520816802979,2.3402888774871826,0.6946330083852121,81.0,815.0,0.0
Y,R,"[6, 10]",1.0,6.0,0.36655688285827637,2.010967969894409,0.5558211785148564,81.0,816.0,0.0
R,U,"[5, 10]",1.0,7.0,0.5292520523071289,1.9122271537780762,0.28464486306047776,81.0,817.0,0.0
R,U,"[4, 10]",1.0,8.0,0.40114688873291016,2.062221050262451,0.5632778424587025,81.0,818.0,0.0
B,L,"[4, 9]",1.0,9.0,0.41281890869140625,1.92972993850708,0.409754586478122,81.0,819.0,0.0
R,U,"[3, 9]",1.0,10.0,0.43470191955566406,2.2186479568481445,0.6947534862614366,81.0,820.0,0.0
,,"(6, 6)",,,,,,,,
R,U,"[5, 6]",1.0,1.0,0.8713250160217285,4.860107898712158,0.4548471909550872,82.0,821.0,0.0
Y,R,"[5, 7]",-1.0,1.0,-0.0014579296112060547,5.7860119342803955,0.6571435637963241,82.0,822.0,0.0
Y,R,"[5, 8]",1.0,2.0,0.28287720680236816,1.8537030220031738,0.4776631343833997,82.0,823.0,0.0
Y,R,"[5, 9]",0.0,2.0,0.5872600078582764,1.9640660285949707,0.2920572353856706,82.0,824.0,0.0
Y,R,"[5, 10]",1.0,3.0,0.3962709903717041,1.79876708984375,0.307217130387372,82.0,825.0,0.0
G,D,"[6, 10]",1.0,4.0,0.4091298580169678,1.9352571964263916,0.4256115179207473,82.0,826.0,0.0
Y,R,"[6, 11]",0.0,4.0,0.33182811737060547,1.950200080871582,0.5258263657991691,82.0,827.0,0.0
Y,R,"[6, 10]",-1.0,4.0,0.09279513359069824,5.81013298034668,0.5855584254447938,82.0,828.0,0.0
Y,R,"[6, 11]",0.0,4.0,0.6438639163970947,2.319133996963501,0.5712839573277908,82.0,829.0,0.0
R,U,"[5, 11]",0.0,4.0,0.37654614448547363,1.8148739337921143,0.3363337941487553,82.0,830.0,0.0
,,"(6, 6)",,,,,,,,
R,U,"[5, 6]",1.0,1.0,0.6906070709228516,3.599033832550049,0.38507621299362316,83.0,831.0,0.0
Y,R,"[5, 7]",1.0,2.0,0.5435030460357666,2.3665809631347656,0.7180402118137812,83.0,832.0,0.0
Y,R,"[5, 8]",1.0,3.0,0.30982017517089844,1.9375319480895996,0.5223787451513316,83.0,833.0,0.0
G,D,"[6, 8]",1.0,4.0,0.40851593017578125,1.9723210334777832,0.46151483047621145,83.0,834.0,0.0
Y,R,"[6, 9]",1.0,5.0,0.5478520393371582,2.0966899394989014,0.45800074352017484,83.0,835.0,0.0
Y,R,"[6, 10]",1.0,6.0,0.454787015914917,1.8132472038269043,0.2713739202282687,83.0,836.0,0.0
R,U,"[5, 10]",1.0,7.0,0.873582124710083,2.325169086456299,0.34621005103660946,83.0,837.0,0.0
R,U,"[4, 10]",1.0,8.0,0.423691987991333,1.9679031372070312,0.430819220192152,83.0,838.0,0.0
B,L,"[4, 9]",1.0,9.0,0.42302989959716797,2.0409979820251465,0.504995023736132,83.0,839.0,0.0
R,U,"[3, 9]",1.0,10.0,0.4209470748901367,2.00040602684021,0.4885330565068002,83.0,840.0,0.0
,,"(6, 6)",,,,,,,,
R,U,"[5, 6]",1.0,1.0,0.7025399208068848,3.590831995010376,0.6292172591595915,84.0,841.0,0.0
Y,R,"[5, 7]",1.0,2.0,0.5314950942993164,2.1837551593780518,0.546482547219987,84.0,842.0,0.0
Y,R,"[5, 8]",1.0,3.0,0.4732041358947754,1.9814279079437256,0.4110525477632345,84.0,843.0,0.0
G,D,"[6, 8]",-1.0,3.0,0.07458710670471191,5.62683892250061,0.42110218124633136,84.0,844.0,0.0
G,D,"[7, 8]",0.0,3.0,0.41434597969055176,1.860990047454834,0.3487354329586753,84.0,845.0,0.0
G,D,"[8, 8]",0.0,3.0,0.29730892181396484,1.8533740043640137,0.4520800938428297,84.0,846.0,0.0
G,D,"[9, 8]",0.0,3.0,0.38329291343688965,2.120694875717163,0.6393736574473938,84.0,847.0,0.0
R,U,"[8, 8]",0.0,3.0,0.16789984703063965,1.530742883682251,0.2703157127394138,84.0,848.0,0.0
Y,R,"[8, 9]",0.0,3.0,0.2680349349975586,2.0952610969543457,0.7314170399739832,84.0,849.0,0.0
B,L,"[8, 8]",0.0,3.0,0.28418803215026855,1.7838540077209473,0.3989417900613146,84.0,850.0,0.0
,,"(6, 6)",,,,,,,,
R,U,"[5, 6]",1.0,1.0,0.7584528923034668,4.915562868118286,0.5975577259026555,85.0,851.0,0.0
Y,R,"[5, 7]",1.0,2.0,0.31623387336730957,2.0720930099487305,0.6527061775796117,85.0,852.0,0.0
Y,R,"[5, 8]",1.0,3.0,0.24422693252563477,1.964447021484375,0.6172923367603662,85.0,853.0,0.0
G,D,"[6, 8]",1.0,4.0,0.3380160331726074,2.0006768703460693,0.5679713015559471,85.0,854.0,0.0
Y,R,"[6, 9]",1.0,5.0,0.1007530689239502,1.7809319496154785,0.5820721632644149,85.0,855.0,0.0
Y,R,"[6, 10]",1.0,6.0,0.4256439208984375,2.097223997116089,0.5626589557932857,85.0,856.0,0.0
R,U,"[5, 10]",1.0,7.0,0.46019983291625977,2.2326769828796387,0.6617110672253699,85.0,857.0,0.0
R,U,"[4, 10]",1.0,8.0,0.27364492416381836,1.781473159790039,0.41026762391759897,85.0,858.0,0.0
B,L,"[4, 9]",1.0,9.0,0.6003060340881348,2.3299241065979004,0.6396387170987672,85.0,859.0,0.0
R,U,"[3, 9]",1.0,10.0,0.1868901252746582,1.9509711265563965,0.6739494464696949,85.0,860.0,0.0
,,"(6, 6)",,,,,,,,
R,U,"[5, 6]",1.0,1.0,0.9669010639190674,3.4742801189422607,0.4814878529954255,86.0,861.0,0.0
Y,R,"[5, 7]",1.0,2.0,0.5224530696868896,2.0291531085968018,0.3941852862724514,86.0,862.0,0.0
Y,R,"[5, 8]",1.0,3.0,0.4979240894317627,2.2704107761383057,0.6808647918487994,86.0,863.0,0.0
G,D,"[6, 8]",1.0,4.0,0.7054181098937988,2.5668179988861084,0.7476239779421228,86.0,864.0,0.0
Y,R,"[6, 9]",1.0,5.0,0.6286969184875488,2.223191976547241,0.48746546638535954,86.0,865.0,0.0
Y,R,"[6, 10]",1.0,6.0,0.4467580318450928,2.010138988494873,0.4641979369230013,86.0,866.0,0.0
R,U,"[5, 10]",1.0,7.0,0.5582859516143799,2.263619899749756,0.5944745236867262,86.0,867.0,0.0
R,U,"[4, 10]",1.0,8.0,0.566227912902832,2.186981201171875,0.5313191409428465,86.0,868.0,0.0
B,L,"[4, 9]",1.0,9.0,0.598242998123169,2.008862018585205,0.3069154726930349,86.0,869.0,0.0
R,U,"[3, 9]",1.0,10.0,0.6882169246673584,2.260739803314209,0.4844385971195459,86.0,870.0,0.0
,,"(6, 6)",,,,,,,,
R,U,"[5, 6]",1.0,1.0,0.4594728946685791,17.8328058719635,0.6830371124261965,87.0,871.0,0.0
Y,R,"[5, 7]",1.0,2.0,0.28218889236450195,1.9789938926696777,0.5952045378514779,87.0,872.0,0.0
Y,R,"[5, 8]",1.0,3.0,0.26128411293029785,2.007427930831909,0.6526938088594958,87.0,873.0,0.0
G,D,"[6, 8]",1.0,4.0,0.26964712142944336,1.8391962051391602,0.4750694722836895,87.0,874.0,0.0
Y,R,"[6, 9]",1.0,5.0,0.27425599098205566,1.6636619567871094,0.2888299685144156,87.0,875.0,0.0
Y,R,"[6, 10]",1.0,6.0,0.39347290992736816,2.1740479469299316,0.6792013663300569,87.0,876.0,0.0
R,U,"[5, 10]",1.0,7.0,0.20505595207214355,1.673602819442749,0.3529691878754309,87.0,877.0,0.0
R,U,"[4, 10]",1.0,8.0,0.3373758792877197,1.856091022491455,0.40907672063288913,87.0,878.0,0.0
B,L,"[4, 9]",1.0,9.0,0.5614809989929199,2.0541439056396484,0.3964679854984048,87.0,879.0,0.0
R,U,"[3, 9]",1.0,10.0,0.655083179473877,2.3581550121307373,0.5875422543632128,87.0,880.0,0.0
,,"(6, 6)",,,,,,,,
R,U,"[5, 6]",1.0,1.0,0.46389293670654297,3.293262004852295,0.7473547128575151,88.0,881.0,0.0
Y,R,"[5, 7]",1.0,2.0,0.1723170280456543,1.895737886428833,0.6264696019103979,88.0,882.0,0.0
Y,R,"[5, 8]",1.0,3.0,0.5443840026855469,2.077749013900757,0.4376294514622787,88.0,883.0,0.0
G,D,"[6, 8]",1.0,4.0,0.5044679641723633,1.9971470832824707,0.38472494748321684,88.0,884.0,0.0
Y,R,"[6, 9]",1.0,5.0,0.7709050178527832,2.1782450675964355,0.3130393934486885,88.0,885.0,0.0
Y,R,"[6, 10]",-2.0,5.0,1.1750938892364502,2.869765043258667,0.649006343219253,88.0,886.0,0.0
Y,R,"[6, 11]",0.0,5.0,0.352741003036499,1.9955809116363525,0.5446750297630704,88.0,887.0,0.0
Y,R,"[6, 10]",-1.0,5.0,0.0987541675567627,5.8786139488220215,0.6562681267523762,88.0,888.0,0.0
Y,R,"[6, 11]",-2.0,5.0,1.236126184463501,2.5439510345458984,0.2840994626890519,88.0,889.0,0.0
Y,R,"[6, 10]",-2.0,5.0,1.1560142040252686,2.661224842071533,0.46158594556665533,88.0,890.0,0.0
,,"(6, 6)",,,,,,,,
R,U,"[5, 6]",1.0,1.0,0.5608808994293213,3.4803619384765625,0.6081345068195692,89.0,891.0,0.0
Y,R,"[5, 7]",1.0,2.0,0.5225560665130615,2.3277411460876465,0.7026741628294115,89.0,892.0,0.0
Y,R,"[5, 8]",1.0,3.0,0.4661839008331299,2.242694139480591,0.6785526204116643,89.0,893.0,0.0
G,D,"[6, 8]",1.0,4.0,0.5198891162872314,2.2599360942840576,0.6551062323322988,89.0,894.0,0.0
Y,R,"[6, 9]",1.0,5.0,0.33008885383605957,1.948632001876831,0.5203675063285189,89.0,895.0,0.0
Y,R,"[6, 10]",1.0,6.0,0.11274981498718262,1.6163768768310547,0.4034118889219051,89.0,896.0,0.0
R,U,"[5, 10]",1.0,7.0,0.509274959564209,2.339146852493286,0.7254682114538874,89.0,897.0,0.0
R,U,"[4, 10]",1.0,8.0,0.26526403427124023,1.6949779987335205,0.3375341834991506,89.0,898.0,0.0
B,L,"[4, 9]",1.0,9.0,0.360637903213501,1.8894810676574707,0.4270634181022288,89.0,899.0,0.0
R,U,"[3, 9]",1.0,10.0,0.45567917823791504,1.8936550617218018,0.3372139943602913,89.0,900.0,0.0
,,"(6, 6)",,,,,,,,
R,U,"[5, 6]",1.0,1.0,0.8225891590118408,3.510435104370117,0.7470509915004919,90.0,901.0,0.0
Y,R,"[5, 7]",1.0,2.0,0.9091329574584961,2.306116819381714,0.2868320389225196,90.0,902.0,0.0
Y,R,"[5, 8]",1.0,3.0,0.9555730819702148,2.4984190464019775,0.45189472262935115,90.0,903.0,0.0
G,D,"[6, 8]",1.0,4.0,0.6348419189453125,2.435810089111328,0.7038690560730942,90.0,904.0,0.0
Y,R,"[6, 9]",1.0,5.0,0.3560919761657715,1.8587110042572021,0.39629618240242376,90.0,905.0,0.0
Y,R,"[6, 10]",1.0,6.0,0.4226970672607422,2.0382301807403564,0.5011568248223642,90.0,906.0,0.0
R,U,"[5, 10]",1.0,7.0,0.4583621025085449,2.160689115524292,0.5948868851858764,90.0,907.0,0.0
R,U,"[4, 10]",1.0,8.0,0.35836005210876465,2.1533961296081543,0.6980128559880296,90.0,908.0,0.0
B,L,"[4, 9]",1.0,9.0,0.5597219467163086,2.2234201431274414,0.554778364592452,90.0,909.0,0.0
R,U,"[3, 9]",1.0,10.0,0.3820168972015381,1.8223369121551514,0.3439086956080526,90.0,910.0,0.0
,,"(6, 6)",,,,,,,,
R,U,"[5, 6]",1.0,1.0,0.6876838207244873,5.617125034332275,0.6443678861956026,91.0,911.0,0.0
Y,R,"[5, 7]",1.0,2.0,0.411484956741333,1.9185070991516113,0.41281607762064776,91.0,912.0,0.0
Y,R,"[5, 8]",1.0,3.0,0.3910839557647705,2.0718801021575928,0.567666842827482,91.0,913.0,0.0
G,D,"[6, 8]",1.0,4.0,0.7263851165771484,2.450477123260498,0.6180069644637498,91.0,914.0,0.0
Y,R,"[6, 9]",1.0,5.0,0.28338003158569336,1.9728429317474365,0.5908331093327892,91.0,915.0,0.0
Y,R,"[6, 10]",1.0,6.0,0.5437469482421875,2.1538920402526855,0.5113546841053369,91.0,916.0,0.0
R,U,"[5, 10]",1.0,7.0,0.7268919944763184,2.470299005508423,0.648017204908867,91.0,917.0,0.0
R,U,"[4, 10]",1.0,8.0,0.4422430992126465,2.242645025253296,0.6905764156113918,91.0,918.0,0.0
B,L,"[4, 9]",1.0,9.0,0.5139150619506836,2.2743608951568604,0.6650121964532731,91.0,919.0,0.0
R,U,"[3, 9]",1.0,10.0,0.4965322017669678,1.9347589015960693,0.333126853218765,91.0,920.0,0.0
,,"(6, 6)",,,,,,,,
R,U,"[5, 6]",1.0,1.0,0.6172511577606201,26.68270492553711,0.7311805619009621,92.0,921.0,0.0
Y,R,"[5, 7]",1.0,2.0,0.3484780788421631,1.7950410842895508,0.34338609538474624,92.0,922.0,0.0
Y,R,"[5, 8]",1.0,3.0,0.6370551586151123,2.3095450401306152,0.5858304076216999,92.0,923.0,0.0
G,D,"[6, 8]",1.0,4.0,0.5804150104522705,2.1893720626831055,0.5086313061721717,92.0,924.0,0.0
Y,R,"[6, 9]",1.0,5.0,0.7681069374084473,2.414865016937256,0.5568981260642827,92.0,925.0,0.0
Y,R,"[6, 10]",1.0,6.0,0.6092848777770996,2.4293999671936035,0.7191550511500262,92.0,926.0,0.0
R,U,"[5, 10]",1.0,7.0,0.7119941711425781,2.101586103439331,0.2877196026679526,92.0,927.0,0.0
R,U,"[4, 10]",1.0,8.0,0.6975340843200684,2.4352660179138184,0.6393922061022728,92.0,928.0,0.0
B,L,"[4, 9]",1.0,9.0,0.5175728797912598,2.132784128189087,0.5222689612796565,92.0,929.0,0.0
R,U,"[3, 9]",1.0,10.0,0.46037817001342773,2.126487970352173,0.5651935186577257,92.0,930.0,0.0
,,"(6, 6)",,,,,,,,
R,U,"[5, 6]",1.0,1.0,0.6289129257202148,36.00563597679138,0.31997258290069935,93.0,931.0,0.0
Y,R,"[5, 7]",1.0,2.0,0.33794188499450684,2.0881130695343018,0.6410172519994305,93.0,932.0,0.0
Y,R,"[5, 8]",1.0,3.0,0.2788820266723633,1.926220178604126,0.5507036820231443,93.0,933.0,0.0
G,D,"[6, 8]",1.0,4.0,0.5976910591125488,2.324173927307129,0.6245038282519765,93.0,934.0,0.0
Y,R,"[6, 9]",1.0,5.0,0.8008630275726318,2.567657947540283,0.6755620087520643,93.0,935.0,0.0
Y,R,"[6, 10]",1.0,6.0,0.5341811180114746,2.2887299060821533,0.6641300414626741,93.0,936.0,0.0
R,U,"[5, 10]",1.0,7.0,0.41623592376708984,2.189507007598877,0.6701765838526013,93.0,937.0,0.0
R,U,"[4, 10]",1.0,8.0,0.3395969867706299,1.9597821235656738,0.5300427147629554,93.0,938.0,0.0
B,L,"[4, 9]",1.0,9.0,0.329099178314209,1.9042551517486572,0.46767678901996673,93.0,939.0,0.0
R,U,"[3, 9]",1.0,10.0,0.3271150588989258,2.074949026107788,0.6427846185303858,93.0,940.0,0.0
,,"(6, 6)",,,,,,,,
R,U,"[5, 6]",-2.0,0.0,1.0940790176391602,17.33759117126465,0.39625794421364713,94.0,941.0,0.0
R,U,"[4, 6]",0.0,0.0,0.6860239505767822,2.1240220069885254,0.33693972869171424,94.0,942.0,0.0
R,U,"[3, 6]",-2.0,0.0,1.571058988571167,2.954928159713745,0.3251975660172912,94.0,943.0,0.0
R,U,"[2, 6]",0.0,0.0,0.789276123046875,2.579490900039673,0.6874860957416373,94.0,944.0,0.0
R,U,"[1, 6]",0.0,0.0,0.2833411693572998,1.776197910308838,0.39740571750100473,94.0,945.0,0.0
R,U,"[2, 6]",-3.0,0.0,0.8045840263366699,2.4488189220428467,0.5458235537231849,94.0,946.0,0.0
R,U,"[1, 6]",0.0,0.0,0.5784749984741211,2.0298221111297607,0.34249322658186004,94.0,947.0,0.0
R,U,"[2, 6]",-3.0,0.0,0.4389331340789795,2.203319787979126,0.6622237576007108,94.0,948.0,0.0
R,U,"[1, 6]",0.0,0.0,0.2982609272003174,2.145642042160034,0.7410420961809293,94.0,949.0,0.0
R,U,"[2, 6]",-3.0,0.0,0.3117220401763916,1.8014740943908691,0.39286781938456694,94.0,950.0,0.0
,,"(6, 6)",,,,,,,,
R,U,"[5, 6]",1.0,1.0,0.6154019832611084,3.263775110244751,0.4063719965276472,95.0,951.0,0.0
Y,R,"[5, 7]",1.0,2.0,0.4042949676513672,2.1980199813842773,0.7040319801297649,95.0,952.0,0.0
Y,R,"[5, 8]",1.0,3.0,0.3205130100250244,1.9311268329620361,0.5187735256152468,95.0,953.0,0.0
G,D,"[6, 8]",1.0,4.0,0.6556220054626465,2.0076520442962646,0.25993842478810986,95.0,954.0,0.0
Y,R,"[6, 9]",1.0,5.0,0.5186059474945068,2.0128300189971924,0.4057189332676382,95.0,955.0,0.0
Y,R,"[6, 10]",1.0,6.0,0.7080459594726562,2.3351030349731445,0.5241321495988432,95.0,956.0,0.0
R,U,"[5, 10]",1.0,7.0,0.610569953918457,2.431497812271118,0.7218720547139695,95.0,957.0,0.0
Y,R,"[5, 11]",0.0,7.0,0.22521209716796875,1.6728739738464355,0.34503394975391477,95.0,958.0,0.0
R,U,"[4, 11]",0.0,7.0,0.49945616722106934,2.2883288860321045,0.6996458924107443,95.0,959.0,0.0
B,L,"[4, 10]",1.0,8.0,0.315640926361084,1.935992956161499,0.5192061550519863,95.0,960.0,0.0
,,"(6, 6)",,,,,,,,
R,U,"[5, 6]",1.0,1.0,0.6664769649505615,5.53485894203186,0.4040310856547148,96.0,961.0,0.0
Y,R,"[5, 7]",1.0,2.0,0.30419397354125977,1.9986519813537598,0.6025568174479325,96.0,962.0,0.0
Y,R,"[5, 8]",1.0,3.0,0.2616150379180908,2.0384130477905273,0.6741641157583281,96.0,963.0,0.0
G,D,"[6, 8]",1.0,4.0,0.10730910301208496,1.9344580173492432,0.7249074242680928,96.0,964.0,0.0
Y,R,"[6, 9]",1.0,5.0,0.29384398460388184,1.9838900566101074,0.5923262801144374,96.0,965.0,0.0
Y,R,"[6, 10]",1.0,6.0,0.3185079097747803,2.0657598972320557,0.6580028468603036,96.0,966.0,0.0
R,U,"[5, 10]",1.0,7.0,0.39681100845336914,1.869819164276123,0.37793177650170556,96.0,967.0,0.0
R,U,"[4, 10]",1.0,8.0,0.5073211193084717,2.2942769527435303,0.6885404284735842,96.0,968.0,0.0
B,L,"[4, 9]",1.0,9.0,0.2571430206298828,1.6498260498046875,0.2886005364244128,96.0,969.0,0.0
R,U,"[3, 9]",1.0,10.0,0.5050890445709229,2.020374059677124,0.40895293549102,96.0,970.0,0.0
,,"(6, 6)",,,,,,,,
R,U,"[5, 6]",1.0,1.0,0.7756819725036621,3.6683449745178223,0.5268636339272065,97.0,971.0,0.0
Y,R,"[5, 7]",1.0,2.0,0.6697511672973633,2.494062900543213,0.7374300456501148,97.0,972.0,0.0
Y,R,"[5, 8]",1.0,3.0,0.2754368782043457,2.090167999267578,0.71089798899335,97.0,973.0,0.0
G,D,"[6, 8]",1.0,4.0,0.27962803840637207,1.8925189971923828,0.5201238608369366,97.0,974.0,0.0
Y,R,"[6, 9]",1.0,5.0,0.261044979095459,1.8612949848175049,0.4981120099618234,97.0,975.0,0.0
Y,R,"[6, 10]",1.0,6.0,0.5036799907684326,2.0353431701660156,0.4167355851503276,97.0,976.0,0.0
R,U,"[5, 10]",1.0,7.0,0.2802259922027588,1.7159831523895264,0.3329832949590722,97.0,977.0,0.0
R,U,"[4, 10]",1.0,8.0,0.5045089721679688,1.9719929695129395,0.3381562747420227,97.0,978.0,0.0
B,L,"[4, 9]",1.0,9.0,0.29828906059265137,2.0613977909088135,0.6659359426428499,97.0,979.0,0.0
R,U,"[3, 9]",1.0,10.0,0.2790830135345459,1.7290399074554443,0.3449732634081192,97.0,980.0,0.0
,,"(6, 6)",,,,,,,,
R,U,"[5, 6]",1.0,1.0,0.3858308792114258,5.490607023239136,0.45196554959526536,98.0,981.0,0.0
Y,R,"[5, 7]",-1.0,1.0,0.07432818412780762,5.682171106338501,0.4672797397312764,98.0,982.0,0.0
Y,R,"[5, 8]",1.0,2.0,0.3968510627746582,1.902540922164917,0.40315607143943005,98.0,983.0,0.0
Y,R,"[5, 9]",0.0,2.0,0.22068309783935547,1.6089458465576172,0.2956656441699836,98.0,984.0,0.0
G,D,"[6, 9]",1.0,3.0,0.7760469913482666,2.3674449920654297,0.49646268633487894,98.0,985.0,0.0
Y,R,"[6, 10]",1.0,4.0,0.2855701446533203,1.818892002105713,0.43168022413656887,98.0,986.0,0.0
Y,R,"[6, 11]",-1.0,4.0,0.08000707626342773,5.638174057006836,0.4197015669475525,98.0,987.0,0.0
Y,R,"[6, 10]",-3.0,4.0,0.24425315856933594,1.846153974533081,0.4991982738157704,98.0,988.0,0.0
Y,R,"[6, 11]",0.0,4.0,0.2882859706878662,1.7357230186462402,0.3514066301858893,98.0,989.0,0.0
Y,R,"[6, 10]",-3.0,4.0,0.3431720733642578,2.0815179347991943,0.6326896463147931,98.0,990.0,0.0
,,"(6, 6)",,,,,,,,
R,U,"[5, 6]",1.0,1.0,0.4893021583557129,7.462625026702881,0.6949194963400896,99.0,991.0,0.0
Y,R,"[5, 7]",1.0,2.0,0.359483003616333,1.9989330768585205,0.5439050529439741,99.0,992.0,0.0
Y,R,"[5, 8]",1.0,3.0,0.5114939212799072,2.084958791732788,0.47886894963003906,99.0,993.0,0.0
G,D,"[6, 8]",1.0,4.0,0.8013908863067627,2.505836009979248,0.6014687820417244,99.0,994.0,0.0
Y,R,"[6, 9]",1.0,5.0,0.39341092109680176,1.9378809928894043,0.43926786270999796,99.0,995.0,0.0
Y,R,"[6, 10]",1.0,6.0,0.6440150737762451,2.368924856185913,0.6246741074058512,99.0,996.0,0.0
R,U,"[5, 10]",1.0,7.0,0.6446731090545654,2.2341370582580566,0.49223594978280827,99.0,997.0,0.0
R,U,"[4, 10]",1.0,8.0,0.6049940586090088,2.404139995574951,0.7125436142707791,99.0,998.0,0.0
B,L,"[4, 9]",1.0,9.0,0.3572099208831787,1.9553749561309814,0.48516760117562824,99.0,999.0,0.0
R,U,"[3, 9]",1.0,10.0,0.3242049217224121,2.1657071113586426,0.7337617212605583,99.0,1000.0,0.0
