button_choice,action_choice,coordinate_choice,reward,cumulative_reward,rt,total_trial_time,iti,block_n,trial_n,trial_type
B,L,"[6, 5]",-2.0,0.0,10.315001010894775,11.688557863235474,0.3893015497407295,0.0,1.0,0.0
B,L,"[6, 4]",0.0,0.0,0.7961850166320801,2.4839329719543457,0.6895898213623137,0.0,2.0,0.0
G,D,"[7, 4]",0.0,0.0,0.9120190143585205,2.4558961391448975,0.5455987320268233,0.0,3.0,0.0
Y,R,"[7, 5]",-2.0,0.0,1.2571940422058105,2.8621721267700195,0.6241356326129968,0.0,4.0,0.0
Y,R,"[7, 6]",0.0,0.0,0.6181690692901611,2.081602096557617,0.47258964514187907,0.0,5.0,0.0
R,U,"[6, 6]",0.0,0.0,0.40480494499206543,2.1296000480651855,0.7352167000569925,0.0,6.0,0.0
R,U,"[5, 6]",1.0,1.0,0.50343918800354,2.167524814605713,0.6693819683753168,0.0,7.0,0.0
R,U,"[4, 6]",0.0,1.0,0.6017961502075195,2.0966880321502686,0.49949650592870976,0.0,8.0,0.0
Y,R,"[4, 7]",0.0,1.0,0.7827839851379395,2.2484500408172607,0.46451335141416616,0.0,9.0,0.0
Y,R,"[4, 8]",0.0,1.0,0.5347251892089844,2.0765388011932373,0.5409218345568674,0.0,10.0,0.0
,,"(6, 6)",,,,,,,,
R,U,"[5, 6]",-2.0,0.0,1.2575461864471436,8.021191120147705,0.6285984151096311,1.0,11.0,0.0
R,U,"[4, 6]",-2.0,0.0,1.7758309841156006,3.35036301612854,0.6119247440608471,1.0,12.0,0.0
G,D,"[5, 6]",0.0,0.0,0.22527003288269043,1.823606014251709,0.6022295442113879,1.0,13.0,0.0
G,D,"[6, 6]",0.0,0.0,0.3188588619232178,1.9334049224853516,0.6189188511525239,1.0,14.0,0.0
R,U,"[5, 6]",0.0,0.0,0.3566880226135254,1.7722539901733398,0.407895327235022,1.0,15.0,0.0
R,U,"[4, 6]",0.0,0.0,0.2722029685974121,1.5902080535888672,0.33151137604559106,1.0,16.0,0.0
R,U,"[3, 6]",0.0,0.0,0.4073970317840576,1.9076659679412842,0.4889955071575584,1.0,17.0,0.0
B,L,"[3, 5]",0.0,0.0,0.5418961048126221,1.839266061782837,0.2950846097704136,1.0,18.0,0.0
B,L,"[3, 4]",0.0,0.0,0.3166170120239258,2.0261287689208984,0.7207095807798287,1.0,19.0,0.0
B,L,"[3, 3]",0.0,0.0,0.31629085540771484,1.9326419830322266,0.6199432418595263,1.0,20.0,0.0
,,"(6, 6)",,,,,,,,
B,L,"[6, 5]",0.0,0.0,0.39952611923217773,5.863611936569214,0.31697909454280393,2.0,21.0,0.0
B,L,"[6, 4]",0.0,0.0,0.7431778907775879,2.3717429637908936,0.6216408312090744,2.0,22.0,0.0
B,L,"[6, 3]",0.0,0.0,0.26645803451538086,1.5464091300964355,0.2851461583135654,2.0,23.0,0.0
B,L,"[6, 2]",0.0,0.0,0.36647796630859375,1.7936420440673828,0.4285315480350688,2.0,24.0,0.0
B,L,"[6, 1]",0.0,0.0,0.32886195182800293,1.922135829925537,0.6004756353769019,2.0,25.0,0.0
B,L,"[6, 2]",-3.0,0.0,0.19932079315185547,1.8001658916473389,0.6005504381135871,2.0,26.0,0.0
B,L,"[6, 1]",0.0,0.0,0.34287500381469727,1.9320340156555176,0.5828345770483463,2.0,27.0,0.0
B,L,"[6, 2]",-3.0,0.0,0.5184509754180908,1.776953935623169,0.25971502143149466,2.0,28.0,0.0
G,D,"[7, 2]",0.0,0.0,0.7047929763793945,2.2985639572143555,0.6078721222851451,2.0,29.0,0.0
G,D,"[8, 2]",0.0,0.0,0.33772993087768555,2.0715792179107666,0.7459703968829732,2.0,30.0,0.0
,,"(6, 6)",,,,,,,,
R,U,"[5, 6]",1.0,1.0,0.8632559776306152,6.183532953262329,0.5627574172903851,3.0,31.0,0.0
R,U,"[4, 6]",0.0,1.0,0.3524641990661621,1.7958049774169922,0.4418849191685149,3.0,32.0,0.0
R,U,"[3, 6]",0.0,1.0,0.21466994285583496,1.9575490951538086,0.749173788449394,3.0,33.0,0.0
R,U,"[2, 6]",0.0,1.0,0.1850130558013916,1.780362844467163,0.5962556392290627,3.0,34.0,0.0
R,U,"[1, 6]",0.0,1.0,0.3936648368835449,1.7452139854431152,0.3415779119745891,3.0,35.0,0.0
G,D,"[2, 6]",0.0,1.0,0.583327054977417,2.2391579151153564,0.6637665018486796,3.0,36.0,0.0
G,D,"[3, 6]",0.0,1.0,0.18877577781677246,1.7941930294036865,0.5913046514704225,3.0,37.0,0.0
G,D,"[4, 6]",0.0,1.0,0.2293260097503662,1.826767921447754,0.60128754639034,3.0,38.0,0.0
G,D,"[5, 6]",0.0,1.0,0.21360111236572266,1.715104103088379,0.49981187417721545,3.0,39.0,0.0
G,D,"[6, 6]",0.0,1.0,0.3389401435852051,1.751154899597168,0.40102921895886195,3.0,40.0,0.0
,,"(6, 6)",,,,,,,,
R,U,"[5, 6]",1.0,1.0,0.5584471225738525,4.567316055297852,0.368197652205922,4.0,41.0,0.0
R,U,"[4, 6]",0.0,1.0,0.26015806198120117,1.7913830280303955,0.5259473726328474,4.0,42.0,0.0
R,U,"[3, 6]",0.0,1.0,0.23388409614562988,1.775305986404419,0.55122955119348,4.0,43.0,0.0
B,L,"[3, 5]",0.0,1.0,0.22446608543395996,1.717345952987671,0.48529553919863727,4.0,44.0,0.0
B,L,"[3, 4]",0.0,1.0,0.20989489555358887,1.6201388835906982,0.40542843556091474,4.0,45.0,0.0
B,L,"[3, 3]",0.0,1.0,0.32221388816833496,2.0074939727783203,0.6792484525538807,4.0,46.0,0.0
Y,R,"[3, 4]",0.0,1.0,0.281466007232666,1.7062411308288574,0.4190472202433112,4.0,47.0,0.0
Y,R,"[3, 5]",0.0,1.0,0.197005033493042,1.5843710899353027,0.3866098830231378,4.0,48.0,0.0
Y,R,"[3, 6]",0.0,1.0,0.2468550205230713,1.4969921112060547,0.25035111100681884,4.0,49.0,0.0
Y,R,"[3, 7]",0.0,1.0,0.44515514373779297,2.1938059329986572,0.7436771572468615,4.0,50.0,0.0
,,"(6, 6)",,,,,,,,
R,U,"[5, 6]",1.0,1.0,0.6915378570556641,4.485614061355591,0.4627220868974253,5.0,51.0,0.0
G,D,"[6, 6]",0.0,1.0,0.22365188598632812,1.5241611003875732,0.28700389916982766,5.0,52.0,0.0
R,U,"[5, 6]",0.0,1.0,0.9580268859863281,2.371295928955078,0.4081714916239688,5.0,53.0,0.0
B,L,"[5, 5]",0.0,1.0,0.27574706077575684,1.9143390655517578,0.6389095832485536,5.0,54.0,0.0
Y,R,"[5, 6]",0.0,1.0,0.3246629238128662,1.9198651313781738,0.5919571104516119,5.0,55.0,0.0
B,L,"[5, 5]",0.0,1.0,0.45104503631591797,1.7720670700073242,0.3309904925655636,5.0,56.0,0.0
G,D,"[6, 5]",0.0,1.0,0.332690954208374,1.651867151260376,0.31619325813512245,5.0,57.0,0.0
R,U,"[5, 5]",0.0,1.0,0.33971500396728516,1.6698591709136963,0.3191685836633427,5.0,58.0,0.0
R,U,"[4, 5]",0.0,1.0,0.3972189426422119,1.6932969093322754,0.2958887517830065,5.0,59.0,0.0
G,D,"[5, 5]",0.0,1.0,0.2599930763244629,1.8014929294586182,0.5305921252128358,5.0,60.0,0.0
,,"(6, 6)",,,,,,,,
R,U,"[5, 6]",1.0,1.0,0.7302441596984863,5.728254079818726,0.6916370630705946,6.0,61.0,0.0
G,D,"[6, 6]",0.0,1.0,0.9714219570159912,2.629271984100342,0.6707465741035442,6.0,62.0,0.0
R,U,"[5, 6]",0.0,1.0,0.22991204261779785,1.8210809230804443,0.5919235887477989,6.0,63.0,0.0
G,D,"[6, 6]",0.0,1.0,0.2141869068145752,1.9076519012451172,0.6993807606539517,6.0,64.0,0.0
R,U,"[5, 6]",0.0,1.0,0.2385389804840088,1.6926980018615723,0.4589837128205878,6.0,65.0,0.0
G,D,"[6, 6]",0.0,1.0,0.2064659595489502,1.4890081882476807,0.28144924184979847,6.0,66.0,0.0
R,U,"[5, 6]",0.0,1.0,0.21822214126586914,1.6161329746246338,0.39742969411296003,6.0,67.0,0.0
G,D,"[6, 6]",0.0,1.0,0.22152304649353027,1.8313720226287842,0.6118369849247182,6.0,68.0,0.0
R,U,"[5, 6]",0.0,1.0,0.22435712814331055,1.6895020008087158,0.4681498521768705,6.0,69.0,0.0
G,D,"[6, 6]",0.0,1.0,0.6718289852142334,2.1524229049682617,0.4704334884894941,6.0,70.0,0.0
,,"(6, 6)",,,,,,,,
R,U,"[5, 6]",1.0,1.0,0.3778340816497803,5.200225830078125,0.7368924791367425,7.0,71.0,0.0
Y,R,"[5, 7]",1.0,2.0,0.2207798957824707,1.7376830577850342,0.5247783054244445,7.0,72.0,0.0
R,U,"[4, 7]",0.0,2.0,0.6014750003814697,2.089332103729248,0.49741030263784075,7.0,73.0,0.0
Y,R,"[4, 8]",0.0,2.0,0.4424479007720947,2.0158700942993164,0.5630657843321081,7.0,74.0,0.0
B,L,"[4, 7]",0.0,2.0,0.7509729862213135,2.0703389644622803,0.31695723888128324,7.0,75.0,0.0
G,D,"[5, 7]",-2.0,2.0,1.4180982112884521,2.9830498695373535,0.5996468261330845,7.0,76.0,0.0
Y,R,"[5, 8]",1.0,3.0,0.4087698459625244,2.1523468494415283,0.7350307368593502,7.0,77.0,0.0
Y,R,"[5, 9]",0.0,3.0,0.4717111587524414,1.7284278869628906,0.2639880973423895,7.0,78.0,0.0
R,U,"[4, 9]",1.0,4.0,0.5343470573425293,1.8765339851379395,0.3403901490084253,7.0,79.0,0.0
Y,R,"[4, 10]",1.0,5.0,0.42972302436828613,1.7265520095825195,0.3002944599846051,7.0,80.0,0.0
,,"(6, 6)",,,,,,,,
R,U,"[5, 6]",1.0,1.0,0.5588037967681885,4.08044695854187,0.3637668214160306,8.0,81.0,0.0
Y,R,"[5, 7]",1.0,2.0,0.1980748176574707,1.646597146987915,0.44346867392638917,8.0,82.0,0.0
R,U,"[4, 7]",0.0,2.0,0.22058510780334473,1.8487210273742676,0.6420734725720332,8.0,83.0,0.0
Y,R,"[4, 8]",0.0,2.0,0.20454692840576172,1.4441750049591064,0.2532716033066994,8.0,84.0,0.0
R,U,"[3, 8]",0.0,2.0,0.2195909023284912,1.616736888885498,0.40309170695502156,8.0,85.0,0.0
Y,R,"[3, 9]",1.0,3.0,0.21784496307373047,1.8775699138641357,0.6637672774959549,8.0,86.0,0.0
R,U,"[2, 9]",0.0,3.0,0.19704198837280273,1.7809078693389893,0.5778960085840024,8.0,87.0,0.0
Y,R,"[2, 10]",0.0,3.0,0.37586212158203125,1.856173038482666,0.48418486168355007,8.0,88.0,0.0
R,U,"[1, 10]",0.0,3.0,0.24218511581420898,1.7155251502990723,0.4663571576835505,8.0,89.0,0.0
Y,R,"[1, 11]",0.0,3.0,0.22147703170776367,1.6696150302886963,0.45248789796207767,8.0,90.0,0.0
,,"(6, 6)",,,,,,,,
R,U,"[5, 6]",1.0,1.0,0.6072628498077393,5.408668041229248,0.6608642914097123,9.0,91.0,0.0
Y,R,"[5, 7]",1.0,2.0,0.23778581619262695,1.8141639232635498,0.591612769367011,9.0,92.0,0.0
G,D,"[6, 7]",0.0,2.0,0.39035797119140625,1.6620750427246094,0.2707241413038697,9.0,93.0,0.0
R,U,"[5, 7]",0.0,2.0,0.362652063369751,1.8501348495483398,0.48720956330446324,9.0,94.0,0.0
Y,R,"[5, 8]",1.0,3.0,0.36350512504577637,2.026120901107788,0.6630998711194069,9.0,95.0,0.0
R,U,"[4, 8]",0.0,3.0,0.3101019859313965,1.5863149166107178,0.2664569596017997,9.0,96.0,0.0
Y,R,"[4, 9]",1.0,4.0,0.8918051719665527,2.2756378650665283,0.3750631855714185,9.0,97.0,0.0
R,U,"[3, 9]",1.0,5.0,0.7070999145507812,2.3996951580047607,0.6911487632053014,9.0,98.0,0.0
Y,R,"[3, 10]",0.0,5.0,0.3381052017211914,2.0452539920806885,0.719650098161047,9.0,99.0,0.0
G,D,"[4, 10]",1.0,6.0,0.6526820659637451,2.107058048248291,0.46029457560900167,9.0,100.0,0.0
,,"(6, 6)",,,,,,,,
R,U,"[5, 6]",1.0,1.0,0.9908440113067627,6.071242094039917,0.6145504437861133,10.0,101.0,0.0
Y,R,"[5, 7]",1.0,2.0,0.21662592887878418,1.5709099769592285,0.3523465671767374,10.0,102.0,0.0
B,L,"[5, 6]",0.0,2.0,0.25751495361328125,1.8448188304901123,0.5967771237616619,10.0,103.0,0.0
Y,R,"[5, 7]",0.0,2.0,0.4814748764038086,2.203281879425049,0.7167142931860844,10.0,104.0,0.0
R,U,"[4, 7]",0.0,2.0,0.4089829921722412,2.142411947250366,0.7255497088912989,10.0,105.0,0.0
R,U,"[3, 7]",0.0,2.0,0.45285797119140625,2.173015832901001,0.7321595512678143,10.0,106.0,0.0
G,D,"[4, 7]",0.0,2.0,0.6292259693145752,2.0358469486236572,0.40136251934075867,10.0,107.0,0.0
Y,R,"[4, 8]",0.0,2.0,0.38083600997924805,1.866894006729126,0.4847258734953117,10.0,108.0,0.0
Y,R,"[4, 9]",1.0,3.0,0.3962879180908203,1.835381031036377,0.43673267073046323,10.0,109.0,0.0
G,D,"[5, 9]",0.0,3.0,0.2539210319519043,1.8170650005340576,0.5703692803699256,10.0,110.0,0.0
,,"(6, 6)",,,,,,,,
R,U,"[5, 6]",1.0,1.0,0.9001269340515137,5.789855003356934,0.27700946838721324,11.0,111.0,0.0
Y,R,"[5, 7]",1.0,2.0,0.46593594551086426,1.9221770763397217,0.46558155435670745,11.0,112.0,0.0
Y,R,"[5, 8]",1.0,3.0,0.3044710159301758,1.6757218837738037,0.3745739085846543,11.0,113.0,0.0
R,U,"[4, 8]",0.0,3.0,0.49980998039245605,1.9861528873443604,0.49404044778962103,11.0,114.0,0.0
G,D,"[5, 8]",0.0,3.0,0.6905381679534912,2.271423816680908,0.5984767818353653,11.0,115.0,0.0
Y,R,"[5, 9]",0.0,3.0,0.27206897735595703,1.6152949333190918,0.33072918333275775,11.0,116.0,0.0
R,U,"[4, 9]",1.0,4.0,0.522554874420166,2.2854509353637695,0.7490833149688083,11.0,117.0,0.0
Y,R,"[4, 10]",1.0,5.0,0.4461710453033447,2.0361499786376953,0.5851869412451507,11.0,118.0,0.0
G,D,"[5, 10]",1.0,6.0,0.21774792671203613,1.823430061340332,0.6087494400199138,11.0,119.0,0.0
B,L,"[5, 9]",0.0,6.0,0.2971060276031494,1.7829711437225342,0.49158902367354407,11.0,120.0,0.0
,,"(6, 6)",,,,,,,,
R,U,"[5, 6]",1.0,1.0,0.6768898963928223,9.022467136383057,0.5803395882140063,12.0,121.0,0.0
Y,R,"[5, 7]",1.0,2.0,0.2223348617553711,1.667229175567627,0.4311354050654797,12.0,122.0,0.0
G,D,"[6, 7]",0.0,2.0,0.2088160514831543,1.5219690799713135,0.30300320010619475,12.0,123.0,0.0
R,U,"[5, 7]",-2.0,2.0,1.080970048904419,2.535719156265259,0.48854317229420147,12.0,124.0,0.0
Y,R,"[5, 8]",1.0,3.0,0.3166821002960205,1.6494879722595215,0.3382401756842566,12.0,125.0,0.0
G,D,"[6, 8]",1.0,4.0,0.30220699310302734,1.7294011116027832,0.433994022759536,12.0,126.0,0.0
R,U,"[5, 8]",0.0,4.0,0.21823406219482422,1.503770112991333,0.2878639845333268,12.0,127.0,0.0
Y,R,"[5, 9]",0.0,4.0,0.8221302032470703,2.5273361206054688,0.6981870141020624,12.0,128.0,0.0
B,L,"[5, 8]",0.0,4.0,0.5159060955047607,2.042678117752075,0.5243057561900424,12.0,129.0,0.0
R,U,"[4, 8]",0.0,4.0,0.2505068778991699,1.9198799133300781,0.677282481084088,12.0,130.0,0.0
,,"(6, 6)",,,,,,,,
R,U,"[5, 6]",1.0,1.0,0.6998889446258545,7.341289043426514,0.35204735569444606,13.0,131.0,0.0
Y,R,"[5, 7]",1.0,2.0,0.2148139476776123,1.8868420124053955,0.6718239904353263,13.0,132.0,0.0
B,L,"[5, 6]",0.0,2.0,0.2554640769958496,1.7209460735321045,0.4595956552853063,13.0,133.0,0.0
R,U,"[4, 6]",0.0,2.0,0.38280200958251953,1.7896389961242676,0.4158786028006977,13.0,134.0,0.0
Y,R,"[4, 7]",0.0,2.0,0.21776700019836426,1.8234760761260986,0.605678756881693,13.0,135.0,0.0
G,D,"[5, 7]",0.0,2.0,0.37622880935668945,1.6596920490264893,0.2822915528143365,13.0,136.0,0.0
G,D,"[6, 7]",0.0,2.0,0.6174948215484619,1.9388298988342285,0.32123749651661776,13.0,137.0,0.0
G,D,"[7, 7]",0.0,2.0,0.2861180305480957,2.0206379890441895,0.7413897946985093,13.0,138.0,0.0
G,D,"[8, 7]",0.0,2.0,0.22945094108581543,1.7075068950653076,0.48254906877172365,13.0,139.0,0.0
G,D,"[9, 7]",0.0,2.0,0.39075779914855957,1.873434066772461,0.4723184316187628,13.0,140.0,0.0
,,"(6, 6)",,,,,,,,
R,U,"[5, 6]",1.0,1.0,0.8473970890045166,6.262166976928711,0.6674975888502432,14.0,141.0,0.0
Y,R,"[5, 7]",1.0,2.0,0.2103569507598877,1.721470832824707,0.5057290838115442,14.0,142.0,0.0
G,D,"[6, 7]",0.0,2.0,0.28270602226257324,2.0053799152374268,0.7274432854656837,14.0,143.0,0.0
R,U,"[5, 7]",0.0,2.0,0.20666217803955078,1.716486930847168,0.5108866747340859,14.0,144.0,0.0
Y,R,"[5, 8]",1.0,3.0,0.23695898056030273,1.8359668254852295,0.6132179155861064,14.0,145.0,0.0
R,U,"[4, 8]",0.0,3.0,0.20096611976623535,1.5217399597167969,0.31852891570646985,14.0,146.0,0.0
Y,R,"[4, 9]",1.0,4.0,0.24841713905334473,1.523043155670166,0.2749866617635146,14.0,147.0,0.0
Y,R,"[4, 10]",1.0,5.0,0.2915661334991455,1.58583402633667,0.29418163630832794,14.0,148.0,0.0
Y,R,"[4, 11]",0.0,5.0,0.267611026763916,1.8196101188659668,0.5633512903756975,14.0,149.0,0.0
R,U,"[3, 11]",-2.0,5.0,1.0099339485168457,2.2723958492279053,0.285946915511742,14.0,150.0,0.0
,,"(6, 6)",,,,,,,,
R,U,"[5, 6]",1.0,1.0,0.5815351009368896,4.9234538078308105,0.45905811884785575,15.0,151.0,0.0
Y,R,"[5, 7]",1.0,2.0,0.19063091278076172,1.8701820373535156,0.6789494890527058,15.0,152.0,0.0
Y,R,"[5, 8]",1.0,3.0,0.20815491676330566,1.9235150814056396,0.7025096409342685,15.0,153.0,0.0
Y,R,"[5, 9]",0.0,3.0,0.33989787101745605,1.948425054550171,0.6009902296180478,15.0,154.0,0.0
Y,R,"[5, 10]",1.0,4.0,0.6165099143981934,2.285900831222534,0.6700537210927369,15.0,155.0,0.0
R,U,"[4, 10]",1.0,5.0,0.32416296005249023,1.9897370338439941,0.6596980958888694,15.0,156.0,0.0
Y,R,"[4, 11]",0.0,5.0,0.206010103225708,1.7570700645446777,0.5502848108965734,15.0,157.0,0.0
R,U,"[3, 11]",0.0,5.0,0.40851807594299316,1.7147941589355469,0.31518517701684046,15.0,158.0,0.0
G,D,"[4, 11]",0.0,5.0,0.4204568862915039,1.747426986694336,0.3291490656878841,15.0,159.0,0.0
Y,R,"[3, 11]",-3.0,5.0,0.2884540557861328,1.573472023010254,0.28604770018485565,15.0,160.0,0.0
,,"(6, 6)",,,,,,,,
R,U,"[5, 6]",1.0,1.0,0.6679980754852295,4.432348966598511,0.5181627827427214,16.0,161.0,0.0
Y,R,"[5, 7]",1.0,2.0,0.18749094009399414,1.7796859741210938,0.580941496572597,16.0,162.0,0.0
Y,R,"[5, 8]",1.0,3.0,0.21638989448547363,1.8408708572387695,0.6216592257887463,16.0,163.0,0.0
B,L,"[5, 7]",0.0,3.0,0.20974302291870117,1.8983938694000244,0.6865488582949933,16.0,164.0,0.0
G,D,"[6, 7]",0.0,3.0,0.40876221656799316,1.8245089054107666,0.4114052597873066,16.0,165.0,0.0
Y,R,"[6, 8]",1.0,4.0,0.2010340690612793,1.5634088516235352,0.37473313531597385,16.0,166.0,0.0
Y,R,"[6, 9]",1.0,5.0,0.19132590293884277,1.599632978439331,0.4076273799968695,16.0,167.0,0.0
Y,R,"[6, 10]",1.0,6.0,0.26828908920288086,1.8161351680755615,0.5567877766237435,16.0,168.0,0.0
Y,R,"[6, 11]",0.0,6.0,0.2526271343231201,1.839954137802124,0.5967762754375483,16.0,169.0,0.0
B,L,"[6, 10]",0.0,6.0,0.3866310119628906,2.1000289916992188,0.713236027997697,16.0,170.0,0.0
,,"(6, 6)",,,,,,,,
R,U,"[5, 6]",1.0,1.0,0.7098238468170166,4.079322099685669,0.5758807445679688,17.0,171.0,0.0
Y,R,"[5, 7]",1.0,2.0,0.21621203422546387,1.5536811351776123,0.34646128850822644,17.0,172.0,0.0
Y,R,"[5, 8]",1.0,3.0,0.3152749538421631,1.7802741527557373,0.4600344188128615,17.0,173.0,0.0
Y,R,"[5, 9]",0.0,3.0,0.1907789707183838,1.7120211124420166,0.5220558897054417,17.0,174.0,0.0
Y,R,"[5, 10]",1.0,4.0,0.9910769462585449,2.6401290893554688,0.645292747739292,17.0,175.0,0.0
Y,R,"[5, 11]",0.0,4.0,0.4782741069793701,1.9931511878967285,0.5216359642577322,17.0,176.0,0.0
Y,R,"[5, 10]",-3.0,4.0,0.21806597709655762,1.6565310955047607,0.4447879760574295,17.0,177.0,0.0
B,L,"[5, 9]",0.0,4.0,0.4925060272216797,1.8382959365844727,0.34989302865306565,17.0,178.0,0.0
Y,R,"[5, 10]",0.0,4.0,0.3075540065765381,1.6359848976135254,0.319200248684202,17.0,179.0,0.0
B,L,"[5, 9]",0.0,4.0,0.6832931041717529,1.9927771091461182,0.3119526126641768,17.0,180.0,0.0
,,"(6, 6)",,,,,,,,
R,U,"[5, 6]",1.0,1.0,0.9715249538421631,4.37082314491272,0.49911818763119076,18.0,181.0,0.0
R,U,"[4, 6]",-1.0,1.0,0.07495284080505371,5.483644962310791,0.3326943576562773,18.0,182.0,0.0
Y,R,"[4, 7]",0.0,1.0,0.3921229839324951,1.8249218463897705,0.4241963167167941,18.0,183.0,0.0
Y,R,"[4, 8]",0.0,1.0,0.9524831771850586,2.5674397945404053,0.6246630767674295,18.0,184.0,0.0
R,U,"[3, 8]",0.0,1.0,0.2577090263366699,1.6492371559143066,0.39076681751344006,18.0,185.0,0.0
R,U,"[2, 8]",0.0,1.0,0.2567410469055176,1.5205340385437012,0.2612825217346156,18.0,186.0,0.0
Y,R,"[2, 9]",0.0,1.0,0.4200119972229004,1.7789671421051025,0.3735012697138644,18.0,187.0,0.0
R,U,"[1, 9]",0.0,1.0,0.21866416931152344,1.9405910968780518,0.7304333039870001,18.0,188.0,0.0
Y,R,"[1, 10]",0.0,1.0,0.2675590515136719,1.85294508934021,0.5833827455156344,18.0,189.0,0.0
Y,R,"[1, 11]",0.0,1.0,0.2077338695526123,1.6780920028686523,0.46161034998684164,18.0,190.0,0.0
,,"(6, 6)",,,,,,,,
R,U,"[5, 6]",-2.0,0.0,1.4397320747375488,4.6250998973846436,0.6030529442811021,19.0,191.0,0.0
B,L,"[5, 5]",0.0,0.0,0.8836119174957275,2.201011896133423,0.32087113773288817,19.0,192.0,0.0
G,D,"[6, 5]",0.0,0.0,0.2896280288696289,1.574573040008545,0.27891876714173114,19.0,193.0,0.0
R,U,"[5, 5]",0.0,0.0,0.266552209854126,1.6180059909820557,0.36328646101861073,19.0,194.0,0.0
R,U,"[4, 5]",0.0,0.0,0.23609185218811035,1.8909239768981934,0.6539190968297253,19.0,195.0,0.0
Y,R,"[4, 6]",0.0,0.0,0.33636999130249023,1.9553558826446533,0.6259074650032208,19.0,196.0,0.0
Y,R,"[4, 7]",0.0,0.0,0.3933219909667969,2.0849199295043945,0.6941267029532179,19.0,197.0,0.0
R,U,"[3, 7]",-2.0,0.0,1.0009539127349854,2.305968999862671,0.3502452357072513,19.0,198.0,0.0
R,U,"[2, 7]",0.0,0.0,0.27617692947387695,1.9230549335479736,0.6397842523226525,19.0,199.0,0.0
R,U,"[1, 7]",-1.0,0.0,0.08899593353271484,5.527695894241333,0.3841557346052929,19.0,200.0,0.0
,,"(6, 6)",,,,,,,,
G,D,"[7, 6]",0.0,0.0,0.6805200576782227,5.963456869125366,0.5140358071861597,20.0,201.0,0.0
G,D,"[8, 6]",0.0,0.0,0.454509973526001,2.037972927093506,0.5685311568186409,20.0,202.0,0.0
B,L,"[8, 5]",0.0,0.0,0.23512601852416992,1.6432299613952637,0.41177653681358517,20.0,203.0,0.0
B,L,"[8, 4]",0.0,0.0,0.21840190887451172,1.7652390003204346,0.5601899513218508,20.0,204.0,0.0
Y,R,"[8, 5]",0.0,0.0,0.21911978721618652,1.921396017074585,0.7147647087328803,20.0,205.0,0.0
Y,R,"[8, 6]",0.0,0.0,0.19266700744628906,1.7198188304901123,0.518090516742424,20.0,206.0,0.0
R,U,"[7, 6]",0.0,0.0,0.30508899688720703,1.996842861175537,0.6979164933081867,20.0,207.0,0.0
R,U,"[6, 6]",0.0,0.0,0.2034459114074707,1.5129780769348145,0.3113238160197495,20.0,208.0,0.0
R,U,"[5, 6]",-2.0,0.0,1.0248229503631592,2.26495099067688,0.2595989508355111,20.0,209.0,0.0
G,D,"[6, 6]",0.0,0.0,0.8887240886688232,2.4697911739349365,0.595703685558977,20.0,210.0,0.0
,,"(6, 6)",,,,,,,,
B,L,"[6, 5]",0.0,0.0,0.35743093490600586,4.90065598487854,0.6127496935848142,21.0,211.0,0.0
G,D,"[7, 5]",0.0,0.0,0.23902511596679688,1.9094200134277344,0.6721617982688275,21.0,212.0,0.0
G,D,"[8, 5]",0.0,0.0,0.2259840965270996,1.8724169731140137,0.644559160542546,21.0,213.0,0.0
G,D,"[9, 5]",0.0,0.0,0.1872549057006836,1.8501050472259521,0.6778673938656162,21.0,214.0,0.0
G,D,"[10, 5]",0.0,0.0,0.2202908992767334,1.4616470336914062,0.25650921175682034,21.0,215.0,0.0
G,D,"[11, 5]",0.0,0.0,0.28775501251220703,1.8489701747894287,0.571759102005767,21.0,216.0,0.0
G,D,"[10, 5]",-3.0,0.0,0.19857192039489746,1.687824010848999,0.4930310174369203,21.0,217.0,0.0
G,D,"[11, 5]",0.0,0.0,0.4902498722076416,2.1384928226470947,0.6479895944861793,21.0,218.0,0.0
G,D,"[10, 5]",-3.0,0.0,0.2382211685180664,1.9557490348815918,0.7202966841868018,21.0,219.0,0.0
G,D,"[11, 5]",0.0,0.0,0.22720003128051758,1.495239019393921,0.2659009310924749,21.0,220.0,0.0
,,"(6, 6)",,,,,,,,
Y,R,"[6, 7]",-2.0,0.0,1.5254578590393066,4.8263750076293945,0.5252270265882348,22.0,221.0,0.0
Y,R,"[6, 8]",1.0,1.0,0.2125871181488037,1.5131158828735352,0.3050958093721169,22.0,222.0,0.0
Y,R,"[6, 9]",1.0,2.0,0.20881986618041992,1.8485989570617676,0.63682915492704,22.0,223.0,0.0
Y,R,"[6, 10]",1.0,3.0,0.20529603958129883,1.8189888000488281,0.6223755991774718,22.0,224.0,0.0
Y,R,"[6, 11]",0.0,3.0,0.2321321964263916,1.5977489948272705,0.37035985510268526,22.0,225.0,0.0
Y,R,"[6, 10]",-3.0,3.0,0.3521759510040283,1.6627051830291748,0.3163269195752044,22.0,226.0,0.0
Y,R,"[6, 11]",0.0,3.0,0.33171582221984863,1.787255048751831,0.4535076280421152,22.0,227.0,0.0
R,U,"[5, 11]",0.0,3.0,0.2731170654296875,1.959216833114624,0.6790108047996667,22.0,228.0,0.0
R,U,"[4, 11]",0.0,3.0,0.2963850498199463,1.8901629447937012,0.5859020089469609,22.0,229.0,0.0
G,D,"[5, 11]",0.0,3.0,0.6610829830169678,2.092519998550415,0.4284434574350033,22.0,230.0,0.0
,,"(6, 6)",,,,,,,,
Y,R,"[6, 7]",0.0,0.0,0.43735504150390625,3.4378700256347656,0.69931744280579,23.0,231.0,0.0
Y,R,"[6, 8]",1.0,1.0,0.20275497436523438,1.6984131336212158,0.4982158491698054,23.0,232.0,0.0
Y,R,"[6, 9]",1.0,2.0,0.2307429313659668,1.7566709518432617,0.521223581278925,23.0,233.0,0.0
Y,R,"[6, 10]",1.0,3.0,0.32355284690856934,1.7902030944824219,0.4613514259697137,23.0,234.0,0.0
G,D,"[7, 10]",0.0,3.0,0.3634631633758545,1.843088150024414,0.48774133898038835,23.0,235.0,0.0
Y,R,"[7, 11]",0.0,3.0,0.7405741214752197,2.0875320434570312,0.34197886775048864,23.0,236.0,0.0
R,U,"[6, 11]",0.0,3.0,0.23999595642089844,1.7863490581512451,0.5448469569014276,23.0,237.0,0.0
R,U,"[5, 11]",0.0,3.0,0.22566819190979004,1.7713780403137207,0.5494672816750746,23.0,238.0,0.0
R,U,"[4, 11]",0.0,3.0,0.21430301666259766,1.8031458854675293,0.5857826977942113,23.0,239.0,0.0
R,U,"[3, 11]",0.0,3.0,0.21630501747131348,1.5983479022979736,0.38439049353692595,23.0,240.0,0.0
,,"(6, 6)",,,,,,,,
R,U,"[5, 6]",1.0,1.0,0.6156749725341797,3.978484869003296,0.6458039183311841,24.0,241.0,0.0
Y,R,"[5, 7]",1.0,2.0,0.19334101676940918,1.7265219688415527,0.5224408126165876,24.0,242.0,0.0
Y,R,"[5, 8]",1.0,3.0,0.21233510971069336,1.5677378177642822,0.3569831019694244,24.0,243.0,0.0
Y,R,"[5, 9]",0.0,3.0,0.4235210418701172,1.877044916152954,0.45050643110955624,24.0,244.0,0.0
Y,R,"[5, 10]",1.0,4.0,0.31717491149902344,1.8215601444244385,0.5052172509098797,24.0,245.0,0.0
Y,R,"[5, 11]",0.0,4.0,0.7006151676177979,2.004348039627075,0.30979185042082397,24.0,246.0,0.0
R,U,"[4, 11]",0.0,4.0,0.8255729675292969,2.562001943588257,0.7380080883987754,24.0,247.0,0.0
Y,R,"[5, 11]",-3.0,4.0,0.27884507179260254,1.9704301357269287,0.6917102498259786,24.0,248.0,0.0
B,L,"[5, 10]",0.0,4.0,0.8005239963531494,2.1680901050567627,0.37659805771958527,24.0,249.0,0.0
Y,R,"[5, 11]",0.0,4.0,0.2304520606994629,1.577023983001709,0.3537117744115889,24.0,250.0,0.0
,,"(6, 6)",,,,,,,,
R,U,"[5, 6]",1.0,1.0,0.6649549007415771,3.7660679817199707,0.3529190075971622,25.0,251.0,0.0
Y,R,"[5, 7]",1.0,2.0,0.26442384719848633,1.9122657775878906,0.6483422474993878,25.0,252.0,0.0
Y,R,"[5, 8]",1.0,3.0,0.2138218879699707,1.6306228637695312,0.4124277767255538,25.0,253.0,0.0
Y,R,"[5, 9]",0.0,3.0,0.2594151496887207,1.6590139865875244,0.3880205462563554,25.0,254.0,0.0
G,D,"[6, 9]",1.0,4.0,0.45038294792175293,1.858168125152588,0.41281379888611064,25.0,255.0,0.0
Y,R,"[6, 10]",1.0,5.0,0.6857359409332275,2.209559917449951,0.5221999646826824,25.0,256.0,0.0
Y,R,"[6, 11]",0.0,5.0,0.3957479000091553,1.8356099128723145,0.4411449118389503,25.0,257.0,0.0
B,L,"[6, 10]",0.0,5.0,0.9183950424194336,2.577025890350342,0.6679112229906028,25.0,258.0,0.0
Y,R,"[6, 11]",0.0,5.0,0.17802715301513672,1.7732629776000977,0.5915759507733676,25.0,259.0,0.0
R,U,"[5, 11]",0.0,5.0,0.6653409004211426,2.008423089981079,0.34982117076661967,25.0,260.0,0.0
,,"(6, 6)",,,,,,,,
R,U,"[5, 6]",1.0,1.0,0.5813841819763184,3.5974271297454834,0.31388704451839033,26.0,261.0,0.0
Y,R,"[5, 7]",1.0,2.0,0.2234961986541748,1.9633419513702393,0.7267612942787165,26.0,262.0,0.0
Y,R,"[5, 8]",1.0,3.0,0.19660496711730957,1.8686590194702148,0.6786286963329243,26.0,263.0,0.0
B,L,"[5, 7]",0.0,3.0,0.23029398918151855,1.9211740493774414,0.6831938667777193,26.0,264.0,0.0
G,D,"[6, 7]",0.0,3.0,0.19254589080810547,1.6891429424285889,0.4892225980947695,26.0,265.0,0.0
Y,R,"[6, 8]",1.0,4.0,0.20018601417541504,1.5759241580963135,0.3818126601117773,26.0,266.0,0.0
Y,R,"[6, 9]",1.0,5.0,0.5279009342193604,2.1203360557556152,0.5852580856547246,26.0,267.0,0.0
Y,R,"[6, 10]",1.0,6.0,0.244232177734375,1.7883219718933105,0.5402928353381188,26.0,268.0,0.0
Y,R,"[6, 11]",0.0,6.0,0.3639061450958252,1.927367925643921,0.5674208790870732,26.0,269.0,0.0
B,L,"[6, 10]",0.0,6.0,0.7405221462249756,2.4389829635620117,0.6896465827164415,26.0,270.0,0.0
,,"(6, 6)",,,,,,,,
R,U,"[5, 6]",1.0,1.0,0.830207109451294,5.604591131210327,0.6440304897975857,27.0,271.0,0.0
Y,R,"[5, 7]",1.0,2.0,0.27318501472473145,1.8095471858978271,0.5369893094348379,27.0,272.0,0.0
Y,R,"[5, 8]",1.0,3.0,0.20952510833740234,1.9159610271453857,0.7026878071470211,27.0,273.0,0.0
R,U,"[4, 8]",0.0,3.0,0.4828372001647949,2.02461314201355,0.5440716012288893,27.0,274.0,0.0
Y,R,"[4, 9]",1.0,4.0,0.21038818359375,1.5882301330566406,0.3824769075070784,27.0,275.0,0.0
Y,R,"[4, 10]",1.0,5.0,0.23609709739685059,1.5659260749816895,0.3317726215588416,27.0,276.0,0.0
Y,R,"[4, 11]",0.0,5.0,0.25739312171936035,1.9336941242218018,0.6650901244087434,27.0,277.0,0.0
R,U,"[3, 11]",0.0,5.0,0.27103400230407715,1.9458770751953125,0.6775606631725706,27.0,278.0,0.0
Y,R,"[4, 11]",-3.0,5.0,0.20171880722045898,1.862588882446289,0.6734533490630912,27.0,279.0,0.0
Y,R,"[3, 11]",-3.0,5.0,0.5121190547943115,1.7778170108795166,0.2682799882202816,27.0,280.0,0.0
,,"(6, 6)",,,,,,,,
R,U,"[5, 6]",1.0,1.0,0.6453688144683838,3.4821059703826904,0.6000200902278143,28.0,281.0,0.0
Y,R,"[5, 7]",1.0,2.0,0.2095320224761963,1.9459869861602783,0.7290659332073324,28.0,282.0,0.0
Y,R,"[5, 8]",1.0,3.0,0.32233691215515137,1.6981141567230225,0.3608133628261552,28.0,283.0,0.0
B,L,"[5, 7]",0.0,3.0,0.42395806312561035,2.0198981761932373,0.5971448270211732,28.0,284.0,0.0
Y,R,"[5, 8]",0.0,3.0,0.21459484100341797,1.6416819095611572,0.4222743105427427,28.0,285.0,0.0
Y,R,"[5, 9]",0.0,3.0,0.21033501625061035,1.4893829822540283,0.27842743160029815,28.0,286.0,0.0
R,U,"[4, 9]",1.0,4.0,0.3139498233795166,1.9061241149902344,0.6008886880373239,28.0,287.0,0.0
Y,R,"[4, 10]",1.0,5.0,0.21135997772216797,1.8640861511230469,0.6480967846069008,28.0,288.0,0.0
Y,R,"[4, 11]",0.0,5.0,0.20670008659362793,1.882214069366455,0.6636874216292739,28.0,289.0,0.0
R,U,"[3, 11]",0.0,5.0,0.3973851203918457,2.0094261169433594,0.6064539836219491,28.0,290.0,0.0
,,"(6, 6)",,,,,,,,
R,U,"[5, 6]",1.0,1.0,0.5429608821868896,3.3315560817718506,0.2880934257161607,29.0,291.0,0.0
Y,R,"[5, 7]",1.0,2.0,0.2345120906829834,1.7352728843688965,0.5064596642918011,29.0,292.0,0.0
Y,R,"[5, 8]",1.0,3.0,0.278515100479126,1.5450439453125,0.26846454302392037,29.0,293.0,0.0
B,L,"[5, 7]",0.0,3.0,0.21760988235473633,1.7228820323944092,0.5077072356422299,29.0,294.0,0.0
Y,R,"[5, 8]",0.0,3.0,0.1478438377380371,1.4986460208892822,0.3566166717390382,29.0,295.0,0.0
Y,R,"[5, 9]",0.0,3.0,0.19495916366577148,1.6415901184082031,0.4481455894552175,29.0,296.0,0.0
R,U,"[4, 9]",1.0,4.0,0.2568390369415283,1.8225879669189453,0.5539281129662402,29.0,297.0,0.0
Y,R,"[4, 10]",1.0,5.0,0.1942589282989502,1.7865238189697266,0.5900583172838296,29.0,298.0,0.0
Y,R,"[4, 11]",0.0,5.0,0.1607828140258789,1.8334100246429443,0.6734055920962091,29.0,299.0,0.0
G,D,"[5, 11]",0.0,5.0,0.25345802307128906,1.6186110973358154,0.3755059610381552,29.0,300.0,0.0
,,"(6, 6)",,,,,,,,
R,U,"[5, 6]",1.0,1.0,0.69504714012146,3.614570140838623,0.3400391057910813,30.0,301.0,0.0
Y,R,"[5, 7]",1.0,2.0,0.21805214881896973,1.8666000366210938,0.6567512751712837,30.0,302.0,0.0
Y,R,"[5, 8]",1.0,3.0,0.7038681507110596,2.1946158409118652,0.5009874558675527,30.0,303.0,0.0
R,U,"[4, 8]",0.0,3.0,0.2634110450744629,1.868515968322754,0.6027778131549167,30.0,304.0,0.0
Y,R,"[4, 9]",1.0,4.0,0.19475913047790527,1.5471768379211426,0.3502235467291474,30.0,305.0,0.0
Y,R,"[4, 10]",1.0,5.0,0.20072078704833984,1.8590219020843506,0.658736873879265,30.0,306.0,0.0
Y,R,"[4, 11]",0.0,5.0,0.37268805503845215,2.0125508308410645,0.6380439232076587,30.0,307.0,0.0
R,U,"[3, 11]",0.0,5.0,0.2819559574127197,1.9641358852386475,0.6853105236255908,30.0,308.0,0.0
Y,R,"[4, 11]",-3.0,5.0,0.21658992767333984,1.5069890022277832,0.2926911452705316,30.0,309.0,0.0
B,L,"[4, 10]",0.0,5.0,0.584326982498169,2.059798002243042,0.48562573790951274,30.0,310.0,0.0
,,"(6, 6)",,,,,,,,
R,U,"[5, 6]",1.0,1.0,0.6176009178161621,3.5737178325653076,0.6256420297839733,31.0,311.0,0.0
Y,R,"[5, 7]",1.0,2.0,0.17510294914245605,1.5219509601593018,0.34798314047635587,31.0,312.0,0.0
Y,R,"[5, 8]",1.0,3.0,0.23660993576049805,1.5242578983306885,0.28885699321687464,31.0,313.0,0.0
G,D,"[6, 8]",1.0,4.0,0.8459460735321045,2.5795228481292725,0.7349115895806453,31.0,314.0,0.0
Y,R,"[6, 9]",1.0,5.0,0.22960782051086426,1.803318977355957,0.571345152007807,31.0,315.0,0.0
B,L,"[6, 8]",0.0,5.0,0.21215295791625977,1.6488471031188965,0.43696228234271206,31.0,316.0,0.0
Y,R,"[6, 9]",0.0,5.0,0.17962121963500977,1.466698169708252,0.28715349847151567,31.0,317.0,0.0
Y,R,"[6, 10]",1.0,6.0,0.24186921119689941,1.971062183380127,0.7243769550979198,31.0,318.0,0.0
Y,R,"[6, 11]",0.0,6.0,0.3151969909667969,1.8534510135650635,0.5445528896092469,31.0,319.0,0.0
Y,R,"[6, 10]",-3.0,6.0,0.630202054977417,1.9037609100341797,0.28188206503545604,31.0,320.0,0.0
,,"(6, 6)",,,,,,,,
R,U,"[5, 6]",1.0,1.0,0.6135249137878418,3.2402379512786865,0.43841162238474474,32.0,321.0,0.0
Y,R,"[5, 7]",1.0,2.0,0.25678396224975586,1.924333095550537,0.6630496685621552,32.0,322.0,0.0
Y,R,"[5, 8]",1.0,3.0,0.28582310676574707,2.0293350219726562,0.7417586331268725,32.0,323.0,0.0
G,D,"[6, 8]",1.0,4.0,0.21535801887512207,1.5107481479644775,0.30293357106471197,32.0,324.0,0.0
Y,R,"[6, 9]",1.0,5.0,0.23940610885620117,1.8763420581817627,0.6292998091026123,32.0,325.0,0.0
B,L,"[6, 8]",0.0,5.0,0.4130978584289551,1.943498134613037,0.5227271830193787,32.0,326.0,0.0
Y,R,"[6, 9]",0.0,5.0,0.17394304275512695,1.6638331413269043,0.48628720893395166,32.0,327.0,0.0
Y,R,"[6, 10]",1.0,6.0,0.2201251983642578,1.916208028793335,0.7025767342549976,32.0,328.0,0.0
Y,R,"[6, 11]",0.0,6.0,0.3109550476074219,1.774744987487793,0.4602821350280452,32.0,329.0,0.0
R,U,"[5, 11]",0.0,6.0,0.3019449710845947,1.973026990890503,0.6833074707935133,32.0,330.0,0.0
,,"(6, 6)",,,,,,,,
R,U,"[5, 6]",1.0,1.0,0.6162109375,3.763170003890991,0.496422503110365,33.0,331.0,0.0
Y,R,"[5, 7]",1.0,2.0,0.2047281265258789,1.8301639556884766,0.6267497168924674,33.0,332.0,0.0
Y,R,"[5, 8]",1.0,3.0,0.18803000450134277,1.7460920810699463,0.555851705138396,33.0,333.0,0.0
B,L,"[5, 7]",0.0,3.0,0.23201489448547363,1.9140081405639648,0.6862972798581586,33.0,334.0,0.0
Y,R,"[5, 8]",0.0,3.0,0.19462203979492188,1.50600004196167,0.30937578637328256,33.0,335.0,0.0
Y,R,"[5, 9]",0.0,3.0,0.2282848358154297,1.9127860069274902,0.6885997894138038,33.0,336.0,0.0
R,U,"[4, 9]",1.0,4.0,0.21965312957763672,1.5569109916687012,0.34566282046321606,33.0,337.0,0.0
Y,R,"[4, 10]",1.0,5.0,0.1989281177520752,1.9390838146209717,0.7343889217264699,33.0,338.0,0.0
Y,R,"[4, 11]",0.0,5.0,0.19895386695861816,1.6578810214996338,0.45911787544641763,33.0,339.0,0.0
G,D,"[5, 11]",0.0,5.0,0.6316280364990234,2.0341711044311523,0.4099272162884802,33.0,340.0,0.0
,,"(6, 6)",,,,,,,,
R,U,"[5, 6]",1.0,1.0,0.601672887802124,3.3192059993743896,0.4623551365112362,34.0,341.0,0.0
Y,R,"[5, 7]",1.0,2.0,0.24587607383728027,1.953437089920044,0.6988530152270194,34.0,342.0,0.0
Y,R,"[5, 8]",1.0,3.0,0.20483708381652832,1.5095930099487305,0.29213972151859435,34.0,343.0,0.0
G,D,"[6, 8]",1.0,4.0,0.2521169185638428,1.9453470706939697,0.7037004603802928,34.0,344.0,0.0
Y,R,"[6, 9]",1.0,5.0,0.18602609634399414,1.8654570579528809,0.6857876916247194,34.0,345.0,0.0
R,U,"[5, 9]",0.0,5.0,0.2691969871520996,1.7764530181884766,0.5123270096428425,34.0,346.0,0.0
Y,R,"[5, 10]",1.0,6.0,0.20896005630493164,1.6584558486938477,0.43753504959758066,34.0,347.0,0.0
R,U,"[4, 10]",1.0,7.0,0.453808069229126,2.0064969062805176,0.5604493244791057,34.0,348.0,0.0
Y,R,"[4, 11]",0.0,7.0,0.20882797241210938,1.503783941268921,0.29772582398293074,34.0,349.0,0.0
R,U,"[3, 11]",0.0,7.0,0.44013094902038574,1.9013099670410156,0.4490056638367296,34.0,350.0,0.0
,,"(6, 6)",,,,,,,,
R,U,"[5, 6]",1.0,1.0,0.5972609519958496,3.739211082458496,0.4880757526317453,35.0,351.0,0.0
Y,R,"[5, 7]",1.0,2.0,0.21735286712646484,1.619931936264038,0.40788831164421246,35.0,352.0,0.0
Y,R,"[5, 8]",1.0,3.0,0.2070300579071045,1.6852130889892578,0.47657016937702495,35.0,353.0,0.0
G,D,"[6, 8]",1.0,4.0,0.18674683570861816,1.6633810997009277,0.4896617783878491,35.0,354.0,0.0
Y,R,"[6, 9]",1.0,5.0,0.20604395866394043,1.5883691310882568,0.3781323445434684,35.0,355.0,0.0
R,U,"[5, 9]",0.0,5.0,0.21292781829833984,1.9216339588165283,0.7164890706386031,35.0,356.0,0.0
Y,R,"[5, 10]",1.0,6.0,0.21434497833251953,1.5475549697875977,0.33061800964271815,35.0,357.0,0.0
Y,R,"[5, 11]",0.0,6.0,0.22440218925476074,1.9424471855163574,0.7063728612600119,35.0,358.0,0.0
R,U,"[4, 11]",0.0,6.0,0.23699402809143066,1.8381741046905518,0.6108651791188882,35.0,359.0,0.0
Y,R,"[5, 11]",-3.0,6.0,0.22466087341308594,1.9303510189056396,0.7078233675208985,35.0,360.0,0.0
,,"(6, 6)",,,,,,,,
R,U,"[5, 6]",1.0,1.0,0.7468059062957764,4.075938940048218,0.4671938907479154,36.0,361.0,0.0
Y,R,"[5, 7]",1.0,2.0,0.23194193840026855,1.9521241188049316,0.7193985310208423,36.0,362.0,0.0
Y,R,"[5, 8]",1.0,3.0,0.20991992950439453,1.927088975906372,0.7126840085748791,36.0,363.0,0.0
G,D,"[6, 8]",1.0,4.0,0.2186110019683838,1.80433988571167,0.5838623688155644,36.0,364.0,0.0
Y,R,"[6, 9]",1.0,5.0,0.24061203002929688,1.741407871246338,0.49183168483150297,36.0,365.0,0.0
R,U,"[5, 9]",0.0,5.0,0.31728219985961914,2.056654930114746,0.7481420743201589,36.0,366.0,0.0
Y,R,"[5, 10]",1.0,6.0,0.22961902618408203,1.9677200317382812,0.7325521025756019,36.0,367.0,0.0
Y,R,"[5, 11]",0.0,6.0,0.3158688545227051,1.685438871383667,0.368375426986642,36.0,368.0,0.0
B,L,"[5, 10]",0.0,6.0,0.2625699043273926,1.6755640506744385,0.4104863787133512,36.0,369.0,0.0
Y,R,"[5, 11]",0.0,6.0,0.20289206504821777,1.6712770462036133,0.4816001800336847,36.0,370.0,0.0
,,"(6, 6)",,,,,,,,
R,U,"[5, 6]",1.0,1.0,0.6967930793762207,3.5312368869781494,0.6958958175563174,37.0,371.0,0.0
Y,R,"[5, 7]",1.0,2.0,0.21116900444030762,1.5916099548339844,0.3711973454867882,37.0,372.0,0.0
Y,R,"[5, 8]",1.0,3.0,0.21197009086608887,1.8748610019683838,0.6623248874895787,37.0,373.0,0.0
G,D,"[6, 8]",1.0,4.0,0.20149707794189453,1.8882319927215576,0.6838836418839078,37.0,374.0,0.0
Y,R,"[6, 9]",1.0,5.0,0.21622085571289062,1.597508192062378,0.3816227010935468,37.0,375.0,0.0
G,D,"[7, 9]",0.0,5.0,0.25310707092285156,1.6405858993530273,0.38874168809977616,37.0,376.0,0.0
Y,R,"[7, 10]",0.0,5.0,0.20082378387451172,1.8298978805541992,0.6351450933991072,37.0,377.0,0.0
R,U,"[6, 10]",1.0,6.0,0.1904308795928955,1.921083927154541,0.7227288290000747,37.0,378.0,0.0
Y,R,"[6, 11]",0.0,6.0,0.21072888374328613,1.7007768154144287,0.4902381881012511,37.0,379.0,0.0
R,U,"[5, 11]",0.0,6.0,0.23877596855163574,1.9555480480194092,0.7123108302161434,37.0,380.0,0.0
,,"(6, 6)",,,,,,,,
R,U,"[5, 6]",1.0,1.0,0.5530259609222412,3.211902141571045,0.5242770513740393,38.0,381.0,0.0
Y,R,"[5, 7]",1.0,2.0,0.2370138168334961,1.97074294090271,0.7447766783316235,38.0,382.0,0.0
Y,R,"[5, 8]",1.0,3.0,0.2044990062713623,1.6604979038238525,0.47228659326125494,38.0,383.0,0.0
G,D,"[6, 8]",1.0,4.0,0.2646310329437256,1.9383578300476074,0.6768735675424563,38.0,384.0,0.0
Y,R,"[6, 9]",1.0,5.0,0.24632716178894043,1.5204339027404785,0.2809439599717098,38.0,385.0,0.0
R,U,"[5, 9]",0.0,5.0,0.28301095962524414,1.7145698070526123,0.4287098739238601,38.0,386.0,0.0
Y,R,"[5, 10]",1.0,6.0,0.19840598106384277,1.9256761074066162,0.7207430585135027,38.0,387.0,0.0
R,U,"[4, 10]",1.0,7.0,0.5226428508758545,2.0001630783081055,0.4711219654044629,38.0,388.0,0.0
Y,R,"[4, 11]",0.0,7.0,0.2815210819244385,1.9471709728240967,0.6680382756547405,38.0,389.0,0.0
R,U,"[3, 11]",0.0,7.0,0.3199338912963867,1.9227159023284912,0.6074062990623423,38.0,390.0,0.0
,,"(6, 6)",,,,,,,,
R,U,"[5, 6]",1.0,1.0,0.5903329849243164,3.2549691200256348,0.5123132048186168,39.0,391.0,0.0
Y,R,"[5, 7]",1.0,2.0,0.21027803421020508,1.8327620029449463,0.6117393271857978,39.0,392.0,0.0
Y,R,"[5, 8]",1.0,3.0,0.24230003356933594,1.9069349765777588,0.6686061216560288,39.0,393.0,0.0
G,D,"[6, 8]",1.0,4.0,0.275907039642334,1.9942409992218018,0.712653997847377,39.0,394.0,0.0
Y,R,"[6, 9]",1.0,5.0,0.22887396812438965,1.6755728721618652,0.4383997263439245,39.0,395.0,0.0
Y,R,"[6, 10]",1.0,6.0,0.2742171287536621,1.8742308616638184,0.5958723282809293,39.0,396.0,0.0
R,U,"[5, 10]",1.0,7.0,0.22025394439697266,1.9549200534820557,0.7344146977923605,39.0,397.0,0.0
Y,R,"[5, 11]",0.0,7.0,0.18383002281188965,1.5011851787567139,0.3188093834731262,39.0,398.0,0.0
Y,R,"[5, 10]",-3.0,7.0,0.21983098983764648,1.867210865020752,0.6525068920254753,39.0,399.0,0.0
Y,R,"[5, 11]",0.0,7.0,0.7273330688476562,2.2194790840148926,0.48860413580810474,39.0,400.0,0.0
,,"(6, 6)",,,,,,,,
R,U,"[5, 6]",1.0,1.0,0.6296470165252686,3.1200170516967773,0.44174843350986776,40.0,401.0,0.0
Y,R,"[5, 7]",1.0,2.0,0.26698994636535645,1.5890469551086426,0.33090713573762176,40.0,402.0,0.0
Y,R,"[5, 8]",1.0,3.0,0.2017669677734375,1.5545790195465088,0.35209102027099826,40.0,403.0,0.0
G,D,"[6, 8]",1.0,4.0,0.23776793479919434,1.5893340110778809,0.35816905719224723,40.0,404.0,0.0
Y,R,"[6, 9]",1.0,5.0,0.21164703369140625,1.5199720859527588,0.31138351144950727,40.0,405.0,0.0
Y,R,"[6, 10]",1.0,6.0,0.20470499992370605,1.62437105178833,0.43586513988757647,40.0,406.0,0.0
B,L,"[6, 9]",0.0,6.0,0.23244094848632812,1.6960439682006836,0.4649698079251624,40.0,407.0,0.0
Y,R,"[6, 10]",0.0,6.0,0.20135283470153809,1.6028289794921875,0.4011087454937572,40.0,408.0,0.0
Y,R,"[6, 11]",-1.0,6.0,0.06427979469299316,5.489553213119507,0.3406171885728469,40.0,409.0,0.0
Y,R,"[6, 10]",-3.0,6.0,0.370028018951416,2.0283539295196533,0.6686124944281606,40.0,410.0,0.0
,,"(6, 6)",,,,,,,,
R,U,"[5, 6]",1.0,1.0,0.5543251037597656,3.3133959770202637,0.5986623500217279,41.0,411.0,0.0
Y,R,"[5, 7]",1.0,2.0,0.2089710235595703,1.9494907855987549,0.7312918988739758,41.0,412.0,0.0
Y,R,"[5, 8]",-1.0,2.0,0.05153083801269531,5.7423529624938965,0.6235079062450073,41.0,413.0,0.0
Y,R,"[5, 9]",0.0,2.0,0.4315309524536133,1.6823949813842773,0.2562847577203633,41.0,414.0,0.0
G,D,"[6, 9]",1.0,3.0,0.5402319431304932,2.1480069160461426,0.6039244909268755,41.0,415.0,0.0
Y,R,"[6, 10]",1.0,4.0,0.25319695472717285,1.6325960159301758,0.38660369299766045,41.0,416.0,0.0
Y,R,"[6, 11]",0.0,4.0,0.38484692573547363,1.8125081062316895,0.432489777442961,41.0,417.0,0.0
R,U,"[5, 11]",0.0,4.0,0.3292429447174072,1.6597919464111328,0.3256487683921582,41.0,418.0,0.0
Y,R,"[6, 11]",-3.0,4.0,0.22412109375,1.709177017211914,0.4846505509291159,41.0,419.0,0.0
Y,R,"[5, 11]",-3.0,4.0,0.22853493690490723,1.558699131011963,0.3267657351372744,41.0,420.0,0.0
,,"(6, 6)",,,,,,,,
R,U,"[5, 6]",1.0,1.0,0.5837430953979492,3.2681620121002197,0.3281743018035651,42.0,421.0,0.0
Y,R,"[5, 7]",1.0,2.0,0.3808920383453369,1.7447121143341064,0.37274776133123066,42.0,422.0,0.0
G,D,"[6, 7]",0.0,2.0,0.35623812675476074,1.880964994430542,0.5202127659067097,42.0,423.0,0.0
Y,R,"[6, 8]",1.0,3.0,0.22444581985473633,1.537750005722046,0.30807511483723277,42.0,424.0,0.0
B,L,"[6, 7]",0.0,3.0,0.3232722282409668,1.8512661457061768,0.5258009032235602,42.0,425.0,0.0
Y,R,"[6, 8]",0.0,3.0,0.22810006141662598,1.5218911170959473,0.2978119684158782,42.0,426.0,0.0
R,U,"[5, 8]",1.0,4.0,0.3067469596862793,1.6322588920593262,0.31332063351967704,42.0,427.0,0.0
Y,R,"[5, 9]",0.0,4.0,0.38040709495544434,1.8560891151428223,0.4693592857710966,42.0,428.0,0.0
G,D,"[6, 9]",1.0,5.0,0.3125011920928955,1.9849331378936768,0.6706814841701314,42.0,429.0,0.0
Y,R,"[6, 10]",1.0,6.0,0.22206401824951172,1.5003440380096436,0.2879561360970349,42.0,430.0,0.0
,,"(6, 6)",,,,,,,,
R,U,"[5, 6]",1.0,1.0,0.6370389461517334,4.2281458377838135,0.34937355244211943,43.0,431.0,0.0
Y,R,"[5, 7]",1.0,2.0,0.3106801509857178,1.9310100078582764,0.6133202750907503,43.0,432.0,0.0
G,D,"[6, 7]",0.0,2.0,0.3297600746154785,1.6775319576263428,0.34112683113654496,43.0,433.0,0.0
Y,R,"[6, 8]",1.0,3.0,0.22974419593811035,1.6139531135559082,0.38838121962721184,43.0,434.0,0.0
R,U,"[5, 8]",1.0,4.0,0.2929999828338623,1.8224890232086182,0.5273461564782016,43.0,435.0,0.0
Y,R,"[5, 9]",0.0,4.0,0.3653080463409424,1.83976411819458,0.48376572295982245,43.0,436.0,0.0
G,D,"[6, 9]",1.0,5.0,0.25530195236206055,1.5825719833374023,0.3329457361701505,43.0,437.0,0.0
Y,R,"[6, 10]",1.0,6.0,0.23192286491394043,1.9718468189239502,0.737675331814265,43.0,438.0,0.0
R,U,"[5, 10]",1.0,7.0,0.3409850597381592,1.7879109382629395,0.4424915703208418,43.0,439.0,0.0
Y,R,"[5, 11]",0.0,7.0,0.25588321685791016,1.6200230121612549,0.36272158127915677,43.0,440.0,0.0
,,"(6, 6)",,,,,,,,
R,U,"[5, 6]",1.0,1.0,0.7497849464416504,3.4692771434783936,0.265321469061032,44.0,441.0,0.0
Y,R,"[5, 7]",1.0,2.0,0.2638728618621826,1.9173309803009033,0.6491050085659249,44.0,442.0,0.0
R,U,"[4, 7]",0.0,2.0,0.22025609016418457,1.8567578792572021,0.6389544111371079,44.0,443.0,0.0
Y,R,"[4, 8]",0.0,2.0,0.2832510471343994,1.5712039470672607,0.2937464151283558,44.0,444.0,0.0
G,D,"[5, 8]",1.0,3.0,0.2515091896057129,1.5321009159088135,0.2924094569254397,44.0,445.0,0.0
Y,R,"[5, 9]",0.0,3.0,0.22942709922790527,1.5899379253387451,0.365666150732933,44.0,446.0,0.0
R,U,"[4, 9]",1.0,4.0,0.26126909255981445,1.6377031803131104,0.36987644444725215,44.0,447.0,0.0
B,L,"[4, 8]",0.0,4.0,0.20082998275756836,1.858877182006836,0.6617635656494988,44.0,448.0,0.0
G,D,"[5, 8]",0.0,4.0,0.2351698875427246,1.4965589046478271,0.2588535436547757,44.0,449.0,0.0
B,L,"[5, 7]",0.0,4.0,0.2427690029144287,1.639448881149292,0.3979132399887766,44.0,450.0,0.0
,,"(6, 6)",,,,,,,,
R,U,"[5, 6]",1.0,1.0,0.6425580978393555,3.3733839988708496,0.5711944679896925,45.0,451.0,0.0
Y,R,"[5, 7]",1.0,2.0,0.20124101638793945,1.9209721088409424,0.7252453911931853,45.0,452.0,0.0
G,D,"[6, 7]",0.0,2.0,0.2114109992980957,1.7555201053619385,0.5475206607627254,45.0,453.0,0.0
Y,R,"[6, 8]",1.0,3.0,0.10322308540344238,1.7322371006011963,0.6296773563313286,45.0,454.0,0.0
R,U,"[5, 8]",1.0,4.0,0.21042513847351074,1.5910379886627197,0.37102836983665605,45.0,455.0,0.0
Y,R,"[5, 9]",0.0,4.0,0.19210505485534668,1.4675469398498535,0.2718556664571925,45.0,456.0,0.0
G,D,"[6, 9]",1.0,5.0,0.22157597541809082,1.9188029766082764,0.690278408256271,45.0,457.0,0.0
Y,R,"[6, 10]",1.0,6.0,0.22376203536987305,1.529339075088501,0.30327999299674174,45.0,458.0,0.0
R,U,"[5, 10]",1.0,7.0,0.27038097381591797,1.5275030136108398,0.26415566134393054,45.0,459.0,0.0
Y,R,"[5, 11]",0.0,7.0,0.2577040195465088,1.9850759506225586,0.7319597405399032,45.0,460.0,0.0
,,"(6, 6)",,,,,,,,
R,U,"[5, 6]",1.0,1.0,0.644676923751831,3.677349090576172,0.4262532268522194,46.0,461.0,0.0
Y,R,"[5, 7]",1.0,2.0,0.45519089698791504,1.944439172744751,0.5038756599122687,46.0,462.0,0.0
G,D,"[6, 7]",0.0,2.0,0.20504117012023926,1.88218092918396,0.6857160934028625,46.0,463.0,0.0
Y,R,"[6, 8]",1.0,3.0,0.2295689582824707,1.5349760055541992,0.30440885973789567,46.0,464.0,0.0
R,U,"[5, 8]",1.0,4.0,0.253309965133667,1.7955009937286377,0.5496847330976331,46.0,465.0,0.0
B,L,"[5, 7]",0.0,4.0,0.27724289894104004,1.7106380462646484,0.42690984063136667,46.0,466.0,0.0
G,D,"[6, 7]",0.0,4.0,0.22052383422851562,1.8073110580444336,0.6008160560649503,46.0,467.0,0.0
Y,R,"[6, 8]",0.0,4.0,0.17258691787719727,1.7115449905395508,0.5291136378419349,46.0,468.0,0.0
R,U,"[5, 8]",0.0,4.0,0.22596001625061035,1.7294719219207764,0.49176648152080854,46.0,469.0,0.0
Y,R,"[5, 9]",0.0,4.0,0.20322799682617188,1.8171467781066895,0.6257208564808485,46.0,470.0,0.0
,,"(6, 6)",,,,,,,,
R,U,"[5, 6]",1.0,1.0,0.582531213760376,3.351747989654541,0.543961797958106,47.0,471.0,0.0
Y,R,"[5, 7]",1.0,2.0,0.2095348834991455,1.7365460395812988,0.5307218186350551,47.0,472.0,0.0
G,D,"[6, 7]",0.0,2.0,0.2495250701904297,1.7025859355926514,0.4497308010346537,47.0,473.0,0.0
Y,R,"[6, 8]",1.0,3.0,0.2164599895477295,1.6146178245544434,0.39762932198467776,47.0,474.0,0.0
R,U,"[5, 8]",1.0,4.0,0.21981501579284668,1.603618860244751,0.3845073286765474,47.0,475.0,0.0
Y,R,"[5, 9]",0.0,4.0,0.21077418327331543,1.8706989288330078,0.6550022535463736,47.0,476.0,0.0
G,D,"[6, 9]",1.0,5.0,0.20214009284973145,1.5590288639068604,0.3641916286775052,47.0,477.0,0.0
Y,R,"[6, 10]",1.0,6.0,0.19051384925842285,1.6687288284301758,0.4661872984794751,47.0,478.0,0.0
R,U,"[5, 10]",1.0,7.0,0.25299787521362305,1.8683960437774658,0.6180139725748337,47.0,479.0,0.0
B,L,"[5, 9]",0.0,7.0,0.44915103912353516,2.0611369609832764,0.6121151233286102,47.0,480.0,0.0
,,"(6, 6)",,,,,,,,
R,U,"[5, 6]",1.0,1.0,0.6726469993591309,3.4327869415283203,0.6780795995898077,48.0,481.0,0.0
Y,R,"[5, 7]",1.0,2.0,0.232741117477417,1.5340778827667236,0.3125545891797643,48.0,482.0,0.0
G,D,"[6, 7]",0.0,2.0,0.26307010650634766,1.6222429275512695,0.3513620238307179,48.0,483.0,0.0
Y,R,"[6, 8]",1.0,3.0,0.20100808143615723,1.517585039138794,0.31900609635339483,48.0,484.0,0.0
R,U,"[5, 8]",1.0,4.0,0.2243659496307373,1.8062469959259033,0.5748661393856824,48.0,485.0,0.0
Y,R,"[5, 9]",0.0,4.0,0.23944997787475586,1.639329195022583,0.3976962449211512,48.0,486.0,0.0
G,D,"[6, 9]",1.0,5.0,0.20838403701782227,1.890718936920166,0.671457063743566,48.0,487.0,0.0
B,L,"[6, 8]",0.0,5.0,0.3239901065826416,1.951664924621582,0.623061938577957,48.0,488.0,0.0
R,U,"[5, 8]",0.0,5.0,0.20100903511047363,1.6190690994262695,0.4256322600172748,48.0,489.0,0.0
Y,R,"[5, 9]",0.0,5.0,0.2214679718017578,1.7550129890441895,0.5304628031065517,48.0,490.0,0.0
,,"(6, 6)",,,,,,,,
R,U,"[5, 6]",1.0,1.0,0.6299340724945068,3.111598014831543,0.39214241600398325,49.0,491.0,0.0
Y,R,"[5, 7]",1.0,2.0,0.3588860034942627,1.871694803237915,0.5137042689924303,49.0,492.0,0.0
G,D,"[6, 7]",0.0,2.0,0.24539494514465332,1.8995928764343262,0.6463822662784923,49.0,493.0,0.0
Y,R,"[6, 8]",1.0,3.0,0.19375896453857422,1.805790901184082,0.6021106012111538,49.0,494.0,0.0
R,U,"[5, 8]",1.0,4.0,0.23223209381103516,1.9586448669433594,0.7273136376430791,49.0,495.0,0.0
Y,R,"[5, 9]",0.0,4.0,0.23721694946289062,1.5647978782653809,0.3424167930027757,49.0,496.0,0.0
G,D,"[6, 9]",1.0,5.0,0.2377150058746338,1.8505089282989502,0.6094017444252147,49.0,497.0,0.0
Y,R,"[6, 10]",1.0,6.0,0.21660494804382324,1.7990570068359375,0.5916608290373493,49.0,498.0,0.0
R,U,"[5, 10]",1.0,7.0,0.23052620887756348,1.6063849925994873,0.381645717034532,49.0,499.0,0.0
Y,R,"[5, 11]",0.0,7.0,0.26080894470214844,1.7218339443206787,0.45319673830501445,49.0,500.0,0.0
,,"(6, 6)",,,,,,,,
R,U,"[5, 6]",1.0,1.0,0.6857039928436279,3.9152660369873047,0.6516469041390482,50.0,501.0,0.0
Y,R,"[5, 7]",1.0,2.0,0.3395090103149414,1.9164559841156006,0.568156629912536,50.0,502.0,0.0
R,U,"[4, 7]",0.0,2.0,0.3118929862976074,2.0437228679656982,0.7282508258743452,50.0,503.0,0.0
Y,R,"[4, 8]",0.0,2.0,0.21406817436218262,1.832702875137329,0.6277722144244908,50.0,504.0,0.0
G,D,"[5, 8]",1.0,3.0,0.21307706832885742,1.501004934310913,0.29563010520175165,50.0,505.0,0.0
Y,R,"[5, 9]",0.0,3.0,0.21864986419677734,1.7383780479431152,0.5172252533977975,50.0,506.0,0.0
R,U,"[4, 9]",1.0,4.0,0.21608304977416992,1.7154779434204102,0.4992461469183333,50.0,507.0,0.0
Y,R,"[4, 10]",1.0,5.0,0.23067808151245117,1.710453987121582,0.4763273793113285,50.0,508.0,0.0
G,D,"[5, 10]",1.0,6.0,0.24636220932006836,1.6068930625915527,0.3667087863489637,50.0,509.0,0.0
Y,R,"[5, 11]",0.0,6.0,0.4117119312286377,1.9946630001068115,0.5779645419649363,50.0,510.0,0.0
,,"(6, 6)",,,,,,,,
R,U,"[5, 6]",-2.0,0.0,1.1187200546264648,4.23695707321167,0.4813230808466688,51.0,511.0,0.0
Y,R,"[5, 7]",1.0,1.0,0.7706270217895508,2.1427359580993652,0.37407524427037164,51.0,512.0,0.0
R,U,"[4, 7]",0.0,1.0,0.2950561046600342,1.902858018875122,0.610049808466897,51.0,513.0,0.0
Y,R,"[4, 8]",0.0,1.0,0.2529721260070801,1.769543170928955,0.5296759423998599,51.0,514.0,0.0
R,U,"[3, 8]",0.0,1.0,0.23163390159606934,1.5856878757476807,0.3488310596130104,51.0,515.0,0.0
Y,R,"[3, 9]",1.0,2.0,0.22234201431274414,1.6062040328979492,0.3882665978845583,51.0,516.0,0.0
G,D,"[4, 9]",1.0,3.0,0.24526715278625488,1.719621181488037,0.47449944840684655,51.0,517.0,0.0
Y,R,"[4, 10]",1.0,4.0,0.549638032913208,2.193355083465576,0.6509342799745781,51.0,518.0,0.0
R,U,"[3, 10]",0.0,4.0,0.22861099243164062,1.9059770107269287,0.6733938430944868,51.0,519.0,0.0
Y,R,"[3, 11]",0.0,4.0,0.24554800987243652,1.6634979248046875,0.42039775383036926,51.0,520.0,0.0
,,"(6, 6)",,,,,,,,
R,U,"[5, 6]",1.0,1.0,0.9134769439697266,3.5945210456848145,0.6147466840106904,52.0,521.0,0.0
Y,R,"[5, 7]",1.0,2.0,0.2659871578216553,1.6145439147949219,0.3462183136085734,52.0,522.0,0.0
B,L,"[5, 6]",0.0,2.0,0.256303071975708,1.903127908706665,0.6323154619085336,52.0,523.0,0.0
Y,R,"[5, 7]",0.0,2.0,0.18942904472351074,1.5361390113830566,0.3354592707981431,52.0,524.0,0.0
R,U,"[4, 7]",0.0,2.0,0.3079190254211426,1.9341719150543213,0.6195809672865982,52.0,525.0,0.0
Y,R,"[4, 8]",0.0,2.0,0.2254788875579834,1.53895902633667,0.30833738712130776,52.0,526.0,0.0
R,U,"[3, 8]",0.0,2.0,0.2261028289794922,1.962522029876709,0.7377237129138119,52.0,527.0,0.0
Y,R,"[3, 9]",1.0,3.0,0.22150492668151855,1.9131767749786377,0.7002519333454336,52.0,528.0,0.0
R,U,"[2, 9]",0.0,3.0,0.6408078670501709,2.28894305229187,0.6393327765436728,52.0,529.0,0.0
Y,R,"[2, 10]",0.0,3.0,0.21840691566467285,1.519909143447876,0.3095097316544887,52.0,530.0,0.0
,,"(6, 6)",,,,,,,,
R,U,"[5, 6]",1.0,1.0,0.6137669086456299,3.4902141094207764,0.732872815709656,53.0,531.0,0.0
Y,R,"[5, 7]",1.0,2.0,0.4377410411834717,1.7841269969940186,0.35031027839949264,53.0,532.0,0.0
Y,R,"[5, 8]",1.0,3.0,0.4043710231781006,2.0014429092407227,0.6014753632019687,53.0,533.0,0.0
Y,R,"[5, 9]",0.0,3.0,0.2527132034301758,1.9966838359832764,0.7483017294690641,53.0,534.0,0.0
R,U,"[4, 9]",-2.0,3.0,1.0986921787261963,2.763714075088501,0.6950000121375406,53.0,535.0,0.0
Y,R,"[4, 10]",1.0,4.0,0.40015101432800293,1.8954839706420898,0.5072526205411292,53.0,536.0,0.0
R,U,"[3, 10]",0.0,4.0,0.5655660629272461,1.9012060165405273,0.34198667264309474,53.0,537.0,0.0
Y,R,"[3, 11]",0.0,4.0,0.24535799026489258,1.8242700099945068,0.582509669240544,53.0,538.0,0.0
G,D,"[4, 11]",0.0,4.0,0.2710449695587158,1.6994178295135498,0.43230825734860473,53.0,539.0,0.0
Y,R,"[3, 11]",-3.0,4.0,0.2080519199371338,1.7902460098266602,0.5720645124054458,53.0,540.0,0.0
,,"(6, 6)",,,,,,,,
R,U,"[5, 6]",1.0,1.0,0.5478150844573975,3.2243881225585938,0.4964335983030145,54.0,541.0,0.0
Y,R,"[5, 7]",1.0,2.0,0.4312000274658203,1.9848439693450928,0.5478956520974393,54.0,542.0,0.0
Y,R,"[5, 8]",1.0,3.0,0.19544196128845215,1.8757760524749756,0.6738781337801236,54.0,543.0,0.0
Y,R,"[5, 9]",0.0,3.0,0.3902449607849121,1.9772579669952393,0.5841732557820807,54.0,544.0,0.0
R,U,"[4, 9]",1.0,4.0,0.24807405471801758,1.9222960472106934,0.6729141702434605,54.0,545.0,0.0
Y,R,"[4, 10]",1.0,5.0,0.1911940574645996,1.7622849941253662,0.5685913633220036,54.0,546.0,0.0
Y,R,"[4, 11]",0.0,5.0,0.1955270767211914,1.8245091438293457,0.626534824938423,54.0,547.0,0.0
R,U,"[3, 11]",0.0,5.0,0.4839029312133789,1.8830540180206299,0.40967377788639314,54.0,548.0,0.0
Y,R,"[4, 11]",-3.0,5.0,0.2115330696105957,1.5624120235443115,0.355434689905339,54.0,549.0,0.0
Y,R,"[3, 11]",-3.0,5.0,0.6612257957458496,1.9763460159301758,0.31510440167292497,54.0,550.0,0.0
,,"(6, 6)",,,,,,,,
R,U,"[5, 6]",1.0,1.0,0.6187970638275146,3.194406032562256,0.5591627217124058,55.0,551.0,0.0
Y,R,"[5, 7]",1.0,2.0,0.24727296829223633,1.837824821472168,0.596922650881849,55.0,552.0,0.0
Y,R,"[5, 8]",1.0,3.0,0.22312688827514648,1.9593520164489746,0.7230712929357437,55.0,553.0,0.0
Y,R,"[5, 9]",0.0,3.0,0.2771182060241699,1.9593110084533691,0.6819764767436732,55.0,554.0,0.0
R,U,"[4, 9]",1.0,4.0,0.21042895317077637,1.715230941772461,0.49742647058178807,55.0,555.0,0.0
Y,R,"[4, 10]",1.0,5.0,0.2161569595336914,1.6998059749603271,0.48044382053230905,55.0,556.0,0.0
G,D,"[5, 10]",1.0,6.0,0.22678804397583008,1.707669973373413,0.47157179249505377,55.0,557.0,0.0
Y,R,"[5, 11]",0.0,6.0,0.20988202095031738,1.8180592060089111,0.6060598332022971,55.0,558.0,0.0
R,U,"[4, 11]",0.0,6.0,0.2031099796295166,1.7191479206085205,0.5253682623526531,55.0,559.0,0.0
Y,R,"[5, 11]",-3.0,6.0,0.20061397552490234,1.5448949337005615,0.35362564934471447,55.0,560.0,0.0
,,"(6, 6)",,,,,,,,
R,U,"[5, 6]",1.0,1.0,0.9450488090515137,3.701843023300171,0.6384480795535077,56.0,561.0,0.0
Y,R,"[5, 7]",1.0,2.0,0.35640406608581543,1.922914981842041,0.5613780811218461,56.0,562.0,0.0
Y,R,"[5, 8]",1.0,3.0,0.2367110252380371,1.918346881866455,0.696159426410016,56.0,563.0,0.0
B,L,"[5, 7]",0.0,3.0,0.29343199729919434,1.593231201171875,0.28983016086340885,56.0,564.0,0.0
R,U,"[4, 7]",0.0,3.0,0.28296589851379395,1.7304661273956299,0.4533218966354986,56.0,565.0,0.0
Y,R,"[4, 8]",0.0,3.0,0.21789002418518066,1.665726900100708,0.45242004929915614,56.0,566.0,0.0
G,D,"[5, 8]",0.0,3.0,0.8049869537353516,2.363642930984497,0.5658021282301554,56.0,567.0,0.0
Y,R,"[5, 9]",0.0,3.0,0.2072761058807373,1.896101951599121,0.6785506746096891,56.0,568.0,0.0
R,U,"[4, 9]",1.0,4.0,0.37047696113586426,1.7666661739349365,0.4120834945815358,56.0,569.0,0.0
Y,R,"[4, 10]",1.0,5.0,0.1915569305419922,1.843203067779541,0.6382572212406004,56.0,570.0,0.0
,,"(6, 6)",,,,,,,,
R,U,"[5, 6]",1.0,1.0,0.6204719543457031,3.134843111038208,0.4232831536083552,57.0,571.0,0.0
Y,R,"[5, 7]",1.0,2.0,0.3548729419708252,1.7938790321350098,0.4503631253079386,57.0,572.0,0.0
G,D,"[6, 7]",0.0,2.0,0.2358689308166504,1.846303939819336,0.6132153661209283,57.0,573.0,0.0
Y,R,"[6, 8]",1.0,3.0,0.20399880409240723,1.7137649059295654,0.5103038849360764,57.0,574.0,0.0
R,U,"[5, 8]",1.0,4.0,0.1948108673095703,1.9161150455474854,0.7261974470593083,57.0,575.0,0.0
Y,R,"[5, 9]",0.0,4.0,0.21018290519714355,1.5452511310577393,0.33837260757841886,57.0,576.0,0.0
G,D,"[6, 9]",1.0,5.0,0.105133056640625,1.6560609340667725,0.5609164779680196,57.0,577.0,0.0
Y,R,"[6, 10]",-1.0,5.0,0.07768797874450684,5.767579078674316,0.6282799359069157,57.0,578.0,0.0
Y,R,"[6, 11]",0.0,5.0,0.7461409568786621,2.3580379486083984,0.6195334207269726,57.0,579.0,0.0
G,D,"[7, 11]",0.0,5.0,0.7418229579925537,2.246464967727661,0.4995298998694508,57.0,580.0,0.0
,,"(6, 6)",,,,,,,,
R,U,"[5, 6]",1.0,1.0,0.6535420417785645,3.9305388927459717,0.5632381700589895,58.0,581.0,0.0
Y,R,"[5, 7]",1.0,2.0,0.47442102432250977,2.23500919342041,0.7480035344209646,58.0,582.0,0.0
Y,R,"[5, 8]",1.0,3.0,0.4500720500946045,1.7627830505371094,0.31123864008656454,58.0,583.0,0.0
G,D,"[6, 8]",1.0,4.0,0.35802602767944336,2.105476140975952,0.7495231114649468,58.0,584.0,0.0
Y,R,"[6, 9]",1.0,5.0,0.29036402702331543,1.9167470932006836,0.6163224957566844,58.0,585.0,0.0
R,U,"[5, 9]",0.0,5.0,0.2586829662322998,1.7113139629364014,0.44440942030385255,58.0,586.0,0.0
Y,R,"[5, 10]",1.0,6.0,0.24569392204284668,1.620081901550293,0.38118523824257516,58.0,587.0,0.0
R,U,"[4, 10]",1.0,7.0,0.44428420066833496,1.9372248649597168,0.4850312373416473,58.0,588.0,0.0
Y,R,"[4, 11]",0.0,7.0,0.22194194793701172,1.885800838470459,0.6538196671579852,58.0,589.0,0.0
G,D,"[5, 11]",0.0,7.0,0.46014404296875,1.7171390056610107,0.254683537416966,58.0,590.0,0.0
,,"(6, 6)",,,,,,,,
R,U,"[5, 6]",1.0,1.0,0.6036748886108398,3.912431001663208,0.4334636536516568,59.0,591.0,0.0
Y,R,"[5, 7]",1.0,2.0,0.2162158489227295,1.826308012008667,0.6095230395144939,59.0,592.0,0.0
Y,R,"[5, 8]",1.0,3.0,0.19356489181518555,1.6511070728302002,0.46070977545325853,59.0,593.0,0.0
G,D,"[6, 8]",1.0,4.0,0.2157151699066162,1.6567671298980713,0.4508742668008467,59.0,594.0,0.0
Y,R,"[6, 9]",1.0,5.0,0.20300602912902832,1.57078218460083,0.3716729132495925,59.0,595.0,0.0
Y,R,"[6, 10]",1.0,6.0,0.2421400547027588,1.867812156677246,0.6225629174478087,59.0,596.0,0.0
R,U,"[5, 10]",1.0,7.0,0.17452406883239746,1.6543431282043457,0.47684682683253443,59.0,597.0,0.0
Y,R,"[5, 11]",0.0,7.0,0.22453808784484863,1.7200839519500732,0.4969929865207562,59.0,598.0,0.0
Y,R,"[5, 10]",-3.0,7.0,0.5771639347076416,2.141587972640991,0.5551771514667025,59.0,599.0,0.0
R,U,"[4, 10]",1.0,8.0,0.7029130458831787,2.1647050380706787,0.4699141434162894,59.0,600.0,0.0
,,"(6, 6)",,,,,,,,
R,U,"[5, 6]",1.0,1.0,0.6878931522369385,4.1934309005737305,0.6796177857120738,60.0,601.0,0.0
Y,R,"[5, 7]",1.0,2.0,0.22312307357788086,1.9280719757080078,0.6910612015770837,60.0,602.0,0.0
Y,R,"[5, 8]",1.0,3.0,0.21236586570739746,1.608078956604004,0.39937953670947246,60.0,603.0,0.0
G,D,"[6, 8]",1.0,4.0,0.230712890625,1.5643749237060547,0.33041640020345175,60.0,604.0,0.0
Y,R,"[6, 9]",1.0,5.0,0.22506403923034668,1.7181727886199951,0.48187600002937114,60.0,605.0,0.0
Y,R,"[6, 10]",1.0,6.0,0.11338496208190918,1.6022989749908447,0.48393181517828054,60.0,606.0,0.0
Y,R,"[6, 11]",0.0,6.0,0.17443203926086426,1.7750990390777588,0.592196094869835,60.0,607.0,0.0
Y,R,"[6, 10]",-3.0,6.0,0.43972110748291016,1.9073030948638916,0.46635764582038824,60.0,608.0,0.0
Y,R,"[6, 11]",0.0,6.0,0.22407817840576172,1.5984840393066406,0.36488751714351125,60.0,609.0,0.0
G,D,"[7, 11]",0.0,6.0,0.1770329475402832,1.9261040687561035,0.740481512468368,60.0,610.0,0.0
,,"(6, 6)",,,,,,,,
R,U,"[5, 6]",1.0,1.0,0.5419321060180664,3.1965320110321045,0.2874336510323746,61.0,611.0,0.0
Y,R,"[5, 7]",1.0,2.0,0.23570609092712402,1.6288139820098877,0.39940569928755776,61.0,612.0,0.0
Y,R,"[5, 8]",1.0,3.0,0.22697114944458008,1.7025270462036133,0.4684506875470528,61.0,613.0,0.0
G,D,"[6, 8]",1.0,4.0,0.20600008964538574,1.6970789432525635,0.482162370670583,61.0,614.0,0.0
Y,R,"[6, 9]",1.0,5.0,0.21190190315246582,1.729112148284912,0.5113075119289193,61.0,615.0,0.0
Y,R,"[6, 10]",-1.0,5.0,0.0238339900970459,5.704092979431152,0.6318010309729469,61.0,616.0,0.0
R,U,"[5, 10]",1.0,6.0,0.2635619640350342,1.6686360836029053,0.40058068245787376,61.0,617.0,0.0
Y,R,"[5, 11]",0.0,6.0,0.2408890724182129,1.9352021217346191,0.6854387648640522,61.0,618.0,0.0
G,D,"[6, 11]",0.0,6.0,0.23757386207580566,1.764354944229126,0.5332847390836725,61.0,619.0,0.0
Y,R,"[5, 11]",-3.0,6.0,0.21596121788024902,1.8317930698394775,0.6149635652737415,61.0,620.0,0.0
,,"(6, 6)",,,,,,,,
R,U,"[5, 6]",1.0,1.0,0.6378638744354248,3.4205479621887207,0.4022921879680256,62.0,621.0,0.0
Y,R,"[5, 7]",1.0,2.0,0.3398590087890625,2.0441200733184814,0.6962767156272569,62.0,622.0,0.0
Y,R,"[5, 8]",1.0,3.0,0.3028700351715088,1.912971019744873,0.6090837705277532,62.0,623.0,0.0
G,D,"[6, 8]",1.0,4.0,0.22278499603271484,1.7388739585876465,0.5314409378864499,62.0,624.0,0.0
Y,R,"[6, 9]",1.0,5.0,0.22581100463867188,1.494020938873291,0.2588121199016774,62.0,625.0,0.0
Y,R,"[6, 10]",1.0,6.0,0.28046488761901855,1.5569469928741455,0.28249868446854043,62.0,626.0,0.0
R,U,"[5, 10]",1.0,7.0,0.2327420711517334,1.983414888381958,0.7487018415763321,62.0,627.0,0.0
Y,R,"[5, 11]",0.0,7.0,0.2726418972015381,1.8744521141052246,0.5899574994180754,62.0,628.0,0.0
G,D,"[6, 11]",0.0,7.0,0.22196698188781738,1.878796100616455,0.6520177810912587,62.0,629.0,0.0
Y,R,"[5, 11]",-3.0,7.0,0.42740607261657715,1.7896740436553955,0.35844818969981,62.0,630.0,0.0
,,"(6, 6)",,,,,,,,
R,U,"[5, 6]",1.0,1.0,0.7369589805603027,3.9144039154052734,0.6891005427387401,63.0,631.0,0.0
Y,R,"[5, 7]",1.0,2.0,0.22336602210998535,1.9713518619537354,0.7436406090180621,63.0,632.0,0.0
Y,R,"[5, 8]",1.0,3.0,0.405670166015625,1.6940069198608398,0.28808450077676423,63.0,633.0,0.0
G,D,"[6, 8]",1.0,4.0,0.2754940986633301,1.7211499214172363,0.4424359235387402,63.0,634.0,0.0
Y,R,"[6, 9]",1.0,5.0,0.2590510845184326,1.7593882083892822,0.5016258512051726,63.0,635.0,0.0
Y,R,"[6, 10]",1.0,6.0,0.26659607887268066,1.8836989402770996,0.6186206068892183,63.0,636.0,0.0
R,U,"[5, 10]",1.0,7.0,0.24296188354492188,1.5772149562835693,0.3293298699525362,63.0,637.0,0.0
R,U,"[4, 10]",1.0,8.0,0.23262381553649902,1.8454627990722656,0.6079322752393841,63.0,638.0,0.0
R,U,"[3, 10]",0.0,8.0,0.22329401969909668,1.6579599380493164,0.4326948430970433,63.0,639.0,0.0
R,U,"[2, 10]",0.0,8.0,0.2536039352416992,1.6627919673919678,0.4120763889425467,63.0,640.0,0.0
,,"(6, 6)",,,,,,,,
R,U,"[5, 6]",1.0,1.0,0.7606019973754883,4.421396017074585,0.6996896634402059,64.0,641.0,0.0
Y,R,"[5, 7]",1.0,2.0,0.26037001609802246,1.725553035736084,0.45886465879067595,64.0,642.0,0.0
Y,R,"[5, 8]",1.0,3.0,0.21352100372314453,1.5055270195007324,0.29775213142304074,64.0,643.0,0.0
G,D,"[6, 8]",1.0,4.0,0.23598122596740723,1.913194179534912,0.6772192760220097,64.0,644.0,0.0
Y,R,"[6, 9]",1.0,5.0,0.21900105476379395,1.4579930305480957,0.2522811983524654,64.0,645.0,0.0
Y,R,"[6, 10]",1.0,6.0,0.27821898460388184,1.8938689231872559,0.6123583698054884,64.0,646.0,0.0
R,U,"[5, 10]",1.0,7.0,0.23315191268920898,1.555408000946045,0.3181210395468667,64.0,647.0,0.0
R,U,"[4, 10]",1.0,8.0,0.23513293266296387,1.609928846359253,0.3779452473596092,64.0,648.0,0.0
Y,R,"[4, 11]",0.0,8.0,0.23899483680725098,1.4859070777893066,0.2638575948049659,64.0,649.0,0.0
R,U,"[3, 11]",0.0,8.0,0.26315903663635254,1.9232590198516846,0.6534351973934931,64.0,650.0,0.0
,,"(6, 6)",,,,,,,,
R,U,"[5, 6]",1.0,1.0,0.6413109302520752,3.8458378314971924,0.6491409414938796,65.0,651.0,0.0
Y,R,"[5, 7]",1.0,2.0,0.24745893478393555,1.6947288513183594,0.4440132848807105,65.0,652.0,0.0
Y,R,"[5, 8]",1.0,3.0,0.18007683753967285,1.8856360912322998,0.7131807053299624,65.0,653.0,0.0
G,D,"[6, 8]",1.0,4.0,0.20204591751098633,1.750196933746338,0.5463166273948272,65.0,654.0,0.0
Y,R,"[6, 9]",1.0,5.0,0.20314598083496094,1.9498319625854492,0.7459583368386796,65.0,655.0,0.0
Y,R,"[6, 10]",1.0,6.0,0.26001906394958496,1.904066801071167,0.633437252440159,65.0,656.0,0.0
R,U,"[5, 10]",1.0,7.0,0.21999692916870117,1.5867269039154053,0.37038547905928326,65.0,657.0,0.0
R,U,"[4, 10]",1.0,8.0,0.30481410026550293,1.8992810249328613,0.6026660336665708,65.0,658.0,0.0
R,U,"[3, 10]",0.0,8.0,0.9308681488037109,2.3144781589508057,0.3839701102436628,65.0,659.0,0.0
R,U,"[2, 10]",0.0,8.0,0.28399205207824707,1.989070177078247,0.7064732760977046,65.0,660.0,0.0
,,"(6, 6)",,,,,,,,
R,U,"[5, 6]",1.0,1.0,0.6816608905792236,3.32904314994812,0.518525885926882,66.0,661.0,0.0
Y,R,"[5, 7]",1.0,2.0,0.2742459774017334,1.7462029457092285,0.46473799831693297,66.0,662.0,0.0
Y,R,"[5, 8]",1.0,3.0,0.23547697067260742,1.6346259117126465,0.39941473689333606,66.0,663.0,0.0
G,D,"[6, 8]",1.0,4.0,0.1990349292755127,1.9183881282806396,0.7173395796760371,66.0,664.0,0.0
Y,R,"[6, 9]",1.0,5.0,0.2282857894897461,1.725780963897705,0.4933132691209415,66.0,665.0,0.0
Y,R,"[6, 10]",1.0,6.0,0.24256014823913574,1.8017559051513672,0.5617448097265185,66.0,666.0,0.0
R,U,"[5, 10]",1.0,7.0,0.23430109024047852,1.86155104637146,0.6398809870171478,66.0,667.0,0.0
R,U,"[4, 10]",1.0,8.0,0.3159298896789551,1.6611201763153076,0.3512013547713029,66.0,668.0,0.0
Y,R,"[4, 11]",0.0,8.0,0.43379807472229004,1.7042090892791748,0.27215404703159424,66.0,669.0,0.0
R,U,"[3, 11]",0.0,8.0,0.2992429733276367,1.565716028213501,0.2711768545565096,66.0,670.0,0.0
,,"(6, 6)",,,,,,,,
R,U,"[5, 6]",1.0,1.0,0.6350400447845459,3.1825242042541504,0.33679223161215177,67.0,671.0,0.0
Y,R,"[5, 7]",1.0,2.0,0.24930500984191895,1.8056550025939941,0.5588406326117943,67.0,672.0,0.0
Y,R,"[5, 8]",1.0,3.0,0.22318196296691895,1.7238202095031738,0.4993312230453986,67.0,673.0,0.0
G,D,"[6, 8]",1.0,4.0,0.22089195251464844,1.7616231441497803,0.5442503921473096,67.0,674.0,0.0
Y,R,"[6, 9]",1.0,5.0,0.24076294898986816,1.71242094039917,0.47332201145337977,67.0,675.0,0.0
Y,R,"[6, 10]",1.0,6.0,0.23204588890075684,1.7527458667755127,0.5262788772091286,67.0,676.0,0.0
R,U,"[5, 10]",1.0,7.0,0.2491769790649414,1.9248828887939453,0.6840782052507388,67.0,677.0,0.0
R,U,"[4, 10]",1.0,8.0,0.19277286529541016,1.648413896560669,0.4492353523424202,67.0,678.0,0.0
B,L,"[4, 9]",1.0,9.0,0.30678296089172363,1.7454099655151367,0.42797139263091977,67.0,679.0,0.0
B,L,"[4, 8]",0.0,9.0,0.299422025680542,1.6490840911865234,0.3604702552783522,67.0,680.0,0.0
,,"(6, 6)",,,,,,,,
R,U,"[5, 6]",1.0,1.0,0.6327331066131592,3.3103678226470947,0.6204270635002676,68.0,681.0,0.0
Y,R,"[5, 7]",1.0,2.0,0.2197580337524414,1.557154893875122,0.34458418524276463,68.0,682.0,0.0
Y,R,"[5, 8]",1.0,3.0,0.2288680076599121,1.5243680477142334,0.3022195038258731,68.0,683.0,0.0
G,D,"[6, 8]",1.0,4.0,0.5903470516204834,1.8586490154266357,0.26087955950088104,68.0,684.0,0.0
Y,R,"[6, 9]",1.0,5.0,0.23340201377868652,1.7886950969696045,0.5658373915220434,68.0,685.0,0.0
Y,R,"[6, 10]",1.0,6.0,0.1953728199005127,1.6295511722564697,0.42895346307390203,68.0,686.0,0.0
R,U,"[5, 10]",1.0,7.0,0.2719399929046631,1.9441101551055908,0.6560949915477532,68.0,687.0,0.0
R,U,"[4, 10]",1.0,8.0,0.23603200912475586,1.6636021137237549,0.43655882632955445,68.0,688.0,0.0
B,L,"[4, 9]",1.0,9.0,0.23500299453735352,1.7047650814056396,0.4745091483918232,68.0,689.0,0.0
R,U,"[3, 9]",1.0,10.0,0.23296403884887695,1.6133990287780762,0.38795992302590876,68.0,690.0,0.0
,,"(6, 6)",,,,,,,,
R,U,"[5, 6]",1.0,1.0,0.6774618625640869,3.249807834625244,0.37110720127266333,69.0,691.0,0.0
Y,R,"[5, 7]",1.0,2.0,0.21326708793640137,1.561250925064087,0.3490577631880141,69.0,692.0,0.0
Y,R,"[5, 8]",1.0,3.0,0.23088693618774414,1.5439608097076416,0.30961884899691205,69.0,693.0,0.0
G,D,"[6, 8]",1.0,4.0,0.2035360336303711,1.561589002609253,0.37106500181748653,69.0,694.0,0.0
Y,R,"[6, 9]",1.0,5.0,0.21881604194641113,1.6406331062316895,0.42831533774011643,69.0,695.0,0.0
Y,R,"[6, 10]",1.0,6.0,0.18721508979797363,1.6030831336975098,0.4313334159521443,69.0,696.0,0.0
R,U,"[5, 10]",1.0,7.0,0.2559700012207031,1.9184880256652832,0.6495817267369618,69.0,697.0,0.0
R,U,"[4, 10]",1.0,8.0,0.2038731575012207,1.5019111633300781,0.30181142860103516,69.0,698.0,0.0
B,L,"[4, 9]",1.0,9.0,0.2440478801727295,1.5781989097595215,0.3298343011574249,69.0,699.0,0.0
R,U,"[3, 9]",1.0,10.0,0.26554393768310547,1.9163780212402344,0.6459969712659828,69.0,700.0,0.0
,,"(6, 6)",,,,,,,,
R,U,"[5, 6]",1.0,1.0,0.7853460311889648,3.32625412940979,0.3225429933622891,70.0,701.0,0.0
Y,R,"[5, 7]",1.0,2.0,0.30214405059814453,1.579219102859497,0.2849929847922196,70.0,702.0,0.0
Y,R,"[5, 8]",1.0,3.0,0.24219083786010742,1.5276398658752441,0.27918525244232806,70.0,703.0,0.0
G,D,"[6, 8]",1.0,4.0,0.24159502983093262,1.55672287940979,0.30259090641469166,70.0,704.0,0.0
Y,R,"[6, 9]",-1.0,4.0,0.021932125091552734,5.361443042755127,0.2805445908165495,70.0,705.0,0.0
Y,R,"[6, 10]",1.0,5.0,0.37369394302368164,1.753911018371582,0.3845162099579364,70.0,706.0,0.0
R,U,"[5, 10]",1.0,6.0,0.25371789932250977,1.958846092224121,0.7095190147805753,70.0,707.0,0.0
R,U,"[4, 10]",1.0,7.0,0.2818410396575928,1.943479061126709,0.6695592301707243,70.0,708.0,0.0
B,L,"[4, 9]",1.0,8.0,0.26377201080322266,1.579360008239746,0.3160321119887904,70.0,709.0,0.0
R,U,"[3, 9]",1.0,9.0,0.2533550262451172,1.654158115386963,0.4033570915902077,70.0,710.0,0.0
,,"(6, 6)",,,,,,,,
R,U,"[5, 6]",1.0,1.0,0.7164559364318848,3.4108738899230957,0.3641586686646782,71.0,711.0,0.0
Y,R,"[5, 7]",1.0,2.0,0.28965187072753906,1.7944579124450684,0.4918628202238333,71.0,712.0,0.0
Y,R,"[5, 8]",1.0,3.0,0.3603699207305908,1.9837658405303955,0.6254263271941958,71.0,713.0,0.0
G,D,"[6, 8]",1.0,4.0,0.2500028610229492,1.9033820629119873,0.6621802620502895,71.0,714.0,0.0
Y,R,"[6, 9]",1.0,5.0,0.28624892234802246,1.903637170791626,0.6156545370200897,71.0,715.0,0.0
Y,R,"[6, 10]",1.0,6.0,0.21318697929382324,1.5479459762573242,0.3304055743126953,71.0,716.0,0.0
R,U,"[5, 10]",1.0,7.0,0.29529285430908203,1.6568019390106201,0.35393942213291985,71.0,717.0,0.0
R,U,"[4, 10]",1.0,8.0,0.4782748222351074,1.9637808799743652,0.4842664392531896,71.0,718.0,0.0
B,L,"[4, 9]",1.0,9.0,0.23061800003051758,1.5671088695526123,0.3347035622021771,71.0,719.0,0.0
R,U,"[3, 9]",1.0,10.0,0.27695608139038086,1.9589359760284424,0.6766705160767815,71.0,720.0,0.0
,,"(6, 6)",,,,,,,,
R,U,"[5, 6]",1.0,1.0,0.7205770015716553,3.1618189811706543,0.5384865934214969,72.0,721.0,0.0
Y,R,"[5, 7]",1.0,2.0,0.2072281837463379,1.7501230239868164,0.5385494662629118,72.0,722.0,0.0
Y,R,"[5, 8]",1.0,3.0,0.21617507934570312,1.6057050228118896,0.39439156738097414,72.0,723.0,0.0
G,D,"[6, 8]",1.0,4.0,0.22714996337890625,1.7145440578460693,0.49213001158055486,72.0,724.0,0.0
Y,R,"[6, 9]",1.0,5.0,0.19051408767700195,1.7599220275878906,0.5688885211413065,72.0,725.0,0.0
Y,R,"[6, 10]",1.0,6.0,0.1909630298614502,1.8855540752410889,0.6873230049127514,72.0,726.0,0.0
R,U,"[5, 10]",1.0,7.0,0.2604341506958008,1.7633848190307617,0.5007611006709268,72.0,727.0,0.0
R,U,"[4, 10]",1.0,8.0,0.4708120822906494,2.0643749237060547,0.5984493051184836,72.0,728.0,0.0
B,L,"[4, 9]",1.0,9.0,0.5965330600738525,2.259415864944458,0.6576374393344615,72.0,729.0,0.0
R,U,"[3, 9]",1.0,10.0,0.2821309566497803,1.693701982498169,0.4185881840120739,72.0,730.0,0.0
,,"(6, 6)",,,,,,,,
R,U,"[5, 6]",1.0,1.0,0.6625180244445801,3.1388561725616455,0.3238816703473944,73.0,731.0,0.0
Y,R,"[5, 7]",1.0,2.0,0.24477195739746094,1.9161701202392578,0.6732133937154319,73.0,732.0,0.0
Y,R,"[5, 8]",1.0,3.0,0.25305700302124023,1.6147170066833496,0.3713422817918866,73.0,733.0,0.0
G,D,"[6, 8]",1.0,4.0,0.25124192237854004,1.9462850093841553,0.7004994659564108,73.0,734.0,0.0
Y,R,"[6, 9]",1.0,5.0,0.21333813667297363,1.7695369720458984,0.5535350100712204,73.0,735.0,0.0
Y,R,"[6, 10]",1.0,6.0,0.21665000915527344,1.790970802307129,0.5776632760223839,73.0,736.0,0.0
R,U,"[5, 10]",1.0,7.0,0.2564229965209961,1.585413932800293,0.3466603003085907,73.0,737.0,0.0
R,U,"[4, 10]",1.0,8.0,0.24536895751953125,1.598680019378662,0.3453757557607915,73.0,738.0,0.0
B,L,"[4, 9]",1.0,9.0,0.2359011173248291,1.7782230377197266,0.5566290278823297,73.0,739.0,0.0
R,U,"[3, 9]",1.0,10.0,0.20966506004333496,1.7328310012817383,0.5228070755468639,73.0,740.0,0.0
,,"(6, 6)",,,,,,,,
R,U,"[5, 6]",1.0,1.0,0.7564811706542969,3.5277440547943115,0.6336774356642942,74.0,741.0,0.0
Y,R,"[5, 7]",1.0,2.0,0.25435900688171387,1.6587271690368652,0.40927802005208797,74.0,742.0,0.0
Y,R,"[5, 8]",1.0,3.0,0.2429969310760498,1.9724020957946777,0.7311737868641625,74.0,743.0,0.0
G,D,"[6, 8]",1.0,4.0,0.23262405395507812,1.8795380592346191,0.6441679087644185,74.0,744.0,0.0
Y,R,"[6, 9]",1.0,5.0,0.2269449234008789,1.7523529529571533,0.5298686278306547,74.0,745.0,0.0
Y,R,"[6, 10]",1.0,6.0,0.22225499153137207,1.8983252048492432,0.6613237581715009,74.0,746.0,0.0
R,U,"[5, 10]",1.0,7.0,0.5958890914916992,2.007067918777466,0.41873438401168167,74.0,747.0,0.0
R,U,"[4, 10]",1.0,8.0,0.24236702919006348,1.8779499530792236,0.6296955799834177,74.0,748.0,0.0
B,L,"[4, 9]",1.0,9.0,0.19888091087341309,1.9321229457855225,0.7283072466885697,74.0,749.0,0.0
R,U,"[3, 9]",1.0,10.0,0.20273184776306152,1.7873661518096924,0.5990180504886322,74.0,750.0,0.0
,,"(6, 6)",,,,,,,,
R,U,"[5, 6]",1.0,1.0,0.7788829803466797,3.6586389541625977,0.5410851091043336,75.0,751.0,0.0
Y,R,"[5, 7]",1.0,2.0,0.24139404296875,1.9669139385223389,0.7244859807996828,75.0,752.0,0.0
Y,R,"[5, 8]",1.0,3.0,0.23045110702514648,1.5245440006256104,0.2993091407033222,75.0,753.0,0.0
G,D,"[6, 8]",1.0,4.0,0.27315306663513184,1.7075328826904297,0.42343092344683186,75.0,754.0,0.0
Y,R,"[6, 9]",1.0,5.0,0.26511502265930176,1.7264130115509033,0.46646589279920486,75.0,755.0,0.0
Y,R,"[6, 10]",1.0,6.0,0.28174304962158203,1.8764021396636963,0.592693160950287,75.0,756.0,0.0
R,U,"[5, 10]",1.0,7.0,0.24706792831420898,1.9148149490356445,0.6740147074831697,75.0,757.0,0.0
R,U,"[4, 10]",1.0,8.0,0.2163698673248291,1.839123010635376,0.6297104936718225,75.0,758.0,0.0
B,L,"[4, 9]",1.0,9.0,0.24936604499816895,2.000133991241455,0.7464222675337355,75.0,759.0,0.0
R,U,"[3, 9]",1.0,10.0,0.22549986839294434,1.9729278087615967,0.7359832453558972,75.0,760.0,0.0
,,"(6, 6)",,,,,,,,
R,U,"[5, 6]",1.0,1.0,0.7338709831237793,5.029835939407349,0.582418296291316,76.0,761.0,0.0
Y,R,"[5, 7]",1.0,2.0,0.22527623176574707,1.758843183517456,0.5246161815041139,76.0,762.0,0.0
Y,R,"[5, 8]",1.0,3.0,0.25133514404296875,1.8803460597991943,0.6382306330999621,76.0,763.0,0.0
G,D,"[6, 8]",1.0,4.0,0.1890099048614502,1.5805630683898926,0.40228618507031305,76.0,764.0,0.0
Y,R,"[6, 9]",1.0,5.0,0.26177406311035156,1.5477941036224365,0.283518981026295,76.0,765.0,0.0
Y,R,"[6, 10]",1.0,6.0,0.24313712120056152,1.7308640480041504,0.4973698227494775,76.0,766.0,0.0
R,U,"[5, 10]",1.0,7.0,0.15144991874694824,1.6789519786834717,0.5265603165748489,76.0,767.0,0.0
R,U,"[4, 10]",1.0,8.0,0.20462799072265625,1.5494539737701416,0.35922041839005875,76.0,768.0,0.0
B,L,"[4, 9]",1.0,9.0,0.24254703521728516,1.6353509426116943,0.3944640653428797,76.0,769.0,0.0
R,U,"[3, 9]",1.0,10.0,0.24527215957641602,1.6620469093322754,0.42317490091401816,76.0,770.0,0.0
,,"(6, 6)",,,,,,,,
R,U,"[5, 6]",1.0,1.0,0.5766730308532715,3.43544602394104,0.5250258098362663,77.0,771.0,0.0
Y,R,"[5, 7]",1.0,2.0,0.22629690170288086,1.5894150733947754,0.36464664360599386,77.0,772.0,0.0
Y,R,"[5, 8]",1.0,3.0,0.2921779155731201,1.7787420749664307,0.47650115908024987,77.0,773.0,0.0
G,D,"[6, 8]",1.0,4.0,0.23058605194091797,1.7304890155792236,0.506988830421033,77.0,774.0,0.0
Y,R,"[6, 9]",1.0,5.0,0.23037195205688477,1.6792280673980713,0.45290277536528534,77.0,775.0,0.0
Y,R,"[6, 10]",1.0,6.0,0.24182510375976562,1.7965288162231445,0.5492552421430308,77.0,776.0,0.0
R,U,"[5, 10]",1.0,7.0,0.22494816780090332,1.9755311012268066,0.741366380128021,77.0,777.0,0.0
R,U,"[4, 10]",1.0,8.0,0.21515703201293945,1.625119924545288,0.41668889519843116,77.0,778.0,0.0
B,L,"[4, 9]",1.0,9.0,0.24479889869689941,1.8244118690490723,0.5741879051324332,77.0,779.0,0.0
R,U,"[3, 9]",1.0,10.0,0.19711685180664062,1.7816839218139648,0.589136535243665,77.0,780.0,0.0
,,"(6, 6)",,,,,,,,
R,U,"[5, 6]",1.0,1.0,0.937593936920166,2.936660051345825,0.2761135728150698,78.0,781.0,0.0
Y,R,"[5, 7]",1.0,2.0,0.3054192066192627,1.981740951538086,0.6740327265709973,78.0,782.0,0.0
Y,R,"[5, 8]",1.0,3.0,0.21698307991027832,1.7140979766845703,0.5050443278606302,78.0,783.0,0.0
G,D,"[6, 8]",1.0,4.0,0.18736910820007324,1.5972709655761719,0.4189160272763714,78.0,784.0,0.0
Y,R,"[6, 9]",-1.0,4.0,0.028087139129638672,5.5405120849609375,0.45932832489464304,78.0,785.0,0.0
Y,R,"[6, 10]",1.0,5.0,0.3840210437774658,2.085268020629883,0.7109628823283383,78.0,786.0,0.0
R,U,"[5, 10]",1.0,6.0,0.3357090950012207,1.5843679904937744,0.2622940265140223,78.0,787.0,0.0
R,U,"[4, 10]",1.0,7.0,0.3176279067993164,1.647665023803711,0.3264933029329528,78.0,788.0,0.0
B,L,"[4, 9]",1.0,8.0,0.34530210494995117,2.0004000663757324,0.6599194359698612,78.0,789.0,0.0
R,U,"[3, 9]",1.0,9.0,0.2362689971923828,1.6540369987487793,0.4308340527894378,78.0,790.0,0.0
,,"(6, 6)",,,,,,,,
R,U,"[5, 6]",1.0,1.0,0.7366209030151367,3.334105968475342,0.43153611304972544,79.0,791.0,0.0
Y,R,"[5, 7]",1.0,2.0,0.4762411117553711,1.9468178749084473,0.4615075324271159,79.0,792.0,0.0
Y,R,"[5, 8]",1.0,3.0,0.24895787239074707,1.5816831588745117,0.3433781334637897,79.0,793.0,0.0
G,D,"[6, 8]",1.0,4.0,0.3645138740539551,1.8772470951080322,0.520259788264311,79.0,794.0,0.0
Y,R,"[6, 9]",1.0,5.0,0.2142341136932373,1.5131289958953857,0.300211411767646,79.0,795.0,0.0
Y,R,"[6, 10]",1.0,6.0,0.3505570888519287,1.7948260307312012,0.44493622829358087,79.0,796.0,0.0
R,U,"[5, 10]",1.0,7.0,0.38725900650024414,1.679154872894287,0.30758837470654604,79.0,797.0,0.0
R,U,"[4, 10]",1.0,8.0,0.24689292907714844,1.9249529838562012,0.6821239485761093,79.0,798.0,0.0
B,L,"[4, 9]",1.0,9.0,0.11150693893432617,1.8027939796447754,0.6848845164423573,79.0,799.0,0.0
B,L,"[4, 8]",0.0,9.0,0.19451379776000977,1.7681169509887695,0.5699830975228551,79.0,800.0,0.0
,,"(6, 6)",,,,,,,,
R,U,"[5, 6]",1.0,1.0,0.7005760669708252,2.8402271270751953,0.5765400323051357,80.0,801.0,0.0
Y,R,"[5, 7]",1.0,2.0,0.31850695610046387,1.778325080871582,0.471543250241409,80.0,802.0,0.0
Y,R,"[5, 8]",1.0,3.0,0.25443601608276367,1.584355115890503,0.33935354143954666,80.0,803.0,0.0
G,D,"[6, 8]",1.0,4.0,0.21875691413879395,1.91074800491333,0.6996478460403109,80.0,804.0,0.0
Y,R,"[6, 9]",1.0,5.0,0.24030494689941406,1.640117883682251,0.39005579110262706,80.0,805.0,0.0
Y,R,"[6, 10]",1.0,6.0,0.23177099227905273,1.7718329429626465,0.5449919113458142,80.0,806.0,0.0
R,U,"[5, 10]",1.0,7.0,0.6238541603088379,2.0283689498901367,0.4067619516213236,80.0,807.0,0.0
R,U,"[4, 10]",1.0,8.0,0.2657279968261719,1.608950138092041,0.3492053101069068,80.0,808.0,0.0
B,L,"[4, 9]",1.0,9.0,0.2670919895172119,1.7255680561065674,0.45792017710241645,80.0,809.0,0.0
R,U,"[3, 9]",1.0,10.0,0.22336196899414062,1.6166009902954102,0.3911860900314978,80.0,810.0,0.0
,,"(6, 6)",,,,,,,,
R,U,"[5, 6]",1.0,1.0,0.6905550956726074,2.883759021759033,0.6912069975011235,81.0,811.0,0.0
Y,R,"[5, 7]",1.0,2.0,0.23940491676330566,1.754418134689331,0.5125200835336959,81.0,812.0,0.0
Y,R,"[5, 8]",1.0,3.0,0.24010300636291504,1.9777488708496094,0.7232899156418293,81.0,813.0,0.0
G,D,"[6, 8]",1.0,4.0,0.22102594375610352,1.6858649253845215,0.4760581456853038,81.0,814.0,0.0
Y,R,"[6, 9]",1.0,5.0,0.2506861686706543,1.6758298873901367,0.43517736083980835,81.0,815.0,0.0
Y,R,"[6, 10]",1.0,6.0,0.2812469005584717,1.7269618511199951,0.4454996512882096,81.0,816.0,0.0
R,U,"[5, 10]",1.0,7.0,0.30896997451782227,2.0017359256744385,0.680241768186917,81.0,817.0,0.0
R,U,"[4, 10]",1.0,8.0,0.2099308967590332,1.8069119453430176,0.5872025624953858,81.0,818.0,0.0
B,L,"[4, 9]",1.0,9.0,0.22231006622314453,1.7415878772735596,0.5122414023280113,81.0,819.0,0.0
R,U,"[3, 9]",1.0,10.0,0.24991893768310547,1.6136071681976318,0.35925113670385,81.0,820.0,0.0
,,"(6, 6)",,,,,,,,
R,U,"[5, 6]",1.0,1.0,0.7436599731445312,3.181926965713501,0.6573221600098176,82.0,821.0,0.0
Y,R,"[5, 7]",1.0,2.0,0.25951600074768066,1.7676069736480713,0.5084799479567021,82.0,822.0,0.0
Y,R,"[5, 8]",1.0,3.0,0.2748560905456543,1.6972589492797852,0.42236870076278366,82.0,823.0,0.0
G,D,"[6, 8]",1.0,4.0,0.22383499145507812,1.848872184753418,0.6212236024681923,82.0,824.0,0.0
Y,R,"[6, 9]",1.0,5.0,0.22910690307617188,1.5790269374847412,0.35028778544981415,82.0,825.0,0.0
Y,R,"[6, 10]",1.0,6.0,0.26851892471313477,1.6883368492126465,0.42194639081083546,82.0,826.0,0.0
R,U,"[5, 10]",1.0,7.0,0.28667283058166504,1.608464002609253,0.33034222353155873,82.0,827.0,0.0
R,U,"[4, 10]",1.0,8.0,0.353740930557251,1.7772741317749023,0.4241279705494008,82.0,828.0,0.0
B,L,"[4, 9]",1.0,9.0,0.24984407424926758,1.9924070835113525,0.7496281669414153,82.0,829.0,0.0
R,U,"[3, 9]",1.0,10.0,0.21080708503723145,1.8156111240386963,0.5986232896960532,82.0,830.0,0.0
,,"(6, 6)",,,,,,,,
R,U,"[5, 6]",1.0,1.0,0.7324841022491455,3.3513410091400146,0.5166425153464691,83.0,831.0,0.0
Y,R,"[5, 7]",1.0,2.0,0.26005983352661133,1.6086819171905518,0.3421417614147136,83.0,832.0,0.0
Y,R,"[5, 8]",1.0,3.0,0.24005794525146484,1.5996339321136475,0.358300639379783,83.0,833.0,0.0
G,D,"[6, 8]",1.0,4.0,0.26708006858825684,1.6016151905059814,0.34332621211285735,83.0,834.0,0.0
Y,R,"[6, 9]",1.0,5.0,0.24408388137817383,1.815648078918457,0.575356600931732,83.0,835.0,0.0
Y,R,"[6, 10]",1.0,6.0,0.2174088954925537,1.5084571838378906,0.30071175352740054,83.0,836.0,0.0
R,U,"[5, 10]",1.0,7.0,0.23489594459533691,1.6330430507659912,0.4002364057442112,83.0,837.0,0.0
Y,R,"[5, 11]",0.0,7.0,0.23343491554260254,1.5958280563354492,0.3627040544546449,83.0,838.0,0.0
R,U,"[4, 11]",0.0,7.0,0.9764430522918701,2.4570441246032715,0.4697194884020457,83.0,839.0,0.0
R,U,"[3, 11]",-2.0,7.0,1.1853830814361572,2.5826151371002197,0.4355982522221918,83.0,840.0,0.0
,,"(6, 6)",,,,,,,,
R,U,"[5, 6]",1.0,1.0,0.8388230800628662,3.2453551292419434,0.5474346242188468,84.0,841.0,0.0
Y,R,"[5, 7]",1.0,2.0,0.29131102561950684,1.7513771057128906,0.4656664496769542,84.0,842.0,0.0
Y,R,"[5, 8]",1.0,3.0,0.27699899673461914,1.9556279182434082,0.6708657672676337,84.0,843.0,0.0
G,D,"[6, 8]",1.0,4.0,0.2258439064025879,1.9251480102539062,0.6958597917385563,84.0,844.0,0.0
Y,R,"[6, 9]",1.0,5.0,0.21662402153015137,1.5158891677856445,0.29545301236175736,84.0,845.0,0.0
Y,R,"[6, 10]",1.0,6.0,0.42893218994140625,1.8532309532165527,0.41528944801184137,84.0,846.0,0.0
R,U,"[5, 10]",1.0,7.0,0.5638999938964844,2.11991286277771,0.5516001124968348,84.0,847.0,0.0
R,U,"[4, 10]",1.0,8.0,0.2202138900756836,1.7007198333740234,0.48568991099864345,84.0,848.0,0.0
B,L,"[4, 9]",1.0,9.0,0.373291015625,1.679840087890625,0.2990109268216991,84.0,849.0,0.0
R,U,"[3, 9]",1.0,10.0,0.8029007911682129,2.3774940967559814,0.5762889967363616,84.0,850.0,0.0
,,"(6, 6)",,,,,,,,
R,U,"[5, 6]",1.0,1.0,0.638707160949707,2.9004909992218018,0.44351953986762205,85.0,851.0,0.0
Y,R,"[5, 7]",1.0,2.0,0.23832488059997559,1.7831809520721436,0.5431761861673865,85.0,852.0,0.0
Y,R,"[5, 8]",1.0,3.0,0.2258298397064209,1.4799351692199707,0.25668340907713394,85.0,853.0,0.0
G,D,"[6, 8]",1.0,4.0,0.2395789623260498,1.538464069366455,0.29509989980261014,85.0,854.0,0.0
Y,R,"[6, 9]",1.0,5.0,0.22213196754455566,1.8735218048095703,0.6680544438264073,85.0,855.0,0.0
Y,R,"[6, 10]",1.0,6.0,0.2087709903717041,1.8531010150909424,0.6379503962007463,85.0,856.0,0.0
R,U,"[5, 10]",1.0,7.0,0.4958481788635254,1.9725558757781982,0.4774765871868855,85.0,857.0,0.0
R,U,"[4, 10]",1.0,8.0,0.3491368293762207,1.999168872833252,0.6595425092875942,85.0,858.0,0.0
B,L,"[4, 9]",1.0,9.0,0.20319414138793945,1.9097049236297607,0.7191582719567772,85.0,859.0,0.0
R,U,"[3, 9]",1.0,10.0,0.2404007911682129,1.8499221801757812,0.6024696168632132,85.0,860.0,0.0
,,"(6, 6)",,,,,,,,
R,U,"[5, 6]",1.0,1.0,0.7347819805145264,3.473613977432251,0.5260580564795114,86.0,861.0,0.0
Y,R,"[5, 7]",1.0,2.0,0.26268506050109863,1.5968809127807617,0.33982280778576784,86.0,862.0,0.0
Y,R,"[5, 8]",1.0,3.0,0.2891709804534912,1.6623618602752686,0.36864103303033946,86.0,863.0,0.0
G,D,"[6, 8]",1.0,4.0,0.24102091789245605,1.5296838283538818,0.28178053155495336,86.0,864.0,0.0
Y,R,"[6, 9]",1.0,5.0,0.24667096138000488,1.8155839443206787,0.5637524748849021,86.0,865.0,0.0
Y,R,"[6, 10]",1.0,6.0,0.1979968547821045,1.5184869766235352,0.31572286900336655,86.0,866.0,0.0
R,U,"[5, 10]",1.0,7.0,0.2763209342956543,1.6721150875091553,0.3877648277795307,86.0,867.0,0.0
R,U,"[4, 10]",1.0,8.0,0.20676612854003906,1.794348955154419,0.5818622146241603,86.0,868.0,0.0
B,L,"[4, 9]",1.0,9.0,0.3096189498901367,1.630911111831665,0.312994493415151,86.0,869.0,0.0
R,U,"[3, 9]",1.0,10.0,0.2764301300048828,1.6134309768676758,0.32635632688203964,86.0,870.0,0.0
,,"(6, 6)",,,,,,,,
R,U,"[5, 6]",1.0,1.0,0.8165690898895264,4.0184760093688965,0.5445601412372046,87.0,871.0,0.0
Y,R,"[5, 7]",1.0,2.0,0.25060510635375977,1.818669080734253,0.579821707920867,87.0,872.0,0.0
Y,R,"[5, 8]",1.0,3.0,0.32726192474365234,2.057162046432495,0.7200804179927867,87.0,873.0,0.0
G,D,"[6, 8]",1.0,4.0,0.2114250659942627,1.6109871864318848,0.39804448338414683,87.0,874.0,0.0
Y,R,"[6, 9]",1.0,5.0,0.2455730438232422,1.5471880435943604,0.2951671928793615,87.0,875.0,0.0
Y,R,"[6, 10]",1.0,6.0,0.2539558410644531,1.5037579536437988,0.2656433816023311,87.0,876.0,0.0
R,U,"[5, 10]",1.0,7.0,0.2255408763885498,1.6459438800811768,0.4115163981698847,87.0,877.0,0.0
R,U,"[4, 10]",1.0,8.0,0.2161858081817627,1.6605899333953857,0.4552220626300351,87.0,878.0,0.0
B,L,"[4, 9]",1.0,9.0,0.2306051254272461,1.7960691452026367,0.5678378473430059,87.0,879.0,0.0
R,U,"[3, 9]",1.0,10.0,0.19660210609436035,1.5932130813598633,0.39452221090035383,87.0,880.0,0.0
,,"(6, 6)",,,,,,,,
R,U,"[5, 6]",1.0,1.0,0.7476851940155029,3.5136191844940186,0.591175196295072,88.0,881.0,0.0
Y,R,"[5, 7]",1.0,2.0,0.2634739875793457,1.9530291557312012,0.6941398935834433,88.0,882.0,0.0
Y,R,"[5, 8]",1.0,3.0,0.2914619445800781,1.91168212890625,0.622532313286809,88.0,883.0,0.0
G,D,"[6, 8]",1.0,4.0,0.2577948570251465,1.890782117843628,0.6298858775283009,88.0,884.0,0.0
Y,R,"[6, 9]",1.0,5.0,0.21478796005249023,1.6680641174316406,0.4481013298673406,88.0,885.0,0.0
Y,R,"[6, 10]",1.0,6.0,0.22507905960083008,1.8933920860290527,0.6579343280842525,88.0,886.0,0.0
R,U,"[5, 10]",1.0,7.0,0.320756196975708,1.982274055480957,0.6735395765197159,88.0,887.0,0.0
R,U,"[4, 10]",1.0,8.0,0.23039698600769043,1.9455170631408691,0.7188795731440286,88.0,888.0,0.0
B,L,"[4, 9]",1.0,9.0,0.22335386276245117,1.7016940116882324,0.4874330364619959,88.0,889.0,0.0
R,U,"[3, 9]",1.0,10.0,0.24634003639221191,1.6764650344848633,0.430577783384835,88.0,890.0,0.0
,,"(6, 6)",,,,,,,,
R,U,"[5, 6]",1.0,1.0,0.7473978996276855,3.628558874130249,0.5089126829592661,89.0,891.0,0.0
Y,R,"[5, 7]",1.0,2.0,0.21432709693908691,1.5472149848937988,0.3396088270689199,89.0,892.0,0.0
Y,R,"[5, 8]",1.0,3.0,0.2683072090148926,1.552448034286499,0.29217524323778166,89.0,893.0,0.0
G,D,"[6, 8]",1.0,4.0,0.2143421173095703,1.5048511028289795,0.29686013279300405,89.0,894.0,0.0
Y,R,"[6, 9]",1.0,5.0,0.21477413177490234,1.617609977722168,0.39774807049763916,89.0,895.0,0.0
Y,R,"[6, 10]",1.0,6.0,0.2199268341064453,1.712583065032959,0.4934498327398195,89.0,896.0,0.0
R,U,"[5, 10]",1.0,7.0,0.5799820423126221,2.09049391746521,0.5172720317498425,89.0,897.0,0.0
R,U,"[4, 10]",1.0,8.0,0.22496604919433594,1.8488991260528564,0.6161549756104969,89.0,898.0,0.0
B,L,"[4, 9]",1.0,9.0,0.22805213928222656,1.7602460384368896,0.5263331679381094,89.0,899.0,0.0
R,U,"[3, 9]",1.0,10.0,0.225233793258667,1.6405210494995117,0.4169498285757554,89.0,900.0,0.0
,,"(6, 6)",,,,,,,,
R,U,"[5, 6]",1.0,1.0,0.6438980102539062,3.0234148502349854,0.4402931232774389,90.0,901.0,0.0
Y,R,"[5, 7]",1.0,2.0,0.18719005584716797,1.610841989517212,0.4344380425551874,90.0,902.0,0.0
Y,R,"[5, 8]",1.0,3.0,0.2625701427459717,1.5656960010528564,0.3002027925769737,90.0,903.0,0.0
G,D,"[6, 8]",1.0,4.0,0.23597502708435059,1.784024953842163,0.5506520888197659,90.0,904.0,0.0
Y,R,"[6, 9]",1.0,5.0,0.21451616287231445,1.5023128986358643,0.28653472346923514,90.0,905.0,0.0
Y,R,"[6, 10]",1.0,6.0,0.2657811641693115,1.9591290950775146,0.6950444482231216,90.0,906.0,0.0
R,U,"[5, 10]",1.0,7.0,0.21383190155029297,1.8614580631256104,0.6399334767588594,90.0,907.0,0.0
R,U,"[4, 10]",1.0,8.0,0.2298290729522705,1.6021151542663574,0.37564206349888574,90.0,908.0,0.0
B,L,"[4, 9]",1.0,9.0,0.22080302238464355,1.6347730159759521,0.4269682653172522,90.0,909.0,0.0
R,U,"[3, 9]",1.0,10.0,0.21349620819091797,1.7450659275054932,0.5385437630386037,90.0,910.0,0.0
,,"(6, 6)",,,,,,,,
R,U,"[5, 6]",1.0,1.0,0.7644519805908203,3.203444004058838,0.7083374415169017,91.0,911.0,0.0
Y,R,"[5, 7]",1.0,2.0,0.2225658893585205,1.6287710666656494,0.4040831820992383,91.0,912.0,0.0
Y,R,"[5, 8]",1.0,3.0,0.23410391807556152,1.8923211097717285,0.6627231796197364,91.0,913.0,0.0
G,D,"[6, 8]",1.0,4.0,0.21507692337036133,1.7661399841308594,0.5456418642056633,91.0,914.0,0.0
Y,R,"[6, 9]",1.0,5.0,0.22639107704162598,1.9475409984588623,0.7100786243735211,91.0,915.0,0.0
Y,R,"[6, 10]",1.0,6.0,0.23920798301696777,1.5659029483795166,0.34263116468028393,91.0,916.0,0.0
R,U,"[5, 10]",1.0,7.0,0.268359899520874,1.731389045715332,0.47375427817064997,91.0,917.0,0.0
R,U,"[4, 10]",1.0,8.0,0.23004794120788574,1.9649899005889893,0.7384043616210275,91.0,918.0,0.0
B,L,"[4, 9]",1.0,9.0,0.21132302284240723,1.5814390182495117,0.37027344612811824,91.0,919.0,0.0
R,U,"[3, 9]",1.0,10.0,0.25897884368896484,1.592745065689087,0.3296856903865584,91.0,920.0,0.0
,,"(6, 6)",,,,,,,,
R,U,"[5, 6]",1.0,1.0,0.8461887836456299,3.367371082305908,0.4801368291787059,92.0,921.0,0.0
Y,R,"[5, 7]",1.0,2.0,0.24260902404785156,1.9996559619903564,0.7461808059055064,92.0,922.0,0.0
Y,R,"[5, 8]",1.0,3.0,0.2813858985900879,1.6955080032348633,0.40855538162002364,92.0,923.0,0.0
G,D,"[6, 8]",1.0,4.0,0.39893007278442383,1.9696998596191406,0.5781141063342334,92.0,924.0,0.0
Y,R,"[6, 9]",1.0,5.0,0.25125980377197266,1.9699130058288574,0.7311307422904367,92.0,925.0,0.0
Y,R,"[6, 10]",1.0,6.0,0.2284560203552246,1.4933531284332275,0.25829154773169605,92.0,926.0,0.0
R,U,"[5, 10]",1.0,7.0,0.27080512046813965,1.968930959701538,0.7099361425260722,92.0,927.0,0.0
R,U,"[4, 10]",1.0,8.0,0.24688291549682617,1.6231000423431396,0.383475754979704,92.0,928.0,0.0
B,L,"[4, 9]",1.0,9.0,0.24093103408813477,1.5013360977172852,0.2515217744863244,92.0,929.0,0.0
R,U,"[3, 9]",1.0,10.0,0.250715970993042,1.9602830410003662,0.7113194597189879,92.0,930.0,0.0
,,"(6, 6)",,,,,,,,
R,U,"[5, 6]",1.0,1.0,0.6254568099975586,2.7490570545196533,0.49376291258555544,93.0,931.0,0.0
Y,R,"[5, 7]",1.0,2.0,0.20150494575500488,1.686086893081665,0.49659146588407643,93.0,932.0,0.0
Y,R,"[5, 8]",1.0,3.0,0.24253487586975098,1.7674260139465332,0.5139198523670602,93.0,933.0,0.0
G,D,"[6, 8]",1.0,4.0,0.25778913497924805,1.8456358909606934,0.5760711366617309,93.0,934.0,0.0
Y,R,"[6, 9]",1.0,5.0,0.2208559513092041,1.5484271049499512,0.3414401303961566,93.0,935.0,0.0
Y,R,"[6, 10]",1.0,6.0,0.23242783546447754,1.755039930343628,0.5294898983361915,93.0,936.0,0.0
R,U,"[5, 10]",1.0,7.0,0.26181793212890625,1.6153109073638916,0.34505125465255776,93.0,937.0,0.0
R,U,"[4, 10]",1.0,8.0,0.24480414390563965,1.9100208282470703,0.6713256282592319,93.0,938.0,0.0
B,L,"[4, 9]",1.0,9.0,0.24508905410766602,1.7926499843597412,0.5473318247495201,93.0,939.0,0.0
R,U,"[3, 9]",1.0,10.0,0.2221088409423828,1.641645908355713,0.4058487326405264,93.0,940.0,0.0
,,"(6, 6)",,,,,,,,
R,U,"[5, 6]",1.0,1.0,0.7117009162902832,3.2178611755371094,0.5733926243005443,94.0,941.0,0.0
Y,R,"[5, 7]",1.0,2.0,0.23201918601989746,1.8028481006622314,0.5762288483317559,94.0,942.0,0.0
Y,R,"[5, 8]",1.0,3.0,0.25725817680358887,1.9350461959838867,0.6777799492107606,94.0,943.0,0.0
G,D,"[6, 8]",1.0,4.0,0.24071097373962402,1.7647500038146973,0.5425694003573525,94.0,944.0,0.0
Y,R,"[6, 9]",1.0,5.0,0.21901297569274902,1.5427448749542236,0.33570497820884754,94.0,945.0,0.0
Y,R,"[6, 10]",1.0,6.0,0.25202107429504395,1.7308378219604492,0.4828566397150858,94.0,946.0,0.0
R,U,"[5, 10]",1.0,7.0,0.3807530403137207,2.100961923599243,0.716924904601882,94.0,947.0,0.0
R,U,"[4, 10]",1.0,8.0,0.18864202499389648,1.8217978477478027,0.6221251273464046,94.0,948.0,0.0
B,L,"[4, 9]",1.0,9.0,0.20316505432128906,1.8200528621673584,0.6253826116195593,94.0,949.0,0.0
R,U,"[3, 9]",1.0,10.0,0.19825506210327148,1.538822889328003,0.3477444091421954,94.0,950.0,0.0
,,"(6, 6)",,,,,,,,
R,U,"[5, 6]",1.0,1.0,0.7121360301971436,3.1793830394744873,0.44381499483643566,95.0,951.0,0.0
Y,R,"[5, 7]",1.0,2.0,0.23264002799987793,1.9667859077453613,0.743431799782128,95.0,952.0,0.0
Y,R,"[5, 8]",-1.0,2.0,0.034533023834228516,5.450517892837524,0.3608697070265134,95.0,953.0,0.0
G,D,"[6, 8]",1.0,3.0,0.3999028205871582,2.10142183303833,0.7119201754386115,95.0,954.0,0.0
Y,R,"[6, 9]",1.0,4.0,0.39723896980285645,2.0535600185394287,0.6488561891068678,95.0,955.0,0.0
Y,R,"[6, 10]",1.0,5.0,0.2763500213623047,1.5432219505310059,0.2589939718294421,95.0,956.0,0.0
R,U,"[5, 10]",1.0,6.0,0.36988186836242676,1.6171329021453857,0.25949661316954703,95.0,957.0,0.0
R,U,"[4, 10]",1.0,7.0,0.27621006965637207,1.8045330047607422,0.5302829986367084,95.0,958.0,0.0
B,L,"[4, 9]",1.0,8.0,0.2565188407897949,1.5293550491333008,0.25985558334264275,95.0,959.0,0.0
R,U,"[3, 9]",1.0,9.0,0.21982097625732422,1.7659809589385986,0.5590000701114154,95.0,960.0,0.0
,,"(6, 6)",,,,,,,,
R,U,"[5, 6]",1.0,1.0,0.6409258842468262,2.4564831256866455,0.26559855986462655,96.0,961.0,0.0
Y,R,"[5, 7]",1.0,2.0,0.3038501739501953,1.5944371223449707,0.2933314369078715,96.0,962.0,0.0
Y,R,"[5, 8]",1.0,3.0,0.2451000213623047,1.72343111038208,0.4832452679007249,96.0,963.0,0.0
G,D,"[6, 8]",1.0,4.0,0.42377591133117676,1.93597412109375,0.5024983804297627,96.0,964.0,0.0
Y,R,"[6, 9]",1.0,5.0,0.25742387771606445,1.8295109272003174,0.5652192766698838,96.0,965.0,0.0
Y,R,"[6, 10]",1.0,6.0,0.2760589122772217,1.7962589263916016,0.5115539372606924,96.0,966.0,0.0
R,U,"[5, 10]",1.0,7.0,0.22690582275390625,1.6861062049865723,0.46428829782409325,96.0,967.0,0.0
R,U,"[4, 10]",1.0,8.0,0.2700510025024414,1.8796911239624023,0.6104618092988325,96.0,968.0,0.0
B,L,"[4, 9]",1.0,9.0,0.38825201988220215,1.660485029220581,0.2878781434646534,96.0,969.0,0.0
R,U,"[3, 9]",1.0,10.0,0.235260009765625,1.7934679985046387,0.5643219999573962,96.0,970.0,0.0
,,"(6, 6)",,,,,,,,
R,U,"[5, 6]",1.0,1.0,0.7430400848388672,3.0737249851226807,0.6212173783594277,97.0,971.0,0.0
Y,R,"[5, 7]",1.0,2.0,0.2809321880340576,1.973633050918579,0.6947984105121418,97.0,972.0,0.0
Y,R,"[5, 8]",1.0,3.0,0.26357603073120117,1.9353759288787842,0.6800692360871445,97.0,973.0,0.0
G,D,"[6, 8]",1.0,4.0,0.20794010162353516,1.5825068950653076,0.362913872663787,97.0,974.0,0.0
Y,R,"[6, 9]",1.0,5.0,0.2335658073425293,1.5160751342773438,0.2789838880374062,97.0,975.0,0.0
Y,R,"[6, 10]",1.0,6.0,0.30017685890197754,1.7152550220489502,0.4108435574962159,97.0,976.0,0.0
R,U,"[5, 10]",1.0,7.0,0.2081148624420166,1.798534870147705,0.5924568244718957,97.0,977.0,0.0
B,L,"[5, 9]",0.0,7.0,0.21398115158081055,1.909066915512085,0.7012786318014179,97.0,978.0,0.0
B,L,"[5, 8]",0.0,7.0,0.2242119312286377,1.6551718711853027,0.4233575025640606,97.0,979.0,0.0
R,U,"[4, 8]",0.0,7.0,0.28620290756225586,1.9372968673706055,0.6603817560919052,97.0,980.0,0.0
,,"(6, 6)",,,,,,,,
R,U,"[5, 6]",1.0,1.0,0.6678438186645508,3.586400032043457,0.6301321049950628,98.0,981.0,0.0
Y,R,"[5, 7]",1.0,2.0,0.22152495384216309,1.8300609588623047,0.6102060191679313,98.0,982.0,0.0
Y,R,"[5, 8]",1.0,3.0,0.22830700874328613,1.4938850402832031,0.2710411214272581,98.0,983.0,0.0
G,D,"[6, 8]",1.0,4.0,0.2972071170806885,1.7224249839782715,0.42662514443956284,98.0,984.0,0.0
Y,R,"[6, 9]",1.0,5.0,0.2635040283203125,1.9978461265563965,0.7407505339714817,98.0,985.0,0.0
Y,R,"[6, 10]",1.0,6.0,0.2084791660308838,1.6226749420166016,0.4136125193251524,98.0,986.0,0.0
R,U,"[5, 10]",1.0,7.0,0.19815993309020996,1.8909099102020264,0.6876782813167204,98.0,987.0,0.0
R,U,"[4, 10]",1.0,8.0,0.539700984954834,1.898582935333252,0.35325627150037126,98.0,988.0,0.0
B,L,"[4, 9]",1.0,9.0,0.23782610893249512,1.507483959197998,0.2773730704486381,98.0,989.0,0.0
R,U,"[3, 9]",1.0,10.0,0.2438359260559082,1.8163859844207764,0.576898237795776,98.0,990.0,0.0
,,"(6, 6)",,,,,,,,
R,U,"[5, 6]",1.0,1.0,0.6356461048126221,2.5700089931488037,0.3968226224437681,99.0,991.0,0.0
Y,R,"[5, 7]",1.0,2.0,0.3002920150756836,1.996933937072754,0.693380417915928,99.0,992.0,0.0
Y,R,"[5, 8]",1.0,3.0,0.2703731060028076,1.8353190422058105,0.5787581159090319,99.0,993.0,0.0
G,D,"[6, 8]",1.0,4.0,0.21738290786743164,1.5921127796173096,0.3711463043338979,99.0,994.0,0.0
Y,R,"[6, 9]",1.0,5.0,0.22400212287902832,1.9308578968048096,0.7183390673147593,99.0,995.0,0.0
Y,R,"[6, 10]",1.0,6.0,0.21272683143615723,1.4717118740081787,0.2569456351104716,99.0,996.0,0.0
R,U,"[5, 10]",1.0,7.0,0.2613379955291748,1.6738948822021484,0.4140131860496718,99.0,997.0,0.0
B,L,"[5, 9]",0.0,7.0,0.22267699241638184,1.9039568901062012,0.667813460560229,99.0,998.0,0.0
B,L,"[5, 8]",-2.0,7.0,1.0038118362426758,2.5984859466552734,0.6329234518063749,99.0,999.0,0.0
R,U,"[4, 8]",0.0,7.0,0.6539821624755859,2.3627090454101562,0.7124188172243034,99.0,1000.0,0.0
