button_choice,action_choice,coordinate_choice,reward,cumulative_reward,rt,total_trial_time,iti,block_n,trial_n,trial_type
R,U,"[5, 6]",-2.0,0.0,2.789820909500122,4.370429039001465,0.6045674929072531,0.0,1.0,0.0
Y,R,"[5, 7]",1.0,1.0,0.3146979808807373,1.876188039779663,0.5641009165656687,0.0,2.0,0.0
R,U,"[4, 7]",0.0,1.0,0.19244694709777832,1.7823891639709473,0.5799605602732995,0.0,3.0,0.0
R,U,"[3, 7]",0.0,1.0,0.20089316368103027,1.9379820823669434,0.7344154111047679,0.0,4.0,0.0
G,D,"[4, 7]",0.0,1.0,0.19270706176757812,1.7135488986968994,0.5149192736320487,0.0,5.0,0.0
Y,R,"[4, 8]",0.0,1.0,0.6047160625457764,2.3309710025787354,0.72894486374479,0.0,6.0,0.0
R,U,"[3, 8]",0.0,1.0,0.741832971572876,2.008373975753784,0.2545757894157734,0.0,7.0,0.0
R,U,"[2, 8]",0.0,1.0,0.22262001037597656,1.708528995513916,0.47944130151667563,0.0,8.0,0.0
B,L,"[2, 7]",0.0,1.0,0.10509395599365234,1.7652640342712402,0.6613529308541393,0.0,9.0,0.0
R,U,"[1, 7]",0.0,1.0,0.163956880569458,1.648845911026001,0.4936740478840062,0.0,10.0,0.0
,,"(6, 6)",,,,,,,,
R,U,"[5, 6]",1.0,1.0,0.9273488521575928,10.324593782424927,0.53531145148654,1.0,11.0,0.0
Y,R,"[5, 7]",1.0,2.0,0.21368694305419922,1.5708539485931396,0.35610711818212076,1.0,12.0,0.0
Y,R,"[5, 8]",1.0,3.0,0.25981593132019043,1.907909870147705,0.6470792069347195,1.0,13.0,0.0
G,D,"[6, 8]",1.0,4.0,0.2061159610748291,1.6134979724884033,0.39418312428722824,1.0,14.0,0.0
Y,R,"[6, 9]",1.0,5.0,0.18012404441833496,1.4617979526519775,0.2894355831263552,1.0,15.0,0.0
Y,R,"[6, 10]",1.0,6.0,0.16947102546691895,1.5604398250579834,0.399817567210146,1.0,16.0,0.0
R,U,"[5, 10]",1.0,7.0,0.28685808181762695,1.9155008792877197,0.6320059251713741,1.0,17.0,0.0
R,U,"[4, 10]",1.0,8.0,0.11004996299743652,1.5576698780059814,0.43956551050252474,1.0,18.0,0.0
B,L,"[4, 9]",1.0,9.0,0.18427801132202148,1.8558058738708496,0.6785664631805375,1.0,19.0,0.0
R,U,"[3, 9]",1.0,10.0,0.1836528778076172,1.5700411796569824,0.3821823754569086,1.0,20.0,0.0
,,"(6, 6)",,,,,,,,
R,U,"[5, 6]",1.0,1.0,0.8796520233154297,18.27507495880127,0.3410084658813181,2.0,21.0,0.0
Y,R,"[5, 7]",1.0,2.0,0.35091590881347656,2.0343098640441895,0.6916155751076819,2.0,22.0,0.0
Y,R,"[5, 8]",1.0,3.0,0.2526090145111084,1.9231529235839844,0.6814315598147511,2.0,23.0,0.0
G,D,"[6, 8]",1.0,4.0,0.2132120132446289,1.8246309757232666,0.6061891106219848,2.0,24.0,0.0
Y,R,"[6, 9]",1.0,5.0,0.1915290355682373,1.9086389541625977,0.7147514286172826,2.0,25.0,0.0
Y,R,"[6, 10]",1.0,6.0,0.19890093803405762,1.5640699863433838,0.36258416385091713,2.0,26.0,0.0
R,U,"[5, 10]",1.0,7.0,0.4302690029144287,1.9899871349334717,0.5522566310524907,2.0,27.0,0.0
R,U,"[4, 10]",1.0,8.0,0.18581295013427734,1.8767421245574951,0.6956582122813205,2.0,28.0,0.0
B,L,"[4, 9]",1.0,9.0,0.21247005462646484,1.670285940170288,0.44946809689210593,2.0,29.0,0.0
R,U,"[3, 9]",1.0,10.0,0.2488570213317871,1.8723089694976807,0.6216935152056348,2.0,30.0,0.0
,,"(6, 6)",,,,,,,,
R,U,"[5, 6]",-2.0,0.0,1.0807061195373535,5.795936107635498,0.2513879283173457,3.0,31.0,0.0
Y,R,"[5, 7]",1.0,1.0,0.33115291595458984,2.0121641159057617,0.6800548019563484,3.0,32.0,0.0
Y,R,"[5, 8]",1.0,2.0,0.2443850040435791,1.6790060997009277,0.4258519550232115,3.0,33.0,0.0
Y,R,"[5, 9]",0.0,2.0,0.1329960823059082,1.467616081237793,0.34343749104644034,3.0,34.0,0.0
G,D,"[6, 9]",1.0,3.0,0.2680490016937256,1.9103879928588867,0.6535929031575883,3.0,35.0,0.0
Y,R,"[6, 10]",1.0,4.0,0.1249091625213623,1.5369460582733154,0.4074992150894507,3.0,36.0,0.0
Y,R,"[6, 11]",0.0,4.0,0.180070161819458,1.5733940601348877,0.3975667002788822,3.0,37.0,0.0
R,U,"[5, 11]",0.0,4.0,0.2411661148071289,1.769197940826416,0.5167121614973998,3.0,38.0,0.0
R,U,"[4, 11]",0.0,4.0,0.2230219841003418,1.7766749858856201,0.5436576526807859,3.0,39.0,0.0
B,L,"[4, 10]",1.0,5.0,0.25133705139160156,1.795624017715454,0.5556830331596846,3.0,40.0,0.0
,,"(6, 6)",,,,,,,,
R,U,"[5, 6]",1.0,1.0,0.5742948055267334,3.482867956161499,0.355375394374911,4.0,41.0,0.0
Y,R,"[5, 7]",1.0,2.0,0.360015869140625,1.8837339878082275,0.5223875210258204,4.0,42.0,0.0
Y,R,"[5, 8]",1.0,3.0,0.39365410804748535,2.015268087387085,0.6207775746270839,4.0,43.0,0.0
Y,R,"[5, 9]",0.0,3.0,0.20685911178588867,1.8935561180114746,0.6809631134938536,4.0,44.0,0.0
G,D,"[6, 9]",-1.0,3.0,0.02254199981689453,5.471059083938599,0.38575943255888495,4.0,45.0,0.0
Y,R,"[6, 10]",1.0,4.0,0.2192540168762207,1.5548720359802246,0.3407926713121781,4.0,46.0,0.0
Y,R,"[6, 11]",0.0,4.0,0.39940595626831055,1.682642936706543,0.2902101108121811,4.0,47.0,0.0
R,U,"[5, 11]",0.0,4.0,0.4519541263580322,2.0411109924316406,0.5976755301094695,4.0,48.0,0.0
R,U,"[4, 11]",0.0,4.0,0.26288580894470215,1.6656289100646973,0.3968735948868052,4.0,49.0,0.0
B,L,"[4, 10]",1.0,5.0,0.23327898979187012,1.9456071853637695,0.7089543644971279,4.0,50.0,0.0
,,"(6, 6)",,,,,,,,
R,U,"[5, 6]",1.0,1.0,0.7178740501403809,6.202672004699707,0.478562585328107,5.0,51.0,0.0
Y,R,"[5, 7]",1.0,2.0,0.46138978004455566,2.0414140224456787,0.5864939304109167,5.0,52.0,0.0
Y,R,"[5, 8]",1.0,3.0,0.23386406898498535,1.5130419731140137,0.2832185874111118,5.0,53.0,0.0
G,D,"[6, 8]",1.0,4.0,0.38309407234191895,1.8790161609649658,0.49539085277261524,5.0,54.0,0.0
Y,R,"[6, 9]",1.0,5.0,0.4432969093322754,1.9855360984802246,0.5309332796177137,5.0,55.0,0.0
Y,R,"[6, 10]",-1.0,5.0,-6.103515625e-05,5.656239986419678,0.5871461154891595,5.0,56.0,0.0
R,U,"[5, 10]",1.0,6.0,0.609368085861206,2.332766056060791,0.719726866492298,5.0,57.0,0.0
R,U,"[4, 10]",1.0,7.0,0.19992494583129883,1.5452930927276611,0.3489029522143769,5.0,58.0,0.0
B,L,"[4, 9]",1.0,8.0,0.3599839210510254,2.0976450443267822,0.7293970181634978,5.0,59.0,0.0
R,U,"[3, 9]",1.0,9.0,0.21299195289611816,1.8122320175170898,0.5919025372352988,5.0,60.0,0.0
,,"(6, 6)",,,,,,,,
R,U,"[5, 6]",1.0,1.0,0.7755670547485352,2.8784549236297607,0.4205456220124979,6.0,61.0,0.0
Y,R,"[5, 7]",1.0,2.0,0.1656181812286377,1.5492379665374756,0.3865569993551864,6.0,62.0,0.0
Y,R,"[5, 8]",-1.0,2.0,0.011215925216674805,5.49460506439209,0.41449027327272114,6.0,63.0,0.0
G,D,"[6, 8]",-2.0,2.0,1.0416209697723389,2.627622127532959,0.5919945286752823,6.0,64.0,0.0
Y,R,"[6, 9]",1.0,3.0,0.18285417556762695,1.6089539527893066,0.43445626026758055,6.0,65.0,0.0
Y,R,"[6, 10]",1.0,4.0,0.33428215980529785,1.6030869483947754,0.27098444786728876,6.0,66.0,0.0
R,U,"[5, 10]",1.0,5.0,0.6562700271606445,2.270188808441162,0.6076161890051617,6.0,67.0,0.0
R,U,"[4, 10]",1.0,6.0,0.19451498985290527,1.580599069595337,0.38837250778063614,6.0,68.0,0.0
B,L,"[4, 9]",1.0,7.0,0.17217803001403809,1.4713799953460693,0.29325584220919687,6.0,69.0,0.0
R,U,"[3, 9]",1.0,8.0,0.2645750045776367,1.9830269813537598,0.7258572746647778,6.0,70.0,0.0
,,"(6, 6)",,,,,,,,
R,U,"[5, 6]",1.0,1.0,0.846642017364502,8.367874145507812,0.6772921523307909,7.0,71.0,0.0
Y,R,"[5, 7]",1.0,2.0,0.19546103477478027,1.7544159889221191,0.5651269216057005,7.0,72.0,0.0
Y,R,"[5, 8]",1.0,3.0,0.1647319793701172,1.6018779277801514,0.4337469466702148,7.0,73.0,0.0
Y,R,"[5, 9]",0.0,3.0,0.2447519302368164,1.8563261032104492,0.6066767083914046,7.0,74.0,0.0
G,D,"[6, 9]",-1.0,3.0,0.09780097007751465,5.872198104858398,0.6959614544338458,7.0,75.0,0.0
Y,R,"[6, 10]",1.0,4.0,0.6078429222106934,2.227985143661499,0.6070009347271715,7.0,76.0,0.0
Y,R,"[6, 11]",0.0,4.0,0.2106931209564209,1.6390929222106934,0.42960170518050483,7.0,77.0,0.0
R,U,"[5, 11]",0.0,4.0,0.349733829498291,1.6195709705352783,0.26605780482424973,7.0,78.0,0.0
R,U,"[4, 11]",0.0,4.0,0.2619740962982178,1.7434420585632324,0.4759554225690088,7.0,79.0,0.0
B,L,"[4, 10]",1.0,5.0,0.18165302276611328,1.8572969436645508,0.6830812383070699,7.0,80.0,0.0
,,"(6, 6)",,,,,,,,
R,U,"[5, 6]",1.0,1.0,0.6106760501861572,3.541109085083008,0.3911126868993711,8.0,81.0,0.0
Y,R,"[5, 7]",1.0,2.0,0.32645487785339355,1.9963858127593994,0.6706323837034345,8.0,82.0,0.0
Y,R,"[5, 8]",1.0,3.0,0.17059922218322754,1.4335150718688965,0.27125328633473195,8.0,83.0,0.0
G,D,"[6, 8]",1.0,4.0,0.35515308380126953,1.730659008026123,0.38512923599357785,8.0,84.0,0.0
Y,R,"[6, 9]",1.0,5.0,0.2418820858001709,1.7734839916229248,0.5251725025212899,8.0,85.0,0.0
Y,R,"[6, 10]",-1.0,5.0,0.03775191307067871,5.499920845031738,0.4072112433538797,8.0,86.0,0.0
R,U,"[5, 10]",1.0,6.0,0.20823907852172852,1.892935037612915,0.6826351101956749,8.0,87.0,0.0
R,U,"[4, 10]",1.0,7.0,0.21323299407958984,1.9407680034637451,0.7228583306599179,8.0,88.0,0.0
B,L,"[4, 9]",1.0,8.0,0.19490718841552734,1.7991011142730713,0.6048367966633815,8.0,89.0,0.0
R,U,"[3, 9]",1.0,9.0,0.5335829257965088,2.132650136947632,0.603380407363342,8.0,90.0,0.0
,,"(6, 6)",,,,,,,,
R,U,"[5, 6]",1.0,1.0,0.5310890674591064,2.7407381534576416,0.5101574807350291,9.0,91.0,0.0
Y,R,"[5, 7]",1.0,2.0,0.3722219467163086,2.0520551204681396,0.6780476363938239,9.0,92.0,0.0
Y,R,"[5, 8]",1.0,3.0,0.31023192405700684,1.679121971130371,0.3737747477910205,9.0,93.0,0.0
G,D,"[6, 8]",1.0,4.0,0.42794299125671387,2.059758186340332,0.6326101675834721,9.0,94.0,0.0
Y,R,"[6, 9]",1.0,5.0,0.23638510704040527,1.5988409519195557,0.364512773026016,9.0,95.0,0.0
Y,R,"[6, 10]",1.0,6.0,0.3331449031829834,1.634626865386963,0.29858260987911794,9.0,96.0,0.0
R,U,"[5, 10]",1.0,7.0,0.637444019317627,2.3411519527435303,0.7060340035480673,9.0,97.0,0.0
R,U,"[4, 10]",1.0,8.0,0.29041290283203125,1.7461957931518555,0.45144726931502205,9.0,98.0,0.0
B,L,"[4, 9]",1.0,9.0,0.26444411277770996,1.712110996246338,0.446388044614987,9.0,99.0,0.0
R,U,"[3, 9]",1.0,10.0,0.5508480072021484,1.9705610275268555,0.4164280266880327,9.0,100.0,0.0
,,"(6, 6)",,,,,,,,
R,U,"[5, 6]",1.0,1.0,0.5017449855804443,8.827110052108765,0.557618204660816,10.0,101.0,0.0
Y,R,"[5, 7]",1.0,2.0,0.24053502082824707,1.9789478778839111,0.7359914362698878,10.0,102.0,0.0
Y,R,"[5, 8]",1.0,3.0,0.21463704109191895,1.9603271484375,0.7461923783892396,10.0,103.0,0.0
G,D,"[6, 8]",1.0,4.0,0.21158695220947266,1.4860291481018066,0.2649735632724707,10.0,104.0,0.0
Y,R,"[6, 9]",1.0,5.0,0.33026814460754395,1.7258810997009277,0.39034673099747114,10.0,105.0,0.0
Y,R,"[6, 10]",1.0,6.0,0.20428204536437988,1.7968149185180664,0.6035458278372613,10.0,106.0,0.0
R,U,"[5, 10]",1.0,7.0,0.4258911609649658,1.8514220714569092,0.4209745123754756,10.0,107.0,0.0
R,U,"[4, 10]",1.0,8.0,0.317263126373291,1.6390938758850098,0.32630871044913384,10.0,108.0,0.0
B,L,"[4, 9]",1.0,9.0,0.19748997688293457,1.741481065750122,0.5509062902213919,10.0,109.0,0.0
R,U,"[3, 9]",1.0,10.0,0.303973913192749,1.6173319816589355,0.3176677604534956,10.0,110.0,0.0
,,"(6, 6)",,,,,,,,
R,U,"[5, 6]",-2.0,0.0,1.1637320518493652,5.163094997406006,0.7457594264173828,11.0,111.0,0.0
Y,R,"[5, 7]",1.0,1.0,0.29671812057495117,1.9887020587921143,0.684060299540439,11.0,112.0,0.0
Y,R,"[5, 8]",1.0,2.0,0.19319510459899902,1.7397949695587158,0.5401917777960566,11.0,113.0,0.0
G,D,"[6, 8]",1.0,3.0,0.548922061920166,1.9303009510040283,0.38678326810987657,11.0,114.0,0.0
Y,R,"[6, 9]",1.0,4.0,0.25576210021972656,1.997852087020874,0.7338047114914,11.0,115.0,0.0
Y,R,"[6, 10]",1.0,5.0,0.3465421199798584,1.839738130569458,0.49005307036937373,11.0,116.0,0.0
R,U,"[5, 10]",1.0,6.0,0.5832440853118896,2.21441912651062,0.637125936285573,11.0,117.0,0.0
R,U,"[4, 10]",1.0,7.0,0.19547104835510254,1.9079949855804443,0.7111568385487622,11.0,118.0,0.0
B,L,"[4, 9]",1.0,8.0,0.1934349536895752,1.8405399322509766,0.6513542496811352,11.0,119.0,0.0
R,U,"[3, 9]",1.0,9.0,0.43450403213500977,1.79693603515625,0.3647954018303722,11.0,120.0,0.0
,,"(6, 6)",,,,,,,,
R,U,"[5, 6]",1.0,1.0,0.8160560131072998,2.911397933959961,0.6419496537166076,12.0,121.0,0.0
Y,R,"[5, 7]",1.0,2.0,0.30444788932800293,2.0382940769195557,0.7462921864960852,12.0,122.0,0.0
Y,R,"[5, 8]",1.0,3.0,0.24238109588623047,1.6009511947631836,0.34710757365810224,12.0,123.0,0.0
Y,R,"[5, 9]",0.0,3.0,0.41353821754455566,1.997931957244873,0.5778045894695387,12.0,124.0,0.0
Y,R,"[5, 10]",1.0,4.0,0.3080329895019531,1.6073880195617676,0.30178085229957674,12.0,125.0,0.0
Y,R,"[5, 11]",0.0,4.0,0.24535894393920898,1.5121610164642334,0.26368215381532356,12.0,126.0,0.0
R,U,"[4, 11]",0.0,4.0,0.38374805450439453,1.8126418590545654,0.42563028823066557,12.0,127.0,0.0
R,U,"[3, 11]",0.0,4.0,0.16866183280944824,1.8701279163360596,0.7119050620483471,12.0,128.0,0.0
B,L,"[3, 10]",0.0,4.0,0.15983104705810547,1.4406988620758057,0.28593200524378826,12.0,129.0,0.0
R,U,"[2, 10]",0.0,4.0,0.22095298767089844,1.558758020401001,0.3442904091539283,12.0,130.0,0.0
,,"(6, 6)",,,,,,,,
R,U,"[5, 6]",1.0,1.0,0.45218801498413086,3.0898680686950684,0.5167334992143415,13.0,131.0,0.0
Y,R,"[5, 7]",1.0,2.0,0.26889705657958984,1.7463362216949463,0.4793150805114815,13.0,132.0,0.0
Y,R,"[5, 8]",1.0,3.0,0.27092814445495605,1.8397400379180908,0.5684845684537219,13.0,133.0,0.0
G,D,"[6, 8]",1.0,4.0,0.23460102081298828,1.8314709663391113,0.5996642085525112,13.0,134.0,0.0
Y,R,"[6, 9]",1.0,5.0,0.1801319122314453,1.6915650367736816,0.5075092547990163,13.0,135.0,0.0
Y,R,"[6, 10]",1.0,6.0,0.45188188552856445,1.8577461242675781,0.41506654274191773,13.0,136.0,0.0
R,U,"[5, 10]",1.0,7.0,0.39643120765686035,2.1457560062408447,0.7433088707964729,13.0,137.0,0.0
R,U,"[4, 10]",1.0,8.0,0.42386698722839355,1.736726999282837,0.31334039877127234,13.0,138.0,0.0
B,L,"[4, 9]",1.0,9.0,0.19582104682922363,1.8057239055633545,0.601906709156964,13.0,139.0,0.0
R,U,"[3, 9]",1.0,10.0,0.23588895797729492,1.8908369541168213,0.6589272092550384,13.0,140.0,0.0
,,"(6, 6)",,,,,,,,
R,U,"[5, 6]",1.0,1.0,0.6280379295349121,2.6810359954833984,0.43961994520225633,14.0,141.0,0.0
Y,R,"[5, 7]",1.0,2.0,0.11537981033325195,1.7698209285736084,0.6593872332932378,14.0,142.0,0.0
Y,R,"[5, 8]",1.0,3.0,0.2085278034210205,1.7170579433441162,0.5089670131904083,14.0,143.0,0.0
G,D,"[6, 8]",1.0,4.0,0.19288396835327148,1.7099888324737549,0.5186891158036472,14.0,144.0,0.0
Y,R,"[6, 9]",1.0,5.0,0.21713495254516602,1.7477200031280518,0.5326924248607221,14.0,145.0,0.0
Y,R,"[6, 10]",1.0,6.0,0.13303589820861816,1.7817630767822266,0.647265174628071,14.0,146.0,0.0
R,U,"[5, 10]",1.0,7.0,0.28772497177124023,1.713690996170044,0.4276511271864712,14.0,147.0,0.0
R,U,"[4, 10]",1.0,8.0,0.1956620216369629,1.680284023284912,0.4907750032938475,14.0,148.0,0.0
B,L,"[4, 9]",1.0,9.0,0.207442045211792,1.8333549499511719,0.6236803471182927,14.0,149.0,0.0
R,U,"[3, 9]",1.0,10.0,0.22753095626831055,1.9296388626098633,0.7028967757810355,14.0,150.0,0.0
,,"(6, 6)",,,,,,,,
R,U,"[5, 6]",1.0,1.0,0.5029189586639404,2.799616813659668,0.5685852211576048,15.0,151.0,0.0
Y,R,"[5, 7]",1.0,2.0,0.1817150115966797,1.908458948135376,0.726633611387967,15.0,152.0,0.0
Y,R,"[5, 8]",1.0,3.0,0.16368794441223145,1.6676340103149414,0.5107610929362765,15.0,153.0,0.0
G,D,"[6, 8]",1.0,4.0,0.3670330047607422,1.6838979721069336,0.3278898238144584,15.0,154.0,0.0
Y,R,"[6, 9]",1.0,5.0,0.3086240291595459,1.5917279720306396,0.28602739313356623,15.0,155.0,0.0
Y,R,"[6, 10]",1.0,6.0,0.3457679748535156,2.063991069793701,0.7159679311982627,15.0,156.0,0.0
R,U,"[5, 10]",1.0,7.0,0.1934208869934082,1.5922489166259766,0.39141887261310027,15.0,157.0,0.0
R,U,"[4, 10]",1.0,8.0,0.23360991477966309,1.5040290355682373,0.27872259586229275,15.0,158.0,0.0
B,L,"[4, 9]",1.0,9.0,0.30036306381225586,1.7319068908691406,0.44344802780758125,15.0,159.0,0.0
R,U,"[3, 9]",1.0,10.0,0.2433149814605713,1.881709098815918,0.6413240435312907,15.0,160.0,0.0
,,"(6, 6)",,,,,,,,
R,U,"[5, 6]",1.0,1.0,0.4388000965118408,4.782335042953491,0.7063891699501907,16.0,161.0,0.0
Y,R,"[5, 7]",1.0,2.0,0.13954806327819824,1.507159948348999,0.3632311439435208,16.0,162.0,0.0
Y,R,"[5, 8]",1.0,3.0,0.17384600639343262,1.5684821605682373,0.38134055759310365,16.0,163.0,0.0
G,D,"[6, 8]",1.0,4.0,0.2431650161743164,1.8100500106811523,0.5576858797099518,16.0,164.0,0.0
Y,R,"[6, 9]",1.0,5.0,0.1032559871673584,1.3987009525299072,0.3063580524495855,16.0,165.0,0.0
Y,R,"[6, 10]",1.0,6.0,0.22217297554016113,1.9010729789733887,0.6734412741116109,16.0,166.0,0.0
R,U,"[5, 10]",1.0,7.0,0.19523286819458008,1.7165539264678955,0.5231240925981205,16.0,167.0,0.0
R,U,"[4, 10]",1.0,8.0,0.21944117546081543,1.5227179527282715,0.3124767371194513,16.0,168.0,0.0
B,L,"[4, 9]",1.0,9.0,0.26328206062316895,1.6306679248809814,0.3593773645757954,16.0,169.0,0.0
R,U,"[3, 9]",1.0,10.0,0.2724781036376953,1.937838077545166,0.6634050646153395,16.0,170.0,0.0
,,"(6, 6)",,,,,,,,
R,U,"[5, 6]",1.0,1.0,0.3651769161224365,2.342507839202881,0.27239343527703036,17.0,171.0,0.0
Y,R,"[5, 7]",1.0,2.0,0.33716487884521484,2.013842821121216,0.6856593983901276,17.0,172.0,0.0
Y,R,"[5, 8]",1.0,3.0,0.23041987419128418,1.6264259815216064,0.3953790086726702,17.0,173.0,0.0
G,D,"[6, 8]",1.0,4.0,0.20832204818725586,1.5410501956939697,0.33636870965691723,17.0,174.0,0.0
Y,R,"[6, 9]",1.0,5.0,0.22670984268188477,1.8674979209899902,0.6364530712585503,17.0,175.0,0.0
Y,R,"[6, 10]",1.0,6.0,0.3320801258087158,1.8923678398132324,0.5618642124638324,17.0,176.0,0.0
R,U,"[5, 10]",1.0,7.0,0.3738279342651367,2.002502918243408,0.6473088014227755,17.0,177.0,0.0
R,U,"[4, 10]",1.0,8.0,0.44101810455322266,1.9186899662017822,0.46582808592702357,17.0,178.0,0.0
B,L,"[4, 9]",1.0,9.0,0.18882393836975098,1.6530439853668213,0.45205930133271804,17.0,179.0,0.0
R,U,"[3, 9]",1.0,10.0,0.28931713104248047,1.7127010822296143,0.41448937527280905,17.0,180.0,0.0
,,"(6, 6)",,,,,,,,
R,U,"[5, 6]",1.0,1.0,0.681020975112915,4.188913106918335,0.40276042636193893,18.0,181.0,0.0
Y,R,"[5, 7]",1.0,2.0,0.2422800064086914,1.6105239391326904,0.36305780142088884,18.0,182.0,0.0
Y,R,"[5, 8]",1.0,3.0,0.35361218452453613,1.9539539813995361,0.5997867297164824,18.0,183.0,0.0
G,D,"[6, 8]",1.0,4.0,0.4095799922943115,1.818084955215454,0.40114534633367477,18.0,184.0,0.0
Y,R,"[6, 9]",1.0,5.0,0.20290684700012207,1.6634180545806885,0.464199980615318,18.0,185.0,0.0
Y,R,"[6, 10]",1.0,6.0,0.18919682502746582,1.7111520767211914,0.5083690357128314,18.0,186.0,0.0
R,U,"[5, 10]",-1.0,6.0,0.04459977149963379,5.662266969680786,0.5530911759429737,18.0,187.0,0.0
G,D,"[6, 10]",0.0,6.0,0.5135328769683838,2.208828926086426,0.6949265707640677,18.0,188.0,0.0
B,L,"[6, 9]",0.0,6.0,0.14655184745788574,1.678696870803833,0.5400203013791184,18.0,189.0,0.0
R,U,"[5, 9]",0.0,6.0,0.386228084564209,1.8287341594696045,0.452005551351409,18.0,190.0,0.0
,,"(6, 6)",,,,,,,,
R,U,"[5, 6]",1.0,1.0,0.4434480667114258,3.65594220161438,0.6572087366507501,19.0,191.0,0.0
Y,R,"[5, 7]",1.0,2.0,0.22112298011779785,1.8584280014038086,0.6487387494019812,19.0,192.0,0.0
Y,R,"[5, 8]",1.0,3.0,0.22320890426635742,1.5982351303100586,0.3803656380411184,19.0,193.0,0.0
G,D,"[6, 8]",1.0,4.0,0.3381469249725342,2.0395030975341797,0.7025432522039756,19.0,194.0,0.0
Y,R,"[6, 9]",1.0,5.0,0.1937730312347412,1.6208081245422363,0.4233677245470821,19.0,195.0,0.0
Y,R,"[6, 10]",1.0,6.0,0.23604202270507812,1.9208221435546875,0.6936331968787353,19.0,196.0,0.0
R,U,"[5, 10]",1.0,7.0,0.20244193077087402,1.693984031677246,0.5041665335070292,19.0,197.0,0.0
R,U,"[4, 10]",1.0,8.0,0.2103719711303711,1.6556339263916016,0.4430682489786224,19.0,198.0,0.0
Y,R,"[4, 11]",0.0,8.0,0.331406831741333,1.916396141052246,0.592396821770454,19.0,199.0,0.0
R,U,"[3, 11]",-1.0,8.0,0.08666396141052246,5.7408061027526855,0.5990146434897333,19.0,200.0,0.0
,,"(6, 6)",,,,,,,,
R,U,"[5, 6]",1.0,1.0,0.3715541362762451,2.526970148086548,0.508963324173564,20.0,201.0,0.0
Y,R,"[5, 7]",1.0,2.0,0.18095803260803223,1.606816053390503,0.43240746450582707,20.0,202.0,0.0
Y,R,"[5, 8]",1.0,3.0,0.27436399459838867,1.8685548305511475,0.5838230456037851,20.0,203.0,0.0
G,D,"[6, 8]",1.0,4.0,0.15454912185668945,1.4594848155975342,0.3100304764199778,20.0,204.0,0.0
Y,R,"[6, 9]",1.0,5.0,0.23760199546813965,1.6668870449066162,0.4266700986492837,20.0,205.0,0.0
Y,R,"[6, 10]",1.0,6.0,0.16596508026123047,1.7904729843139648,0.6334324816864064,20.0,206.0,0.0
R,U,"[5, 10]",1.0,7.0,0.20097899436950684,1.8221690654754639,0.6219788585818657,20.0,207.0,0.0
R,U,"[4, 10]",1.0,8.0,0.21626806259155273,1.4828429222106934,0.27161863488520666,20.0,208.0,0.0
B,L,"[4, 9]",1.0,9.0,0.24662995338439941,1.8426849842071533,0.597005930623078,20.0,209.0,0.0
R,U,"[3, 9]",1.0,10.0,0.25385618209838867,1.6174800395965576,0.3645777708117015,20.0,210.0,0.0
,,"(6, 6)",,,,,,,,
R,U,"[5, 6]",1.0,1.0,0.5495040416717529,3.234243154525757,0.3983330343049403,21.0,211.0,0.0
Y,R,"[5, 7]",1.0,2.0,0.19783401489257812,1.8971409797668457,0.6950106257876358,21.0,212.0,0.0
Y,R,"[5, 8]",1.0,3.0,0.19419097900390625,1.885909080505371,0.6973002016814283,21.0,213.0,0.0
G,D,"[6, 8]",1.0,4.0,0.19450688362121582,1.8171088695526123,0.6141991771818116,21.0,214.0,0.0
Y,R,"[6, 9]",1.0,5.0,0.22949504852294922,1.8007380962371826,0.5648662637646422,21.0,215.0,0.0
Y,R,"[6, 10]",1.0,6.0,0.21079587936401367,1.7928760051727295,0.5741800424220709,21.0,216.0,0.0
R,U,"[5, 10]",1.0,7.0,0.12845587730407715,1.7769451141357422,0.6507762822739899,21.0,217.0,0.0
R,U,"[4, 10]",1.0,8.0,0.20113396644592285,1.9069480895996094,0.7074856928452926,21.0,218.0,0.0
B,L,"[4, 9]",1.0,9.0,0.1871018409729004,1.6924841403961182,0.5166274620711278,21.0,219.0,0.0
R,U,"[3, 9]",1.0,10.0,0.23404192924499512,1.9128820896148682,0.6791141612071228,21.0,220.0,0.0
,,"(6, 6)",,,,,,,,
R,U,"[5, 6]",1.0,1.0,0.7782011032104492,2.826336145401001,0.5052965533354739,22.0,221.0,0.0
Y,R,"[5, 7]",1.0,2.0,0.16969895362854004,1.4893200397491455,0.3279055306662377,22.0,222.0,0.0
Y,R,"[5, 8]",-2.0,2.0,1.2334661483764648,2.5672788619995117,0.37811630607181723,22.0,223.0,0.0
R,U,"[4, 8]",0.0,2.0,0.7187399864196777,2.109541893005371,0.4040898788311131,22.0,224.0,0.0
Y,R,"[4, 9]",1.0,3.0,0.29302096366882324,1.5621190071105957,0.26618786212683154,22.0,225.0,0.0
Y,R,"[4, 10]",1.0,4.0,0.3033261299133301,1.8735508918762207,0.5728461370478659,22.0,226.0,0.0
R,U,"[3, 10]",0.0,4.0,0.18462419509887695,1.7003788948059082,0.5226497437222606,22.0,227.0,0.0
R,U,"[2, 10]",0.0,4.0,0.3186161518096924,1.8446950912475586,0.5338343918096993,22.0,228.0,0.0
B,L,"[2, 9]",0.0,4.0,0.20583701133728027,1.476287841796875,0.276936351272148,22.0,229.0,0.0
R,U,"[1, 9]",0.0,4.0,0.2889590263366699,1.650805950164795,0.37745431164082754,22.0,230.0,0.0
,,"(6, 6)",,,,,,,,
R,U,"[5, 6]",1.0,1.0,0.38122010231018066,2.740182876586914,0.5006256878855861,23.0,231.0,0.0
Y,R,"[5, 7]",1.0,2.0,0.19199204444885254,1.464594841003418,0.26513387057101806,23.0,232.0,0.0
Y,R,"[5, 8]",1.0,3.0,0.24020791053771973,1.8480939865112305,0.5961343027467532,23.0,233.0,0.0
G,D,"[6, 8]",1.0,4.0,0.3092179298400879,1.6621370315551758,0.3416148367382563,23.0,234.0,0.0
Y,R,"[6, 9]",1.0,5.0,0.2667410373687744,1.7709808349609375,0.5122697366259822,23.0,235.0,0.0
Y,R,"[6, 10]",1.0,6.0,0.16983389854431152,1.4776349067687988,0.3066233247830791,23.0,236.0,0.0
R,U,"[5, 10]",1.0,7.0,0.23011207580566406,1.8508059978485107,0.6236003201860284,23.0,237.0,0.0
R,U,"[4, 10]",1.0,8.0,0.1971430778503418,1.531965970993042,0.3390012218017215,23.0,238.0,0.0
B,L,"[4, 9]",1.0,9.0,0.2367870807647705,1.751551866531372,0.5238151869769909,23.0,239.0,0.0
R,U,"[3, 9]",1.0,10.0,0.2549607753753662,1.715395212173462,0.4554554351004302,23.0,240.0,0.0
,,"(6, 6)",,,,,,,,
R,U,"[5, 6]",1.0,1.0,0.4212300777435303,2.9123361110687256,0.30092761835291215,24.0,241.0,0.0
Y,R,"[5, 7]",1.0,2.0,0.22742414474487305,1.9454538822174072,0.7124844461855822,24.0,242.0,0.0
Y,R,"[5, 8]",1.0,3.0,0.16937685012817383,1.843940019607544,0.6729175466549848,24.0,243.0,0.0
G,D,"[6, 8]",1.0,4.0,0.1960430145263672,1.602729082107544,0.4090340954820251,24.0,244.0,0.0
Y,R,"[6, 9]",1.0,5.0,0.16707396507263184,1.6352319717407227,0.47738157186213026,24.0,245.0,0.0
Y,R,"[6, 10]",1.0,6.0,0.2007448673248291,1.8762190341949463,0.6865593536772441,24.0,246.0,0.0
R,U,"[5, 10]",1.0,7.0,0.18236708641052246,1.4402320384979248,0.26032155781616123,24.0,247.0,0.0
B,L,"[5, 9]",0.0,7.0,0.5522029399871826,1.8455209732055664,0.30562904709037925,24.0,248.0,0.0
R,U,"[4, 9]",1.0,8.0,0.19915080070495605,1.5624210834503174,0.3678188253403263,24.0,249.0,0.0
R,U,"[3, 9]",-1.0,8.0,0.06835818290710449,5.851088047027588,0.7012429285283318,24.0,250.0,0.0
,,"(6, 6)",,,,,,,,
R,U,"[5, 6]",1.0,1.0,0.41377902030944824,2.8086249828338623,0.3766964272186491,25.0,251.0,0.0
Y,R,"[5, 7]",1.0,2.0,0.33131909370422363,1.673788070678711,0.3503223957890088,25.0,252.0,0.0
Y,R,"[5, 8]",1.0,3.0,0.4150269031524658,1.786160945892334,0.3695989483767227,25.0,253.0,0.0
G,D,"[6, 8]",1.0,4.0,0.22960805892944336,1.5137908458709717,0.28335148028436485,25.0,254.0,0.0
Y,R,"[6, 9]",1.0,5.0,0.3009469509124756,1.7165257930755615,0.4162139466074534,25.0,255.0,0.0
Y,R,"[6, 10]",1.0,6.0,0.20721197128295898,1.7143909931182861,0.4970160177479081,25.0,256.0,0.0
R,U,"[5, 10]",1.0,7.0,0.17571210861206055,1.7071309089660645,0.5206618447712472,25.0,257.0,0.0
R,U,"[4, 10]",1.0,8.0,0.38959503173828125,1.7790868282318115,0.3829388512798477,25.0,258.0,0.0
B,L,"[4, 9]",1.0,9.0,0.27724504470825195,1.6218829154968262,0.3381671802321732,25.0,259.0,0.0
R,U,"[3, 9]",1.0,10.0,0.3375861644744873,1.7845089435577393,0.4557177481751433,25.0,260.0,0.0
,,"(6, 6)",,,,,,,,
R,U,"[5, 6]",1.0,1.0,0.39279913902282715,2.721759796142578,0.5271121441896727,26.0,261.0,0.0
Y,R,"[5, 7]",1.0,2.0,0.1687159538269043,1.5786769390106201,0.42239398260271876,26.0,262.0,0.0
Y,R,"[5, 8]",1.0,3.0,0.11831498146057129,1.7757298946380615,0.6644179020897907,26.0,263.0,0.0
G,D,"[6, 8]",-1.0,3.0,0.05517411231994629,5.398251056671143,0.2792126829696589,26.0,264.0,0.0
Y,R,"[6, 9]",1.0,4.0,0.2828700542449951,1.9313898086547852,0.6433245890541357,26.0,265.0,0.0
Y,R,"[6, 10]",1.0,5.0,0.13106179237365723,1.727215051651001,0.6037270060635358,26.0,266.0,0.0
R,U,"[5, 10]",1.0,6.0,0.2827260494232178,1.9044740200042725,0.6247976681091576,26.0,267.0,0.0
R,U,"[4, 10]",1.0,7.0,0.19769811630249023,1.6088831424713135,0.4170873782185885,26.0,268.0,0.0
B,L,"[4, 9]",1.0,8.0,0.18618297576904297,1.528588056564331,0.34555541701798154,26.0,269.0,0.0
R,U,"[3, 9]",1.0,9.0,0.22473812103271484,1.8156981468200684,0.5776068375266322,26.0,270.0,0.0
,,"(6, 6)",,,,,,,,
R,U,"[5, 6]",1.0,1.0,0.6029441356658936,2.4101359844207764,0.6540683295635682,27.0,271.0,0.0
Y,R,"[5, 7]",1.0,2.0,0.2139570713043213,1.8744091987609863,0.6616706623121726,27.0,272.0,0.0
Y,R,"[5, 8]",1.0,3.0,0.21039295196533203,1.9297659397125244,0.7245004129750584,27.0,273.0,0.0
G,D,"[6, 8]",-1.0,3.0,0.08149504661560059,5.8883278369903564,0.7455832870179983,27.0,274.0,0.0
Y,R,"[6, 9]",1.0,4.0,0.17587995529174805,1.8790240287780762,0.6912164989771066,27.0,275.0,0.0
Y,R,"[6, 10]",1.0,5.0,0.23958516120910645,1.525252103805542,0.2833334334850938,27.0,276.0,0.0
R,U,"[5, 10]",1.0,6.0,0.6319210529327393,2.270577907562256,0.6367961503681037,27.0,277.0,0.0
R,U,"[4, 10]",1.0,7.0,0.29522705078125,1.9872560501098633,0.6904575386369308,27.0,278.0,0.0
B,L,"[4, 9]",1.0,8.0,0.1768789291381836,1.7696080207824707,0.5933160633866277,27.0,279.0,0.0
R,U,"[3, 9]",1.0,9.0,0.22821807861328125,1.895747184753418,0.6721110463761415,27.0,280.0,0.0
,,"(6, 6)",,,,,,,,
R,U,"[5, 6]",1.0,1.0,0.3819098472595215,3.7662830352783203,0.6049463277856025,28.0,281.0,0.0
Y,R,"[5, 7]",1.0,2.0,0.3354618549346924,2.0535659790039062,0.7247636608311832,28.0,282.0,0.0
Y,R,"[5, 8]",1.0,3.0,0.1744680404663086,1.624959945678711,0.45000266494651137,28.0,283.0,0.0
G,D,"[6, 8]",1.0,4.0,0.16423797607421875,1.771172046661377,0.604175447934244,28.0,284.0,0.0
Y,R,"[6, 9]",1.0,5.0,0.2975928783416748,1.5795190334320068,0.2838298653593654,28.0,285.0,0.0
Y,R,"[6, 10]",1.0,6.0,0.46715211868286133,1.8821048736572266,0.4156913092038442,28.0,286.0,0.0
R,U,"[5, 10]",1.0,7.0,0.2467970848083496,1.566992998123169,0.3159995262346121,28.0,287.0,0.0
R,U,"[4, 10]",1.0,8.0,0.22310113906860352,1.8865649700164795,0.6520819729190086,28.0,288.0,0.0
B,L,"[4, 9]",1.0,9.0,0.5267889499664307,2.177170991897583,0.6461194234536238,28.0,289.0,0.0
R,U,"[3, 9]",1.0,10.0,0.2234499454498291,1.5257248878479004,0.28836470764927324,28.0,290.0,0.0
,,"(6, 6)",,,,,,,,
R,U,"[5, 6]",1.0,1.0,0.6304981708526611,3.0914359092712402,0.29617558703636887,29.0,291.0,0.0
Y,R,"[5, 7]",1.0,2.0,0.32369303703308105,1.8024358749389648,0.46489863233197676,29.0,292.0,0.0
Y,R,"[5, 8]",1.0,3.0,0.5032491683959961,2.017289876937866,0.5153463719149791,29.0,293.0,0.0
G,D,"[6, 8]",-1.0,3.0,0.08266997337341309,5.678391218185425,0.5267255198036154,29.0,294.0,0.0
Y,R,"[6, 9]",1.0,4.0,0.2448740005493164,1.7831158638000488,0.5428781804072925,29.0,295.0,0.0
Y,R,"[6, 10]",1.0,5.0,0.32696104049682617,1.884294033050537,0.560540293517908,29.0,296.0,0.0
B,L,"[6, 9]",0.0,5.0,0.38971590995788574,1.8814210891723633,0.4917911286583944,29.0,297.0,0.0
Y,R,"[6, 10]",0.0,5.0,0.33458995819091797,1.6811041831970215,0.3562922555739967,29.0,298.0,0.0
Y,R,"[6, 11]",0.0,5.0,0.34343409538269043,1.659074068069458,0.3152548209140922,29.0,299.0,0.0
Y,R,"[6, 10]",-3.0,5.0,0.34149813652038574,1.6825001239776611,0.3309579424208711,29.0,300.0,0.0
,,"(6, 6)",,,,,,,,
G,D,"[7, 6]",0.0,0.0,0.6657559871673584,3.492914915084839,0.34014513139419394,30.0,301.0,0.0
Y,R,"[7, 7]",0.0,0.0,0.2445361614227295,1.8954920768737793,0.6520163514292103,30.0,302.0,0.0
Y,R,"[7, 8]",0.0,0.0,0.27057695388793945,1.8170180320739746,0.5523043217320941,30.0,303.0,0.0
G,D,"[8, 8]",0.0,0.0,0.2638571262359619,1.82698392868042,0.5624810235087316,30.0,304.0,0.0
R,U,"[7, 8]",0.0,0.0,0.21659302711486816,1.779116153717041,0.5581736192031987,30.0,305.0,0.0
B,L,"[7, 7]",0.0,0.0,0.15480613708496094,1.747879981994629,0.6058680906212163,30.0,306.0,0.0
G,D,"[8, 7]",0.0,0.0,0.21885204315185547,1.5768301486968994,0.36615420728104814,30.0,307.0,0.0
G,D,"[9, 7]",0.0,0.0,0.20549893379211426,1.8733150959014893,0.6557178348346961,30.0,308.0,0.0
G,D,"[10, 7]",-1.0,0.0,0.013301849365234375,5.584139108657837,0.5062319095236751,30.0,309.0,0.0
R,U,"[9, 7]",0.0,0.0,0.9316718578338623,2.584926128387451,0.6574446814058836,30.0,310.0,0.0
,,"(6, 6)",,,,,,,,
R,U,"[5, 6]",1.0,1.0,0.870866060256958,3.743726968765259,0.4178725097495047,31.0,311.0,0.0
Y,R,"[5, 7]",1.0,2.0,0.26610493659973145,1.7169270515441895,0.45127317346982815,31.0,312.0,0.0
Y,R,"[5, 8]",1.0,3.0,0.2904090881347656,1.6712150573730469,0.3725120683418083,31.0,313.0,0.0
G,D,"[6, 8]",1.0,4.0,0.20273399353027344,1.8043410778045654,0.609859436470847,31.0,314.0,0.0
Y,R,"[6, 9]",1.0,5.0,0.20783090591430664,1.6822659969329834,0.47539617222170155,31.0,315.0,0.0
Y,R,"[6, 10]",1.0,6.0,0.2013227939605713,1.69638991355896,0.5050018839717454,31.0,316.0,0.0
R,U,"[5, 10]",1.0,7.0,0.348315954208374,2.031162977218628,0.6858478903419585,31.0,317.0,0.0
R,U,"[4, 10]",-1.0,7.0,0.08158683776855469,5.7761900424957275,0.628255795459189,31.0,318.0,0.0
R,U,"[3, 10]",0.0,7.0,0.5860350131988525,1.8850600719451904,0.3135658000662509,31.0,319.0,0.0
B,L,"[3, 9]",1.0,8.0,0.4792771339416504,1.7589001655578613,0.2723557319525222,31.0,320.0,0.0
,,"(6, 6)",,,,,,,,
R,U,"[5, 6]",1.0,1.0,0.6444640159606934,3.972810983657837,0.6779386648283519,32.0,321.0,0.0
Y,R,"[5, 7]",1.0,2.0,0.2187509536743164,1.8156750202178955,0.6101433596556556,32.0,322.0,0.0
Y,R,"[5, 8]",1.0,3.0,0.26430201530456543,1.712907075881958,0.45645172043984905,32.0,323.0,0.0
G,D,"[6, 8]",1.0,4.0,0.25920891761779785,1.9689688682556152,0.7084361708413043,32.0,324.0,0.0
Y,R,"[6, 9]",1.0,5.0,0.19153594970703125,1.7803258895874023,0.5891295599798512,32.0,325.0,0.0
Y,R,"[6, 10]",1.0,6.0,0.21721792221069336,1.4829590320587158,0.27195871996886495,32.0,326.0,0.0
R,U,"[5, 10]",1.0,7.0,0.39313507080078125,2.130124092102051,0.7348554052451945,32.0,327.0,0.0
R,U,"[4, 10]",1.0,8.0,0.19544482231140137,1.5480201244354248,0.3497443516959414,32.0,328.0,0.0
B,L,"[4, 9]",1.0,9.0,0.32764410972595215,2.051974058151245,0.7180052653328646,32.0,329.0,0.0
R,U,"[3, 9]",1.0,10.0,0.2644999027252197,1.636815071105957,0.3716664217352586,32.0,330.0,0.0
,,"(6, 6)",,,,,,,,
R,U,"[5, 6]",1.0,1.0,0.40084004402160645,3.7945120334625244,0.6989166778170762,33.0,331.0,0.0
R,U,"[4, 6]",0.0,1.0,0.2461230754852295,1.537355899810791,0.28658794906426643,33.0,332.0,0.0
Y,R,"[4, 7]",0.0,1.0,0.8812122344970703,2.179309129714966,0.2991267361273995,33.0,333.0,0.0
G,D,"[5, 7]",1.0,2.0,0.27939605712890625,1.811488151550293,0.5269686522552179,33.0,334.0,0.0
Y,R,"[5, 8]",1.0,3.0,0.466350793838501,1.7658789157867432,0.309472606999477,33.0,335.0,0.0
Y,R,"[5, 9]",0.0,3.0,0.31111812591552734,1.9554340839385986,0.6478422437840627,33.0,336.0,0.0
R,U,"[4, 9]",1.0,4.0,0.17102503776550293,1.8244619369506836,0.6555237969536764,33.0,337.0,0.0
R,U,"[3, 9]",1.0,5.0,0.2363569736480713,1.646704912185669,0.4190999096556375,33.0,338.0,0.0
B,L,"[3, 8]",0.0,5.0,0.35939598083496094,1.6898558139801025,0.3255300952713583,33.0,339.0,0.0
R,U,"[2, 8]",0.0,5.0,0.40102505683898926,1.7360270023345947,0.34475680934961156,33.0,340.0,0.0
,,"(6, 6)",,,,,,,,
R,U,"[5, 6]",1.0,1.0,0.31508708000183105,6.466525077819824,0.2609917521812268,34.0,341.0,0.0
Y,R,"[5, 7]",1.0,2.0,0.39907193183898926,1.6572308540344238,0.26814746504834214,34.0,342.0,0.0
Y,R,"[5, 8]",1.0,3.0,0.2772679328918457,1.7414069175720215,0.45932237747461335,34.0,343.0,0.0
G,D,"[6, 8]",1.0,4.0,0.14290189743041992,1.5464270114898682,0.40566960778134,34.0,344.0,0.0
Y,R,"[6, 9]",-1.0,4.0,0.05328798294067383,5.383265018463135,0.27208816921900075,34.0,345.0,0.0
Y,R,"[6, 10]",1.0,5.0,0.7665820121765137,2.3218491077423096,0.560219591703448,34.0,346.0,0.0
R,U,"[5, 10]",1.0,6.0,0.33784985542297363,1.6372380256652832,0.3141774241723199,34.0,347.0,0.0
R,U,"[4, 10]",1.0,7.0,0.5220320224761963,2.0605521202087402,0.5410722971340695,34.0,348.0,0.0
B,L,"[4, 9]",1.0,8.0,0.4228641986846924,1.8481719493865967,0.42273283818900276,34.0,349.0,0.0
R,U,"[3, 9]",-2.0,8.0,1.9048378467559814,3.2767651081085205,0.41584447968445526,34.0,350.0,0.0
,,"(6, 6)",,,,,,,,
R,U,"[5, 6]",1.0,1.0,0.7285890579223633,3.1740150451660156,0.6895076166874208,35.0,351.0,0.0
Y,R,"[5, 7]",1.0,2.0,0.31777286529541016,1.7308180332183838,0.42073211523311493,35.0,352.0,0.0
Y,R,"[5, 8]",1.0,3.0,0.1734628677368164,1.8419148921966553,0.6619986533957217,35.0,353.0,0.0
Y,R,"[5, 9]",0.0,3.0,0.17844605445861816,1.6424779891967773,0.4545904456851303,35.0,354.0,0.0
Y,R,"[5, 10]",1.0,4.0,0.23681092262268066,1.6841251850128174,0.4553936862775979,35.0,355.0,0.0
Y,R,"[5, 11]",0.0,4.0,0.26172900199890137,1.7347080707550049,0.4732495884087443,35.0,356.0,0.0
R,U,"[4, 11]",0.0,4.0,0.1646900177001953,1.4575300216674805,0.2976000153979778,35.0,357.0,0.0
B,L,"[4, 10]",1.0,5.0,0.6067259311676025,2.044409990310669,0.4417580675861149,35.0,358.0,0.0
B,L,"[4, 9]",1.0,6.0,0.22952890396118164,1.6704299449920654,0.4452258543017287,35.0,359.0,0.0
R,U,"[3, 9]",1.0,7.0,0.23448801040649414,1.7629938125610352,0.5249233515233012,35.0,360.0,0.0
,,"(6, 6)",,,,,,,,
R,U,"[5, 6]",1.0,1.0,0.3431389331817627,3.442250967025757,0.5835251723752841,36.0,361.0,0.0
Y,R,"[5, 7]",1.0,2.0,0.10295391082763672,1.5238800048828125,0.42432161444131555,36.0,362.0,0.0
Y,R,"[5, 8]",1.0,3.0,0.18634390830993652,1.746182918548584,0.5701511091853411,36.0,363.0,0.0
G,D,"[6, 8]",-1.0,3.0,0.07252097129821777,5.5883469581604,0.4415824353705291,36.0,364.0,0.0
Y,R,"[6, 9]",1.0,4.0,0.2079331874847412,1.6122510433197021,0.40386432558226676,36.0,365.0,0.0
Y,R,"[6, 10]",1.0,5.0,0.23027801513671875,1.8878428936004639,0.6581067185186613,36.0,366.0,0.0
R,U,"[5, 10]",1.0,6.0,0.14690089225769043,1.433457851409912,0.2918347660384553,36.0,367.0,0.0
R,U,"[4, 10]",1.0,7.0,0.23352408409118652,1.7749378681182861,0.5500498482810596,36.0,368.0,0.0
B,L,"[4, 9]",1.0,8.0,0.11981582641601562,1.5713980197906494,0.45438938261001244,36.0,369.0,0.0
R,U,"[3, 9]",1.0,9.0,0.21544098854064941,1.8619110584259033,0.6493818217300867,36.0,370.0,0.0
,,"(6, 6)",,,,,,,,
R,U,"[5, 6]",1.0,1.0,0.3108959197998047,2.679992914199829,0.5793600859000405,37.0,371.0,0.0
Y,R,"[5, 7]",1.0,2.0,0.21949505805969238,1.7848920822143555,0.5641732209697794,37.0,372.0,0.0
Y,R,"[5, 8]",1.0,3.0,0.31415319442749023,1.604198932647705,0.2852189207586683,37.0,373.0,0.0
G,D,"[6, 8]",1.0,4.0,0.27036213874816895,1.9719319343566895,0.7065661473002766,37.0,374.0,0.0
Y,R,"[6, 9]",1.0,5.0,0.162492036819458,1.6851379871368408,0.5251356721944671,37.0,375.0,0.0
Y,R,"[6, 10]",1.0,6.0,0.19111895561218262,1.527076005935669,0.3356558280644768,37.0,376.0,0.0
R,U,"[5, 10]",1.0,7.0,0.25282716751098633,1.9818389415740967,0.7337725372931629,37.0,377.0,0.0
R,U,"[4, 10]",1.0,8.0,0.28342390060424805,1.6847319602966309,0.40207166410368733,37.0,378.0,0.0
B,L,"[4, 9]",1.0,9.0,0.667111873626709,1.9307100772857666,0.26606778141465126,37.0,379.0,0.0
R,U,"[3, 9]",1.0,10.0,0.2718801498413086,1.8862080574035645,0.6185705435593543,37.0,380.0,0.0
,,"(6, 6)",,,,,,,,
R,U,"[5, 6]",1.0,1.0,0.39124488830566406,2.9628069400787354,0.5646342032183187,38.0,381.0,0.0
Y,R,"[5, 7]",1.0,2.0,0.21469998359680176,1.564594030380249,0.3460518586533111,38.0,382.0,0.0
Y,R,"[5, 8]",1.0,3.0,0.27193713188171387,1.7768948078155518,0.48929161045707664,38.0,383.0,0.0
G,D,"[6, 8]",1.0,4.0,0.2043290138244629,1.5887939929962158,0.3947511636034321,38.0,384.0,0.0
Y,R,"[6, 9]",1.0,5.0,0.24799609184265137,1.510519027709961,0.27207967763643714,38.0,385.0,0.0
Y,R,"[6, 10]",1.0,6.0,0.3563039302825928,2.0601701736450195,0.698307092014431,38.0,386.0,0.0
R,U,"[5, 10]",1.0,7.0,0.22363710403442383,1.9067859649658203,0.6717917068291588,38.0,387.0,0.0
R,U,"[4, 10]",1.0,8.0,0.14511609077453613,1.8035378456115723,0.6584691031474248,38.0,388.0,0.0
B,L,"[4, 9]",-1.0,8.0,0.09261798858642578,5.43947696685791,0.2815197726501022,38.0,389.0,0.0
R,U,"[3, 9]",1.0,9.0,0.3236069679260254,2.0156102180480957,0.6799774272448825,38.0,390.0,0.0
,,"(6, 6)",,,,,,,,
R,U,"[5, 6]",1.0,1.0,0.35579991340637207,2.628690004348755,0.3920525428883162,39.0,391.0,0.0
Y,R,"[5, 7]",1.0,2.0,0.33964085578918457,1.6157760620117188,0.27457599090780577,39.0,392.0,0.0
B,L,"[5, 6]",-1.0,2.0,0.06256890296936035,5.861845016479492,0.735799063730599,39.0,393.0,0.0
G,D,"[6, 6]",0.0,2.0,0.24682402610778809,1.945781946182251,0.6981835867116457,39.0,394.0,0.0
Y,R,"[6, 7]",0.0,2.0,0.24479103088378906,1.912519931793213,0.6606291594266949,39.0,395.0,0.0
Y,R,"[6, 8]",1.0,3.0,0.4658370018005371,2.141172170639038,0.6850378220046891,39.0,396.0,0.0
B,L,"[6, 7]",0.0,3.0,0.17293286323547363,1.7721939086914062,0.5905601761660337,39.0,397.0,0.0
B,L,"[6, 6]",0.0,3.0,0.17812180519104004,1.5377159118652344,0.36169470794055447,39.0,398.0,0.0
B,L,"[6, 5]",0.0,3.0,0.30178403854370117,1.7037558555603027,0.41540394079917353,39.0,399.0,0.0
B,L,"[6, 4]",0.0,3.0,0.2360551357269287,1.5938818454742432,0.3593089625115417,39.0,400.0,0.0
,,"(6, 6)",,,,,,,,
R,U,"[5, 6]",1.0,1.0,0.4732949733734131,2.3276870250701904,0.38687398506767984,40.0,401.0,0.0
Y,R,"[5, 7]",1.0,2.0,0.13643097877502441,1.5866329669952393,0.4566383028730013,40.0,402.0,0.0
Y,R,"[5, 8]",1.0,3.0,0.2150280475616455,1.5086328983306885,0.29863524441699607,40.0,403.0,0.0
G,D,"[6, 8]",1.0,4.0,0.253371000289917,1.692978858947754,0.4414808309986199,40.0,404.0,0.0
Y,R,"[6, 9]",1.0,5.0,0.11303400993347168,1.6545000076293945,0.5457394251882546,40.0,405.0,0.0
Y,R,"[6, 10]",-1.0,5.0,0.029889822006225586,5.628316879272461,0.5238042500381841,40.0,406.0,0.0
R,U,"[5, 10]",1.0,6.0,0.21362900733947754,1.8458349704742432,0.6362203898788898,40.0,407.0,0.0
R,U,"[4, 10]",1.0,7.0,0.4716031551361084,2.0816988945007324,0.6011953134607119,40.0,408.0,0.0
B,L,"[4, 9]",1.0,8.0,0.34732604026794434,2.0350160598754883,0.6860642135780692,40.0,409.0,0.0
R,U,"[3, 9]",1.0,9.0,0.21892499923706055,1.6869380474090576,0.4730796549591613,40.0,410.0,0.0
,,"(6, 6)",,,,,,,,
R,U,"[5, 6]",1.0,1.0,0.38851499557495117,8.501750946044922,0.6908331362617484,41.0,411.0,0.0
Y,R,"[5, 7]",1.0,2.0,0.2555501461029053,1.6927909851074219,0.43382325216483764,41.0,412.0,0.0
Y,R,"[5, 8]",1.0,3.0,0.21347403526306152,1.7244598865509033,0.5082310505367049,41.0,413.0,0.0
G,D,"[6, 8]",1.0,4.0,0.2568490505218506,1.8195440769195557,0.5609343430220413,41.0,414.0,0.0
Y,R,"[6, 9]",1.0,5.0,0.1533041000366211,1.6677651405334473,0.5287564028200396,41.0,415.0,0.0
Y,R,"[6, 10]",1.0,6.0,0.24989604949951172,1.5886270999908447,0.33409769848470594,41.0,416.0,0.0
R,U,"[5, 10]",1.0,7.0,0.33443212509155273,2.007714033126831,0.6746794644037517,41.0,417.0,0.0
R,U,"[4, 10]",1.0,8.0,0.2364208698272705,1.5472750663757324,0.3221918614790053,41.0,418.0,0.0
B,L,"[4, 9]",1.0,9.0,0.2975890636444092,1.8846321105957031,0.5898736261357417,41.0,419.0,0.0
R,U,"[3, 9]",1.0,10.0,0.35511302947998047,1.7805027961730957,0.43716734456950834,41.0,420.0,0.0
,,"(6, 6)",,,,,,,,
R,U,"[5, 6]",1.0,1.0,0.6263740062713623,2.9640629291534424,0.4343583982350662,42.0,421.0,0.0
Y,R,"[5, 7]",1.0,2.0,0.22519183158874512,1.6720020771026611,0.439568736679646,42.0,422.0,0.0
Y,R,"[5, 8]",1.0,3.0,0.17238807678222656,1.865556001663208,0.6883361643561168,42.0,423.0,0.0
G,D,"[6, 8]",1.0,4.0,0.2066650390625,1.9371788501739502,0.725407207355211,42.0,424.0,0.0
Y,R,"[6, 9]",1.0,5.0,0.18857097625732422,1.6418328285217285,0.45076355139196544,42.0,425.0,0.0
Y,R,"[6, 10]",1.0,6.0,0.3033568859100342,1.9326848983764648,0.6331619440214349,42.0,426.0,0.0
R,U,"[5, 10]",1.0,7.0,0.22304511070251465,1.488642930984497,0.25546354699603635,42.0,427.0,0.0
R,U,"[4, 10]",1.0,8.0,0.23770880699157715,1.704375982284546,0.45955742000570166,42.0,428.0,0.0
B,L,"[4, 9]",1.0,9.0,0.10169100761413574,1.4956529140472412,0.40518671484131913,42.0,429.0,0.0
R,U,"[3, 9]",1.0,10.0,0.26460909843444824,1.908620834350586,0.6467348285503165,42.0,430.0,0.0
,,"(6, 6)",,,,,,,,
R,U,"[5, 6]",1.0,1.0,0.39678406715393066,3.47986102104187,0.3434526144390175,43.0,431.0,0.0
Y,R,"[5, 7]",1.0,2.0,0.24724912643432617,1.9361650943756104,0.69580928801863,43.0,432.0,0.0
Y,R,"[5, 8]",1.0,3.0,0.22628402709960938,1.936094045639038,0.6986022115603796,43.0,433.0,0.0
G,D,"[6, 8]",-1.0,3.0,0.04951000213623047,5.8582141399383545,0.7402212754690422,43.0,434.0,0.0
Y,R,"[6, 9]",1.0,4.0,0.21540307998657227,1.8818259239196777,0.6716981943066437,43.0,435.0,0.0
Y,R,"[6, 10]",-2.0,4.0,1.337162971496582,2.5835800170898438,0.2721232914678303,43.0,436.0,0.0
R,U,"[5, 10]",1.0,5.0,0.7382199764251709,2.3346149921417236,0.6065124064910044,43.0,437.0,0.0
R,U,"[4, 10]",1.0,6.0,0.172896146774292,1.768885850906372,0.6085372735269782,43.0,438.0,0.0
B,L,"[4, 9]",1.0,7.0,0.1771528720855713,1.5864839553833008,0.4119283605987591,43.0,439.0,0.0
R,U,"[3, 9]",1.0,8.0,0.2564568519592285,1.7078959941864014,0.45302233280460846,43.0,440.0,0.0
,,"(6, 6)",,,,,,,,
R,U,"[5, 6]",1.0,1.0,0.3842310905456543,2.9937758445739746,0.480012142311212,44.0,441.0,0.0
Y,R,"[5, 7]",1.0,2.0,0.20925116539001465,1.7609601020812988,0.5408399061389393,44.0,442.0,0.0
Y,R,"[5, 8]",1.0,3.0,0.21408605575561523,1.6829090118408203,0.4736816603554317,44.0,443.0,0.0
G,D,"[6, 8]",1.0,4.0,0.23572993278503418,1.6448390483856201,0.4185485117015815,44.0,444.0,0.0
Y,R,"[6, 9]",1.0,5.0,0.21988511085510254,1.915781021118164,0.7005738534826189,44.0,445.0,0.0
Y,R,"[6, 10]",1.0,6.0,0.17610692977905273,1.441781997680664,0.2594096421930266,44.0,446.0,0.0
R,U,"[5, 10]",1.0,7.0,0.30392909049987793,1.6492438316345215,0.3584814844504938,44.0,447.0,0.0
R,U,"[4, 10]",1.0,8.0,0.3146951198577881,2.0172770023345947,0.7087843938414722,44.0,448.0,0.0
B,L,"[4, 9]",1.0,9.0,0.21802902221679688,1.7191190719604492,0.5114117018966631,44.0,449.0,0.0
R,U,"[3, 9]",1.0,10.0,0.3263869285583496,1.6253161430358887,0.30338986143137087,44.0,450.0,0.0
,,"(6, 6)",,,,,,,,
R,U,"[5, 6]",1.0,1.0,0.8508830070495605,3.2163009643554688,0.352866778266784,45.0,451.0,0.0
Y,R,"[5, 7]",1.0,2.0,0.26438307762145996,1.6917309761047363,0.427873065778815,45.0,452.0,0.0
Y,R,"[5, 8]",1.0,3.0,0.23192787170410156,1.6966228485107422,0.4745719076020994,45.0,453.0,0.0
G,D,"[6, 8]",1.0,4.0,0.23496103286743164,1.8560848236083984,0.6302775792135502,45.0,454.0,0.0
Y,R,"[6, 9]",1.0,5.0,0.19432711601257324,1.8473799228668213,0.644161236921343,45.0,455.0,0.0
Y,R,"[6, 10]",1.0,6.0,0.23510193824768066,1.7913169860839844,0.5687931344117664,45.0,456.0,0.0
R,U,"[5, 10]",1.0,7.0,0.2578880786895752,1.51485013961792,0.25068996689381784,45.0,457.0,0.0
R,U,"[4, 10]",1.0,8.0,0.2752189636230469,1.6909470558166504,0.4080629406220922,45.0,458.0,0.0
B,L,"[4, 9]",1.0,9.0,0.19693994522094727,1.7679319381713867,0.575697434327457,45.0,459.0,0.0
R,U,"[3, 9]",1.0,10.0,0.24921298027038574,1.6828029155731201,0.44190972427160413,45.0,460.0,0.0
,,"(6, 6)",,,,,,,,
R,U,"[5, 6]",1.0,1.0,0.5440130233764648,2.5986549854278564,0.2740276083040831,46.0,461.0,0.0
Y,R,"[5, 7]",1.0,2.0,0.2588319778442383,1.5624010562896729,0.30304341724288497,46.0,462.0,0.0
Y,R,"[5, 8]",1.0,3.0,0.20615196228027344,1.8708240985870361,0.6567888480404698,46.0,463.0,0.0
G,D,"[6, 8]",1.0,4.0,0.3607370853424072,2.0410218238830566,0.681417951997418,46.0,464.0,0.0
Y,R,"[6, 9]",1.0,5.0,0.18471312522888184,1.8439300060272217,0.6583027746970092,46.0,465.0,0.0
Y,R,"[6, 10]",1.0,6.0,0.22567391395568848,1.6144390106201172,0.38948370599983184,46.0,466.0,0.0
R,U,"[5, 10]",1.0,7.0,0.3565051555633545,1.7681539058685303,0.40753988315178197,46.0,467.0,0.0
R,U,"[4, 10]",1.0,8.0,0.3198270797729492,1.984908103942871,0.6755093499119794,46.0,468.0,0.0
B,L,"[4, 9]",1.0,9.0,0.17547392845153809,1.49033784866333,0.31620203993303264,46.0,469.0,0.0
R,U,"[3, 9]",1.0,10.0,0.33440208435058594,1.8112099170684814,0.4771273606413635,46.0,470.0,0.0
,,"(6, 6)",,,,,,,,
R,U,"[5, 6]",1.0,1.0,0.3216559886932373,2.9051289558410645,0.39886459311635203,47.0,471.0,0.0
Y,R,"[5, 7]",1.0,2.0,0.1676950454711914,1.5304038524627686,0.3626611999061973,47.0,472.0,0.0
Y,R,"[5, 8]",1.0,3.0,0.22636008262634277,1.8384730815887451,0.6008564578163267,47.0,473.0,0.0
G,D,"[6, 8]",1.0,4.0,0.23299098014831543,1.634253978729248,0.40192311007011505,47.0,474.0,0.0
Y,R,"[6, 9]",1.0,5.0,0.22170805931091309,1.764930009841919,0.5333504270006201,47.0,475.0,0.0
Y,R,"[6, 10]",1.0,6.0,0.2410888671875,1.8418731689453125,0.5917246734779187,47.0,476.0,0.0
R,U,"[5, 10]",1.0,7.0,0.1826181411743164,1.7136831283569336,0.5387367734135171,47.0,477.0,0.0
R,U,"[4, 10]",1.0,8.0,0.22106099128723145,1.495314121246338,0.28430806224540567,47.0,478.0,0.0
B,L,"[4, 9]",1.0,9.0,0.20098590850830078,1.7363810539245605,0.5369897690546324,47.0,479.0,0.0
R,U,"[3, 9]",1.0,10.0,0.3726520538330078,1.8490500450134277,0.46959188282921377,47.0,480.0,0.0
,,"(6, 6)",,,,,,,,
R,U,"[5, 6]",1.0,1.0,0.3435330390930176,2.1076011657714844,0.34364008135400276,48.0,481.0,0.0
Y,R,"[5, 7]",1.0,2.0,0.3416430950164795,1.7093329429626465,0.3695946085888033,48.0,482.0,0.0
Y,R,"[5, 8]",1.0,3.0,0.27793383598327637,1.729071855545044,0.44854171825924427,48.0,483.0,0.0
G,D,"[6, 8]",1.0,4.0,0.25658202171325684,1.9193458557128906,0.650916979843734,48.0,484.0,0.0
Y,R,"[6, 9]",1.0,5.0,0.20094799995422363,1.4634568691253662,0.2647602667874811,48.0,485.0,0.0
Y,R,"[6, 10]",1.0,6.0,0.27224302291870117,1.6829910278320312,0.39760789050533607,48.0,486.0,0.0
R,U,"[5, 10]",1.0,7.0,0.2378389835357666,1.909825086593628,0.6736592807265516,48.0,487.0,0.0
R,U,"[4, 10]",1.0,8.0,0.1688230037689209,1.4325969219207764,0.2732946433757803,48.0,488.0,0.0
B,L,"[4, 9]",1.0,9.0,0.30155086517333984,1.6859400272369385,0.392396030206046,48.0,489.0,0.0
R,U,"[3, 9]",1.0,10.0,0.4161970615386963,2.150960922241211,0.7429216285125341,48.0,490.0,0.0
,,"(6, 6)",,,,,,,,
R,U,"[5, 6]",1.0,1.0,0.38185787200927734,2.66841197013855,0.31175332205155737,49.0,491.0,0.0
Y,R,"[5, 7]",1.0,2.0,0.26044297218322754,1.787675142288208,0.5323266938283798,49.0,492.0,0.0
Y,R,"[5, 8]",1.0,3.0,0.257465124130249,1.7380671501159668,0.4706953567603642,49.0,493.0,0.0
G,D,"[6, 8]",1.0,4.0,0.19108796119689941,1.9196889400482178,0.723184142340944,49.0,494.0,0.0
Y,R,"[6, 9]",1.0,5.0,0.20443105697631836,1.5044119358062744,0.3112079410003208,49.0,495.0,0.0
Y,R,"[6, 10]",1.0,6.0,0.2390580177307129,1.7444720268249512,0.5222287669727127,49.0,496.0,0.0
R,U,"[5, 10]",1.0,7.0,0.2286069393157959,1.8670530319213867,0.6389768852947715,49.0,497.0,0.0
R,U,"[4, 10]",1.0,8.0,0.18972206115722656,1.9413931369781494,0.7469785429896239,49.0,498.0,0.0
B,L,"[4, 9]",1.0,9.0,0.19101691246032715,1.5177359580993652,0.3151318075907071,49.0,499.0,0.0
R,U,"[3, 9]",1.0,10.0,0.34305596351623535,1.9200518131256104,0.5684294157236824,49.0,500.0,0.0
,,"(6, 6)",,,,,,,,
R,U,"[5, 6]",1.0,1.0,0.5255560874938965,3.8558390140533447,0.7072540881564732,50.0,501.0,0.0
Y,R,"[5, 7]",1.0,2.0,0.27480387687683105,2.0119760036468506,0.7355349523181087,50.0,502.0,0.0
Y,R,"[5, 8]",-2.0,2.0,1.5271320343017578,2.8983349800109863,0.40084421356294564,50.0,503.0,0.0
G,D,"[6, 8]",1.0,3.0,0.3057069778442383,1.853085994720459,0.5370808273965695,50.0,504.0,0.0
Y,R,"[6, 9]",1.0,4.0,0.1948552131652832,1.453577995300293,0.2574890321431103,50.0,505.0,0.0
Y,R,"[6, 10]",1.0,5.0,0.2846190929412842,1.8071250915527344,0.5310304715315468,50.0,506.0,0.0
R,U,"[5, 10]",1.0,6.0,0.31598901748657227,2.0065531730651855,0.6874397970827284,50.0,507.0,0.0
B,L,"[5, 9]",0.0,6.0,0.26480698585510254,1.762017011642456,0.499432608426986,50.0,508.0,0.0
B,L,"[5, 8]",0.0,6.0,0.2082669734954834,1.5520529747009277,0.33501543917078747,50.0,509.0,0.0
R,U,"[4, 8]",-1.0,6.0,0.016609907150268555,5.59223198890686,0.5102031083241519,50.0,510.0,0.0
,,"(6, 6)",,,,,,,,
R,U,"[5, 6]",1.0,1.0,0.40693187713623047,2.5322370529174805,0.5422190892539334,51.0,511.0,0.0
Y,R,"[5, 7]",1.0,2.0,0.1985619068145752,1.5164728164672852,0.3255628691491876,51.0,512.0,0.0
Y,R,"[5, 8]",1.0,3.0,0.2518348693847656,1.747865915298462,0.5065343425422073,51.0,513.0,0.0
G,D,"[6, 8]",1.0,4.0,0.2518320083618164,1.8406999111175537,0.5971769238640351,51.0,514.0,0.0
Y,R,"[6, 9]",1.0,5.0,0.14287495613098145,1.5030479431152344,0.3503234649946323,51.0,515.0,0.0
Y,R,"[6, 10]",1.0,6.0,0.18100619316101074,1.8600311279296875,0.6767686161823684,51.0,516.0,0.0
R,U,"[5, 10]",1.0,7.0,0.20176982879638672,1.599302053451538,0.4096131434909304,51.0,517.0,0.0
R,U,"[4, 10]",1.0,8.0,0.25676918029785156,1.9405770301818848,0.6832004094424567,51.0,518.0,0.0
B,L,"[4, 9]",1.0,9.0,0.18877387046813965,1.644615888595581,0.4612860743456864,51.0,519.0,0.0
R,U,"[3, 9]",1.0,10.0,0.14041900634765625,1.7899079322814941,0.6508499554280398,51.0,520.0,0.0
,,"(6, 6)",,,,,,,,
R,U,"[5, 6]",1.0,1.0,0.43944215774536133,2.8686439990997314,0.5363143640798348,52.0,521.0,0.0
Y,R,"[5, 7]",1.0,2.0,0.3018028736114502,1.621640920639038,0.32477489501833295,52.0,522.0,0.0
Y,R,"[5, 8]",1.0,3.0,0.2330019474029541,1.8142781257629395,0.5887125014541157,52.0,523.0,0.0
G,D,"[6, 8]",1.0,4.0,0.195540189743042,1.5109751224517822,0.31656177547938896,52.0,524.0,0.0
Y,R,"[6, 9]",1.0,5.0,0.34173011779785156,2.042984962463379,0.6926464790739622,52.0,525.0,0.0
Y,R,"[6, 10]",1.0,6.0,0.18851900100708008,1.718946933746338,0.5281345600610714,52.0,526.0,0.0
R,U,"[5, 10]",1.0,7.0,0.2626779079437256,1.8023509979248047,0.5470682717230743,52.0,527.0,0.0
R,U,"[4, 10]",1.0,8.0,0.24202299118041992,1.561953067779541,0.3091750765193517,52.0,528.0,0.0
B,L,"[4, 9]",1.0,9.0,0.4551830291748047,2.178891897201538,0.7209404853221562,52.0,529.0,0.0
R,U,"[3, 9]",1.0,10.0,0.17438912391662598,1.6302769184112549,0.45145201062369256,52.0,530.0,0.0
,,"(6, 6)",,,,,,,,
R,U,"[5, 6]",1.0,1.0,0.3878028392791748,4.602323055267334,0.3870414897363354,53.0,531.0,0.0
Y,R,"[5, 7]",1.0,2.0,0.3302731513977051,2.060994863510132,0.7310608312439031,53.0,532.0,0.0
Y,R,"[5, 8]",-1.0,2.0,0.04813790321350098,5.47254490852356,0.353759056305585,53.0,533.0,0.0
G,D,"[6, 8]",-1.0,2.0,0.06937098503112793,5.722557067871094,0.5926220215160627,53.0,534.0,0.0
G,D,"[7, 8]",-2.0,2.0,6.44329309463501,7.858932018280029,0.4514274624440398,53.0,535.0,0.0
G,D,"[8, 8]",0.0,2.0,0.7795171737670898,2.521306037902832,0.7395527612541342,53.0,536.0,0.0
Y,R,"[8, 9]",0.0,2.0,0.2767488956451416,1.6943421363830566,0.41701637937735764,53.0,537.0,0.0
R,U,"[7, 9]",0.0,2.0,0.34668993949890137,2.0892629623413086,0.7390863413618409,53.0,538.0,0.0
B,L,"[7, 8]",0.0,2.0,0.19443511962890625,1.7737209796905518,0.5798554218750454,53.0,539.0,0.0
B,L,"[7, 7]",0.0,2.0,0.12168502807617188,1.6547000408172607,0.5343772406032632,53.0,540.0,0.0
,,"(6, 6)",,,,,,,,
R,U,"[5, 6]",1.0,1.0,0.37673306465148926,3.977940797805786,0.3955798055521733,54.0,541.0,0.0
Y,R,"[5, 7]",1.0,2.0,0.24175095558166504,1.625566005706787,0.3711245143410042,54.0,542.0,0.0
Y,R,"[5, 8]",1.0,3.0,0.22396302223205566,1.7639801502227783,0.5350000637111243,54.0,543.0,0.0
G,D,"[6, 8]",1.0,4.0,0.2013258934020996,1.5241920948028564,0.3259126061328854,54.0,544.0,0.0
Y,R,"[6, 9]",1.0,5.0,0.2957160472869873,1.6828639507293701,0.392089687723561,54.0,545.0,0.0
Y,R,"[6, 10]",1.0,6.0,0.2903320789337158,1.9863669872283936,0.7114430899183237,54.0,546.0,0.0
R,U,"[5, 10]",1.0,7.0,0.1894090175628662,1.9081709384918213,0.7195355528748839,54.0,547.0,0.0
R,U,"[4, 10]",1.0,8.0,0.5563919544219971,2.147913932800293,0.5841802061288031,54.0,548.0,0.0
B,L,"[4, 9]",1.0,9.0,0.4052901268005371,1.7269399166107178,0.31136309954857,54.0,549.0,0.0
R,U,"[3, 9]",-2.0,9.0,1.1176021099090576,2.4932990074157715,0.4211408691144939,54.0,550.0,0.0
,,"(6, 6)",,,,,,,,
R,U,"[5, 6]",1.0,1.0,0.759660005569458,3.0998148918151855,0.68728819637604,55.0,551.0,0.0
Y,R,"[5, 7]",1.0,2.0,0.25580692291259766,1.7852280139923096,0.5391314805144967,55.0,552.0,0.0
Y,R,"[5, 8]",-1.0,2.0,0.0777428150177002,5.85022497177124,0.705800476080503,55.0,553.0,0.0
G,D,"[6, 8]",1.0,3.0,0.20125293731689453,1.9181239604949951,0.72438943434682,55.0,554.0,0.0
Y,R,"[6, 9]",1.0,4.0,0.20157289505004883,1.8136110305786133,0.6207513979724908,55.0,555.0,0.0
Y,R,"[6, 10]",1.0,5.0,0.3507058620452881,1.6767170429229736,0.3311855430395067,55.0,556.0,0.0
R,U,"[5, 10]",1.0,6.0,0.3964550495147705,1.7113969326019287,0.3091551767467705,55.0,557.0,0.0
B,L,"[5, 9]",-2.0,6.0,2.1665990352630615,3.41664981842041,0.2924619337920115,55.0,558.0,0.0
R,U,"[4, 9]",1.0,7.0,0.2827877998352051,1.9603590965270996,0.6857157908335221,55.0,559.0,0.0
R,U,"[3, 9]",-2.0,7.0,1.1381480693817139,2.843438148498535,0.7462312861453781,55.0,560.0,0.0
,,"(6, 6)",,,,,,,,
R,U,"[5, 6]",1.0,1.0,0.5032880306243896,4.8053998947143555,0.6009973045192476,56.0,561.0,0.0
Y,R,"[5, 7]",1.0,2.0,0.3089911937713623,1.6360509395599365,0.320556365121332,56.0,562.0,0.0
Y,R,"[5, 8]",1.0,3.0,0.27765512466430664,1.8279709815979004,0.5483616489552156,56.0,563.0,0.0
G,D,"[6, 8]",1.0,4.0,0.18633604049682617,1.466282844543457,0.2815668857080892,56.0,564.0,0.0
Y,R,"[6, 9]",1.0,5.0,0.353687047958374,1.7321860790252686,0.38025012231690675,56.0,565.0,0.0
Y,R,"[6, 10]",1.0,6.0,0.2673349380493164,1.7087218761444092,0.4387588985402705,56.0,566.0,0.0
R,U,"[5, 10]",1.0,7.0,0.29831600189208984,1.895488977432251,0.6008028696065068,56.0,567.0,0.0
R,U,"[4, 10]",1.0,8.0,0.2063159942626953,1.6681439876556396,0.4524561048297417,56.0,568.0,0.0
B,L,"[4, 9]",1.0,9.0,0.19272303581237793,1.6871860027313232,0.489555067057228,56.0,569.0,0.0
R,U,"[3, 9]",1.0,10.0,0.2362990379333496,1.6456401348114014,0.41838465916045864,56.0,570.0,0.0
,,"(6, 6)",,,,,,,,
R,U,"[5, 6]",1.0,1.0,0.5286478996276855,3.709213972091675,0.4941382815302094,57.0,571.0,0.0
Y,R,"[5, 7]",1.0,2.0,0.1812140941619873,1.7314038276672363,0.5588033945558246,57.0,572.0,0.0
Y,R,"[5, 8]",1.0,3.0,0.2198319435119629,1.4662590026855469,0.25859894180388027,57.0,573.0,0.0
G,D,"[6, 8]",1.0,4.0,0.36623692512512207,1.900184154510498,0.5418906924457515,57.0,574.0,0.0
Y,R,"[6, 9]",1.0,5.0,0.22322392463684082,1.508439064025879,0.2838401877851609,57.0,575.0,0.0
Y,R,"[6, 10]",1.0,6.0,0.3275759220123291,1.7830369472503662,0.4500377683559263,57.0,576.0,0.0
R,U,"[5, 10]",1.0,7.0,0.13012003898620605,1.5159878730773926,0.38273473095954036,57.0,577.0,0.0
R,U,"[4, 10]",1.0,8.0,0.2935199737548828,1.716127872467041,0.4154486490907153,57.0,578.0,0.0
B,L,"[4, 9]",1.0,9.0,0.2809281349182129,1.8209178447723389,0.5362410745246466,57.0,579.0,0.0
R,U,"[3, 9]",1.0,10.0,0.22818303108215332,1.8011019229888916,0.5705570527728259,57.0,580.0,0.0
,,"(6, 6)",,,,,,,,
R,U,"[5, 6]",1.0,1.0,0.7350139617919922,3.0986809730529785,0.6359439741167143,58.0,581.0,0.0
Y,R,"[5, 7]",1.0,2.0,0.20709490776062012,1.951033115386963,0.736678351629779,58.0,582.0,0.0
Y,R,"[5, 8]",1.0,3.0,0.24312305450439453,1.7862279415130615,0.5397172107962336,58.0,583.0,0.0
G,D,"[6, 8]",1.0,4.0,0.205672025680542,1.700753927230835,0.4903746351217975,58.0,584.0,0.0
Y,R,"[6, 9]",1.0,5.0,0.19770002365112305,1.8061180114746094,0.6131364235009753,58.0,585.0,0.0
Y,R,"[6, 10]",1.0,6.0,0.2430860996246338,1.8996739387512207,0.6460729584922846,58.0,586.0,0.0
R,U,"[5, 10]",1.0,7.0,0.17707204818725586,1.524181842803955,0.3371317376265534,58.0,587.0,0.0
R,U,"[4, 10]",1.0,8.0,0.2603909969329834,1.8872179985046387,0.6240540905742218,58.0,588.0,0.0
B,L,"[4, 9]",1.0,9.0,0.22402310371398926,1.7313330173492432,0.5053659818175555,58.0,589.0,0.0
R,U,"[3, 9]",1.0,10.0,0.3216969966888428,1.7489981651306152,0.4379006831829833,58.0,590.0,0.0
,,"(6, 6)",,,,,,,,
R,U,"[5, 6]",1.0,1.0,0.6417949199676514,2.857516050338745,0.27866752765660496,59.0,591.0,0.0
Y,R,"[5, 7]",1.0,2.0,0.2553088665008545,1.7397739887237549,0.5015697054675503,59.0,592.0,0.0
Y,R,"[5, 8]",1.0,3.0,0.22785687446594238,1.7963731288909912,0.5646268820547339,59.0,593.0,0.0
G,D,"[6, 8]",1.0,4.0,0.17858195304870605,1.8152849674224854,0.629609022423437,59.0,594.0,0.0
Y,R,"[6, 9]",1.0,5.0,0.15493297576904297,1.5282669067382812,0.37477694099598463,59.0,595.0,0.0
Y,R,"[6, 10]",1.0,6.0,0.2913188934326172,1.944566011428833,0.6524269868712617,59.0,596.0,0.0
R,U,"[5, 10]",1.0,7.0,0.24430203437805176,1.666628122329712,0.41925809883584675,59.0,597.0,0.0
R,U,"[4, 10]",1.0,8.0,0.25264596939086914,1.9089269638061523,0.6611445831969838,59.0,598.0,0.0
B,L,"[4, 9]",1.0,9.0,0.23557376861572266,1.9127938747406006,0.6905231268139607,59.0,599.0,0.0
R,U,"[3, 9]",1.0,10.0,0.2592151165008545,1.6214268207550049,0.3623328442977889,59.0,600.0,0.0
,,"(6, 6)",,,,,,,,
R,U,"[5, 6]",1.0,1.0,0.5941250324249268,2.4202258586883545,0.4490909244852654,60.0,601.0,0.0
Y,R,"[5, 7]",1.0,2.0,0.18293404579162598,1.4560859203338623,0.2719370336370654,60.0,602.0,0.0
Y,R,"[5, 8]",1.0,3.0,0.23792004585266113,1.8801190853118896,0.635102023330449,60.0,603.0,0.0
G,D,"[6, 8]",1.0,4.0,0.2149670124053955,1.4974520206451416,0.28266549116820067,60.0,604.0,0.0
Y,R,"[6, 9]",1.0,5.0,0.2065110206604004,1.4881598949432373,0.2709239754372297,60.0,605.0,0.0
Y,R,"[6, 10]",1.0,6.0,0.23716998100280762,1.9358680248260498,0.7064936994974813,60.0,606.0,0.0
R,U,"[5, 10]",1.0,7.0,0.18581199645996094,1.474802017211914,0.298165824337295,60.0,607.0,0.0
R,U,"[4, 10]",1.0,8.0,0.28545618057250977,1.78318190574646,0.4977837618012473,60.0,608.0,0.0
B,L,"[4, 9]",1.0,9.0,0.2321000099182129,1.9052858352661133,0.6694364757027988,60.0,609.0,0.0
R,U,"[3, 9]",1.0,10.0,0.17712998390197754,1.9120748043060303,0.7314788988417418,60.0,610.0,0.0
,,"(6, 6)",,,,,,,,
R,U,"[5, 6]",1.0,1.0,0.5077781677246094,2.6826488971710205,0.6974420458637411,61.0,611.0,0.0
Y,R,"[5, 7]",1.0,2.0,0.1970818042755127,1.9061179161071777,0.7033891513522372,61.0,612.0,0.0
Y,R,"[5, 8]",1.0,3.0,0.19807100296020508,1.8468940258026123,0.6504711704829511,61.0,613.0,0.0
G,D,"[6, 8]",-1.0,3.0,0.09116601943969727,5.896613121032715,0.7134621278820197,61.0,614.0,0.0
Y,R,"[6, 9]",1.0,4.0,0.2000138759613037,1.8012621402740479,0.5980706838483285,61.0,615.0,0.0
Y,R,"[6, 10]",1.0,5.0,0.1849961280822754,1.7281739711761475,0.5429224538934994,61.0,616.0,0.0
R,U,"[5, 10]",1.0,6.0,0.20028209686279297,1.5813848972320557,0.391280868351055,61.0,617.0,0.0
R,U,"[4, 10]",1.0,7.0,0.22001290321350098,1.8978559970855713,0.688654074003421,61.0,618.0,0.0
B,L,"[4, 9]",-1.0,7.0,0.09154200553894043,5.722702980041504,0.5613651670780635,61.0,619.0,0.0
R,U,"[3, 9]",-2.0,7.0,1.9103100299835205,3.5903561115264893,0.7181202354145437,61.0,620.0,0.0
,,"(6, 6)",,,,,,,,
R,U,"[5, 6]",1.0,1.0,0.5374791622161865,3.1679611206054688,0.5198623678442552,62.0,621.0,0.0
Y,R,"[5, 7]",1.0,2.0,0.2415940761566162,1.5524170398712158,0.3054696528279919,62.0,622.0,0.0
Y,R,"[5, 8]",1.0,3.0,0.2265779972076416,1.6298928260803223,0.40183984677601203,62.0,623.0,0.0
G,D,"[6, 8]",1.0,4.0,0.47342395782470703,1.7165420055389404,0.25191424594794637,62.0,624.0,0.0
Y,R,"[6, 9]",1.0,5.0,0.30651378631591797,1.865675926208496,0.5505835871679476,62.0,625.0,0.0
Y,R,"[6, 10]",1.0,6.0,0.22314095497131348,1.8499059677124023,0.6170411591177135,62.0,626.0,0.0
R,U,"[5, 10]",1.0,7.0,0.33580803871154785,1.9182350635528564,0.5853287624826031,62.0,627.0,0.0
R,U,"[4, 10]",1.0,8.0,0.2502768039703369,1.974196195602417,0.725965375043552,62.0,628.0,0.0
B,L,"[4, 9]",1.0,9.0,0.18548083305358887,1.7576298713684082,0.5836603661180608,62.0,629.0,0.0
R,U,"[3, 9]",1.0,10.0,0.2767939567565918,2.0125770568847656,0.7293967092597429,62.0,630.0,0.0
,,"(6, 6)",,,,,,,,
R,U,"[5, 6]",1.0,1.0,0.7746350765228271,2.5686349868774414,0.34828443960804084,63.0,631.0,0.0
Y,R,"[5, 7]",1.0,2.0,0.3353910446166992,1.8137609958648682,0.4785820054001917,63.0,632.0,0.0
Y,R,"[5, 8]",1.0,3.0,0.32002782821655273,1.6515860557556152,0.3469047556213799,63.0,633.0,0.0
G,D,"[6, 8]",1.0,4.0,0.30693793296813965,1.5958549976348877,0.2761654459212038,63.0,634.0,0.0
Y,R,"[6, 9]",1.0,5.0,0.26340699195861816,1.7095420360565186,0.45211260047838214,63.0,635.0,0.0
Y,R,"[6, 10]",-2.0,5.0,2.479322910308838,4.054322957992554,0.6061683707786434,63.0,636.0,0.0
B,L,"[6, 9]",0.0,5.0,0.3236870765686035,1.8032619953155518,0.47625110754531585,63.0,637.0,0.0
R,U,"[5, 9]",0.0,5.0,0.2756381034851074,1.7521390914916992,0.4782612538504326,63.0,638.0,0.0
R,U,"[4, 9]",1.0,6.0,0.2771458625793457,1.9309260845184326,0.6594914929406186,63.0,639.0,0.0
R,U,"[3, 9]",1.0,7.0,0.2873079776763916,1.7386159896850586,0.464381814553679,63.0,640.0,0.0
,,"(6, 6)",,,,,,,,
R,U,"[5, 6]",1.0,1.0,0.5149550437927246,2.9712719917297363,0.7020999885531138,64.0,641.0,0.0
Y,R,"[5, 7]",1.0,2.0,0.20413994789123535,1.6275990009307861,0.4298159417735754,64.0,642.0,0.0
Y,R,"[5, 8]",1.0,3.0,0.2242140769958496,1.6347880363464355,0.39804543728063163,64.0,643.0,0.0
G,D,"[6, 8]",1.0,4.0,0.10889291763305664,1.487882137298584,0.369339129830264,64.0,644.0,0.0
Y,R,"[6, 9]",1.0,5.0,0.19870305061340332,1.8577079772949219,0.6599725236436075,64.0,645.0,0.0
Y,R,"[6, 10]",1.0,6.0,0.17844200134277344,1.4674718379974365,0.29435828383016865,64.0,646.0,0.0
R,U,"[5, 10]",1.0,7.0,0.3028721809387207,1.569838047027588,0.28078243170709904,64.0,647.0,0.0
R,U,"[4, 10]",1.0,8.0,0.27454590797424316,1.911128044128418,0.6249594295009415,64.0,648.0,0.0
B,L,"[4, 9]",-1.0,8.0,0.005106925964355469,5.576272964477539,0.5178926935274004,64.0,649.0,0.0
R,U,"[3, 9]",1.0,9.0,0.39312005043029785,2.1149449348449707,0.7158113615888017,64.0,650.0,0.0
,,"(6, 6)",,,,,,,,
R,U,"[5, 6]",1.0,1.0,0.3570091724395752,2.8370168209075928,0.38642440873289763,65.0,651.0,0.0
Y,R,"[5, 7]",1.0,2.0,0.20514297485351562,1.7600300312042236,0.562943961276299,65.0,652.0,0.0
Y,R,"[5, 8]",1.0,3.0,0.19138288497924805,1.5651910305023193,0.36168916071528673,65.0,653.0,0.0
G,D,"[6, 8]",1.0,4.0,0.20045208930969238,1.5854718685150146,0.39713836134087127,65.0,654.0,0.0
Y,R,"[6, 9]",1.0,5.0,0.19442296028137207,1.7591791152954102,0.5560183625144113,65.0,655.0,0.0
Y,R,"[6, 10]",-1.0,5.0,0.08052587509155273,5.498018026351929,0.3541233867889913,65.0,656.0,0.0
R,U,"[5, 10]",1.0,6.0,0.2176060676574707,1.84151291847229,0.6287634224840315,65.0,657.0,0.0
R,U,"[4, 10]",1.0,7.0,0.20536398887634277,1.491434097290039,0.2871277220795389,65.0,658.0,0.0
B,L,"[4, 9]",1.0,8.0,0.50506591796875,2.0607199668884277,0.5475170721494361,65.0,659.0,0.0
R,U,"[3, 9]",1.0,9.0,0.23623013496398926,1.837110996246338,0.6011223378168322,65.0,660.0,0.0
,,"(6, 6)",,,,,,,,
R,U,"[5, 6]",1.0,1.0,0.3810241222381592,3.9537270069122314,0.6380463946240247,66.0,661.0,0.0
Y,R,"[5, 7]",1.0,2.0,0.18645095825195312,1.7289319038391113,0.5504646816362209,66.0,662.0,0.0
Y,R,"[5, 8]",1.0,3.0,0.1896200180053711,1.6362569332122803,0.43676504487818746,66.0,663.0,0.0
G,D,"[6, 8]",1.0,4.0,0.3062620162963867,1.702883005142212,0.38955713057359576,66.0,664.0,0.0
Y,R,"[6, 9]",1.0,5.0,0.21142792701721191,1.7761569023132324,0.5656143120850697,66.0,665.0,0.0
Y,R,"[6, 10]",1.0,6.0,0.21994996070861816,1.623487949371338,0.40580513593692474,66.0,666.0,0.0
R,U,"[5, 10]",1.0,7.0,0.3542900085449219,1.9404950141906738,0.5961314793362174,66.0,667.0,0.0
R,U,"[4, 10]",1.0,8.0,0.2501959800720215,1.7973148822784424,0.5435266390799167,66.0,668.0,0.0
B,L,"[4, 9]",1.0,9.0,0.2620229721069336,1.821065902709961,0.5643766766975626,66.0,669.0,0.0
R,U,"[3, 9]",1.0,10.0,0.2029879093170166,1.5669810771942139,0.3649454461719433,66.0,670.0,0.0
,,"(6, 6)",,,,,,,,
R,U,"[5, 6]",1.0,1.0,0.5249531269073486,3.1502199172973633,0.41494259835771186,67.0,671.0,0.0
Y,R,"[5, 7]",1.0,2.0,0.324815034866333,1.9499998092651367,0.614798013504096,67.0,672.0,0.0
Y,R,"[5, 8]",1.0,3.0,0.16780781745910645,1.6751549243927002,0.5066047790160338,67.0,673.0,0.0
G,D,"[6, 8]",-1.0,3.0,0.03862118721008301,5.7679948806762695,0.6744308718753409,67.0,674.0,0.0
Y,R,"[6, 9]",1.0,4.0,0.21745014190673828,1.706346035003662,0.4974790326204023,67.0,675.0,0.0
Y,R,"[6, 10]",1.0,5.0,0.4718749523162842,2.2176668643951416,0.7318368822105803,67.0,676.0,0.0
R,U,"[5, 10]",-2.0,5.0,1.190157175064087,2.8622539043426514,0.6937957523624343,67.0,677.0,0.0
R,U,"[4, 10]",1.0,6.0,0.37961506843566895,1.7437148094177246,0.3710470456781725,67.0,678.0,0.0
B,L,"[4, 9]",1.0,7.0,0.45206189155578613,2.151125907897949,0.705150816992669,67.0,679.0,0.0
R,U,"[3, 9]",1.0,8.0,0.28604888916015625,1.8404219150543213,0.5624331170515611,67.0,680.0,0.0
,,"(6, 6)",,,,,,,,
G,D,"[7, 6]",0.0,0.0,0.49067020416259766,3.5911149978637695,0.7032861740691543,68.0,681.0,0.0
Y,R,"[7, 7]",0.0,0.0,0.13621807098388672,1.800894021987915,0.6707569298338721,68.0,682.0,0.0
Y,R,"[7, 8]",0.0,0.0,0.37160301208496094,2.0867960453033447,0.7077036218833712,68.0,683.0,0.0
R,U,"[6, 8]",1.0,1.0,0.23868584632873535,1.4968061447143555,0.25480538152973015,68.0,684.0,0.0
Y,R,"[6, 9]",1.0,2.0,0.4103050231933594,1.9343430995941162,0.5221685485562573,68.0,685.0,0.0
Y,R,"[6, 10]",1.0,3.0,0.27701592445373535,1.906933069229126,0.6289434157616418,68.0,686.0,0.0
G,D,"[7, 10]",0.0,3.0,0.19227004051208496,1.7601571083068848,0.5557033088601351,68.0,687.0,0.0
Y,R,"[7, 11]",-1.0,3.0,0.049191951751708984,5.765172004699707,0.6373587295969239,68.0,688.0,0.0
R,U,"[6, 11]",0.0,3.0,0.4646148681640625,2.1691110134124756,0.7063176524576973,68.0,689.0,0.0
Y,R,"[7, 11]",-3.0,3.0,0.3338510990142822,1.634734869003296,0.3081727869387395,68.0,690.0,0.0
,,"(6, 6)",,,,,,,,
R,U,"[5, 6]",1.0,1.0,0.4438660144805908,3.5595648288726807,0.7342810474892828,69.0,691.0,0.0
Y,R,"[5, 7]",1.0,2.0,0.3018491268157959,1.7557690143585205,0.4564231188416778,69.0,692.0,0.0
Y,R,"[5, 8]",1.0,3.0,0.3128368854522705,1.7482540607452393,0.43811049793848844,69.0,693.0,0.0
G,D,"[6, 8]",1.0,4.0,0.32875800132751465,1.6336090564727783,0.30515938700298656,69.0,694.0,0.0
Y,R,"[6, 9]",1.0,5.0,0.22848796844482422,1.5567710399627686,0.32843734313057443,69.0,695.0,0.0
Y,R,"[6, 10]",-2.0,5.0,1.0999560356140137,2.4544899463653564,0.3995638284294848,69.0,696.0,0.0
R,U,"[5, 10]",1.0,6.0,0.8427259922027588,2.4306280612945557,0.5799326685632934,69.0,697.0,0.0
R,U,"[4, 10]",1.0,7.0,0.2384340763092041,2.0004069805145264,0.7469348969407481,69.0,698.0,0.0
B,L,"[4, 9]",1.0,8.0,0.627432107925415,1.960932970046997,0.3247973523371831,69.0,699.0,0.0
R,U,"[3, 9]",1.0,9.0,0.266434907913208,1.7157509326934814,0.4569998683226089,69.0,700.0,0.0
,,"(6, 6)",,,,,,,,
R,U,"[5, 6]",1.0,1.0,0.6545119285583496,5.403443813323975,0.7267923049929346,70.0,701.0,0.0
Y,R,"[5, 7]",1.0,2.0,0.2470839023590088,1.779939889907837,0.540125065729805,70.0,702.0,0.0
Y,R,"[5, 8]",1.0,3.0,0.2743568420410156,1.6585218906402588,0.3820918608310556,70.0,703.0,0.0
G,D,"[6, 8]",1.0,4.0,0.37168121337890625,2.0280017852783203,0.6433940595949599,70.0,704.0,0.0
Y,R,"[6, 9]",1.0,5.0,0.24805402755737305,1.8050999641418457,0.5648800531098245,70.0,705.0,0.0
Y,R,"[6, 10]",1.0,6.0,0.28531789779663086,1.9994888305664062,0.7141874533198224,70.0,706.0,0.0
B,L,"[6, 9]",-1.0,6.0,0.07134103775024414,5.572645902633667,0.42026266601843076,70.0,707.0,0.0
G,D,"[7, 9]",-2.0,6.0,1.665632963180542,3.171725034713745,0.5418236412307464,70.0,708.0,0.0
B,L,"[7, 8]",0.0,6.0,0.18803787231445312,1.6696839332580566,0.4783858752613789,70.0,709.0,0.0
R,U,"[6, 8]",0.0,6.0,0.34026312828063965,1.6986818313598633,0.3602734463277577,70.0,710.0,0.0
,,"(6, 6)",,,,,,,,
R,U,"[5, 6]",1.0,1.0,0.44321298599243164,4.443727970123291,0.2873917474838458,71.0,711.0,0.0
Y,R,"[5, 7]",1.0,2.0,0.23821592330932617,1.9085421562194824,0.678767110130222,71.0,712.0,0.0
Y,R,"[5, 8]",1.0,3.0,0.20955920219421387,1.5483331680297852,0.32755353703809503,71.0,713.0,0.0
G,D,"[6, 8]",1.0,4.0,0.25957202911376953,1.7337470054626465,0.4777557074882264,71.0,714.0,0.0
Y,R,"[6, 9]",1.0,5.0,0.159775972366333,1.8350400924682617,0.6795285254026048,71.0,715.0,0.0
Y,R,"[6, 10]",1.0,6.0,0.3019700050354004,1.8040361404418945,0.4999807684500993,71.0,716.0,0.0
R,U,"[5, 10]",-1.0,6.0,0.06781291961669922,5.619506120681763,0.4694180498217513,71.0,717.0,0.0
B,L,"[5, 9]",0.0,6.0,0.2500779628753662,1.6900560855865479,0.442761925081472,71.0,718.0,0.0
R,U,"[4, 9]",1.0,7.0,0.3038499355316162,1.7178781032562256,0.4272350353691097,71.0,719.0,0.0
R,U,"[3, 9]",1.0,8.0,0.6191020011901855,2.2262511253356934,0.6200110842235156,71.0,720.0,0.0
,,"(6, 6)",,,,,,,,
R,U,"[5, 6]",1.0,1.0,0.7077429294586182,3.319540023803711,0.48959402112771794,72.0,721.0,0.0
Y,R,"[5, 7]",1.0,2.0,0.23799586296081543,1.7849280834197998,0.5576702218996445,72.0,722.0,0.0
Y,R,"[5, 8]",1.0,3.0,0.22492408752441406,1.6312379837036133,0.40576672996837787,72.0,723.0,0.0
G,D,"[6, 8]",1.0,4.0,0.30450892448425293,1.923158884048462,0.6287000649562113,72.0,724.0,0.0
Y,R,"[6, 9]",1.0,5.0,0.17102384567260742,1.9257268905639648,0.7375857302501011,72.0,725.0,0.0
Y,R,"[6, 10]",1.0,6.0,0.20644092559814453,1.6255650520324707,0.4300905321221479,72.0,726.0,0.0
R,U,"[5, 10]",1.0,7.0,0.23489999771118164,1.7645161151885986,0.527813057927778,72.0,727.0,0.0
R,U,"[4, 10]",1.0,8.0,0.19495296478271484,1.5738911628723145,0.3850305706357986,72.0,728.0,0.0
B,L,"[4, 9]",1.0,9.0,0.23263096809387207,1.7292940616607666,0.49757056591547894,72.0,729.0,0.0
R,U,"[3, 9]",1.0,10.0,0.1782209873199463,1.9087650775909424,0.7227721818312789,72.0,730.0,0.0
,,"(6, 6)",,,,,,,,
R,U,"[5, 6]",1.0,1.0,0.7755260467529297,2.650239944458008,0.4897141176472565,73.0,731.0,0.0
Y,R,"[5, 7]",1.0,2.0,0.1602628231048584,1.6862220764160156,0.5259486835781957,73.0,732.0,0.0
Y,R,"[5, 8]",-1.0,2.0,0.06239891052246094,5.469821214675903,0.3457667360590717,73.0,733.0,0.0
G,D,"[6, 8]",1.0,3.0,0.3185150623321533,2.05253005027771,0.7313446382894487,73.0,734.0,0.0
Y,R,"[6, 9]",1.0,4.0,0.20755791664123535,1.7919092178344727,0.573344147843674,73.0,735.0,0.0
Y,R,"[6, 10]",1.0,5.0,0.22368097305297852,1.6710929870605469,0.46103848282772875,73.0,736.0,0.0
R,U,"[5, 10]",1.0,6.0,0.17371797561645508,1.4223239421844482,0.2502321770451174,73.0,737.0,0.0
R,U,"[4, 10]",1.0,7.0,0.35119104385375977,1.732600212097168,0.3826509839809189,73.0,738.0,0.0
B,L,"[4, 9]",1.0,8.0,0.29282498359680176,1.7203850746154785,0.4196869442635789,73.0,739.0,0.0
R,U,"[3, 9]",1.0,9.0,0.2361619472503662,1.5341811180114746,0.3039706482171536,73.0,740.0,0.0
,,"(6, 6)",,,,,,,,
R,U,"[5, 6]",1.0,1.0,0.4473879337310791,3.5219550132751465,0.29245566361519526,74.0,741.0,0.0
Y,R,"[5, 7]",1.0,2.0,0.2642068862915039,1.9600069522857666,0.7020657564879825,74.0,742.0,0.0
Y,R,"[5, 8]",1.0,3.0,0.22135686874389648,1.6071879863739014,0.3927558570616609,74.0,743.0,0.0
G,D,"[6, 8]",1.0,4.0,0.17047595977783203,1.6619751453399658,0.5047608357683819,74.0,744.0,0.0
Y,R,"[6, 9]",-1.0,4.0,0.05229806900024414,5.751512050628662,0.639188524769829,74.0,745.0,0.0
R,U,"[5, 9]",0.0,4.0,0.25665903091430664,1.87959885597229,0.6188282640706466,74.0,746.0,0.0
R,U,"[4, 9]",1.0,5.0,0.20537209510803223,1.6731760501861572,0.4588191257722446,74.0,747.0,0.0
R,U,"[3, 9]",1.0,6.0,0.2816469669342041,1.7182269096374512,0.4437361099395385,74.0,748.0,0.0
B,L,"[3, 8]",0.0,6.0,0.5120019912719727,1.8973748683929443,0.3910839055796374,74.0,749.0,0.0
R,U,"[2, 8]",0.0,6.0,0.33298492431640625,1.732023000717163,0.40638997139138705,74.0,750.0,0.0
,,"(6, 6)",,,,,,,,
R,U,"[5, 6]",1.0,1.0,0.3196249008178711,4.291319131851196,0.5307401342754492,75.0,751.0,0.0
Y,R,"[5, 7]",1.0,2.0,0.21854805946350098,1.880640983581543,0.6612217641288989,75.0,752.0,0.0
Y,R,"[5, 8]",1.0,3.0,0.19983196258544922,1.5946080684661865,0.40596682203943246,75.0,753.0,0.0
G,D,"[6, 8]",-1.0,3.0,0.05345487594604492,5.554440021514893,0.44371724057885076,75.0,754.0,0.0
Y,R,"[6, 9]",1.0,4.0,0.441403865814209,1.7616100311279297,0.32206175015067795,75.0,755.0,0.0
Y,R,"[6, 10]",1.0,5.0,0.3412010669708252,1.848031997680664,0.5032147707782004,75.0,756.0,0.0
R,U,"[5, 10]",1.0,6.0,0.2591722011566162,1.5853629112243652,0.3219559332637944,75.0,757.0,0.0
B,L,"[5, 9]",0.0,6.0,0.14581799507141113,1.7022149562835693,0.5572920051528742,75.0,758.0,0.0
R,U,"[4, 9]",1.0,7.0,0.24676299095153809,1.9540598392486572,0.7111716287824569,75.0,759.0,0.0
B,L,"[4, 8]",0.0,7.0,0.2842979431152344,1.86808180809021,0.5960227156510093,75.0,760.0,0.0
,,"(6, 6)",,,,,,,,
R,U,"[5, 6]",1.0,1.0,0.6739280223846436,2.705280065536499,0.2515549721430452,76.0,761.0,0.0
Y,R,"[5, 7]",1.0,2.0,0.41447901725769043,2.116939067840576,0.7013925923138797,76.0,762.0,0.0
Y,R,"[5, 8]",1.0,3.0,0.31984901428222656,1.8362951278686523,0.5210442053741704,76.0,763.0,0.0
G,D,"[6, 8]",-2.0,3.0,1.958258867263794,3.1835482120513916,0.25483005534124925,76.0,764.0,0.0
Y,R,"[6, 9]",1.0,4.0,0.23886680603027344,1.7387208938598633,0.49326321640109416,76.0,765.0,0.0
Y,R,"[6, 10]",1.0,5.0,0.25768184661865234,1.9343528747558594,0.6773210930507101,76.0,766.0,0.0
R,U,"[5, 10]",1.0,6.0,0.23887014389038086,1.9240198135375977,0.7013359966218078,76.0,767.0,0.0
R,U,"[4, 10]",1.0,7.0,0.323199987411499,1.7606010437011719,0.4288324882454575,76.0,768.0,0.0
B,L,"[4, 9]",1.0,8.0,0.3254530429840088,1.8939759731292725,0.555921362636963,76.0,769.0,0.0
R,U,"[3, 9]",1.0,9.0,0.3684828281402588,2.055742025375366,0.6948344543648111,76.0,770.0,0.0
,,"(6, 6)",,,,,,,,
R,U,"[5, 6]",-2.0,0.0,1.1571519374847412,4.054027080535889,0.5988968983482945,77.0,771.0,0.0
Y,R,"[5, 7]",1.0,1.0,0.46327805519104004,2.136240005493164,0.6684158143034902,77.0,772.0,0.0
Y,R,"[5, 8]",-2.0,1.0,3.1289849281311035,4.389292001724243,0.2912610058552161,77.0,773.0,0.0
R,U,"[4, 8]",0.0,1.0,0.39777112007141113,1.8996009826660156,0.5073212825934426,77.0,774.0,0.0
R,U,"[3, 8]",0.0,1.0,0.35752296447753906,1.6164770126342773,0.25730705610166,77.0,775.0,0.0
B,L,"[3, 7]",0.0,1.0,0.8488600254058838,2.1017849445343018,0.25891421647102264,77.0,776.0,0.0
R,U,"[2, 7]",-2.0,1.0,1.2528810501098633,2.625890016555786,0.4180380840639752,77.0,777.0,0.0
R,U,"[1, 7]",0.0,1.0,0.37451601028442383,2.038130044937134,0.6557979308856301,77.0,778.0,0.0
R,U,"[2, 7]",-3.0,1.0,0.587183952331543,2.1806089878082275,0.6031615778932478,77.0,779.0,0.0
R,U,"[1, 7]",0.0,1.0,0.387829065322876,2.045586109161377,0.6653209312054775,77.0,780.0,0.0
,,"(6, 6)",,,,,,,,
R,U,"[5, 6]",1.0,1.0,0.4222381114959717,2.736358880996704,0.5350251195427622,78.0,781.0,0.0
Y,R,"[5, 7]",1.0,2.0,0.3015758991241455,2.0139570236206055,0.7154472597051329,78.0,782.0,0.0
Y,R,"[5, 8]",1.0,3.0,0.33071112632751465,2.075671911239624,0.7409532742644624,78.0,783.0,0.0
G,D,"[6, 8]",1.0,4.0,0.16610407829284668,1.8241488933563232,0.665144186103229,78.0,784.0,0.0
Y,R,"[6, 9]",-2.0,4.0,1.121816873550415,2.547769069671631,0.46306075998976043,78.0,785.0,0.0
Y,R,"[6, 10]",1.0,5.0,0.8067100048065186,2.523513078689575,0.7029390392278425,78.0,786.0,0.0
R,U,"[5, 10]",1.0,6.0,0.3400599956512451,1.8879320621490479,0.5410198017693593,78.0,787.0,0.0
R,U,"[4, 10]",1.0,7.0,0.4676940441131592,2.053209066390991,0.5941944995304388,78.0,788.0,0.0
B,L,"[4, 9]",1.0,8.0,0.2656569480895996,1.952139139175415,0.696209367042944,78.0,789.0,0.0
R,U,"[3, 9]",1.0,9.0,0.4030168056488037,2.0256471633911133,0.6218485184331122,78.0,790.0,0.0
,,"(6, 6)",,,,,,,,
R,U,"[5, 6]",1.0,1.0,0.41599202156066895,3.191222906112671,0.4800466509321483,79.0,791.0,0.0
Y,R,"[5, 7]",1.0,2.0,0.613245964050293,2.32179594039917,0.7012770971096254,79.0,792.0,0.0
Y,R,"[5, 8]",1.0,3.0,0.2195899486541748,1.8271560668945312,0.6117672257150334,79.0,793.0,0.0
G,D,"[6, 8]",1.0,4.0,0.2194678783416748,1.823659896850586,0.618749229421786,79.0,794.0,0.0
Y,R,"[6, 9]",1.0,5.0,0.21254897117614746,1.4666130542755127,0.2523110534321018,79.0,795.0,0.0
Y,R,"[6, 10]",1.0,6.0,0.4419131278991699,2.182159185409546,0.7340832113118854,79.0,796.0,0.0
R,U,"[5, 10]",1.0,7.0,0.2255709171295166,1.9579918384552002,0.7253670964802602,79.0,797.0,0.0
R,U,"[4, 10]",1.0,8.0,0.26244306564331055,1.7311968803405762,0.47343608371650864,79.0,798.0,0.0
B,L,"[4, 9]",1.0,9.0,0.3152120113372803,1.782930850982666,0.47297800777923465,79.0,799.0,0.0
R,U,"[3, 9]",-2.0,9.0,2.575942039489746,3.8502860069274902,0.30663539152093255,79.0,800.0,0.0
,,"(6, 6)",,,,,,,,
R,U,"[5, 6]",1.0,1.0,0.39281392097473145,2.663794994354248,0.47046665609656363,80.0,801.0,0.0
Y,R,"[5, 7]",1.0,2.0,0.19916510581970215,1.9136979579925537,0.7169546712450332,80.0,802.0,0.0
Y,R,"[5, 8]",1.0,3.0,0.1868579387664795,1.846083164215088,0.6630942853728327,80.0,803.0,0.0
G,D,"[6, 8]",1.0,4.0,0.3394601345062256,1.7577881813049316,0.4043537933924108,80.0,804.0,0.0
Y,R,"[6, 9]",1.0,5.0,0.2514491081237793,1.8459279537200928,0.6001280398517341,80.0,805.0,0.0
Y,R,"[6, 10]",1.0,6.0,0.2395310401916504,1.6242058277130127,0.37451578487613413,80.0,806.0,0.0
R,U,"[5, 10]",1.0,7.0,0.4027280807495117,1.889293909072876,0.49697397248685693,80.0,807.0,0.0
R,U,"[4, 10]",1.0,8.0,0.34376001358032227,2.0459938049316406,0.6927231031292826,80.0,808.0,0.0
R,U,"[3, 10]",-2.0,8.0,1.7028939723968506,3.123866081237793,0.46665174298037965,80.0,809.0,0.0
R,U,"[2, 10]",0.0,8.0,0.23306894302368164,1.9435710906982422,0.7099682395975546,80.0,810.0,0.0
,,"(6, 6)",,,,,,,,
R,U,"[5, 6]",1.0,1.0,0.5109801292419434,3.7607009410858154,0.7039555533375987,81.0,811.0,0.0
Y,R,"[5, 7]",1.0,2.0,0.22308611869812012,1.7662630081176758,0.5369960485181322,81.0,812.0,0.0
Y,R,"[5, 8]",1.0,3.0,0.3673670291900635,1.988265037536621,0.6253552685604701,81.0,813.0,0.0
G,D,"[6, 8]",1.0,4.0,0.20994305610656738,1.4662268161773682,0.25833129175882813,81.0,814.0,0.0
Y,R,"[6, 9]",1.0,5.0,0.4064810276031494,1.6721539497375488,0.2638067621173026,81.0,815.0,0.0
Y,R,"[6, 10]",1.0,6.0,0.24021005630493164,1.9517109394073486,0.6984253322590004,81.0,816.0,0.0
R,U,"[5, 10]",1.0,7.0,0.27692508697509766,1.649198055267334,0.3644440271792395,81.0,817.0,0.0
R,U,"[4, 10]",1.0,8.0,0.2789270877838135,1.8739910125732422,0.5882481590932676,81.0,818.0,0.0
B,L,"[4, 9]",1.0,9.0,0.17339491844177246,1.7273249626159668,0.5488799826945766,81.0,819.0,0.0
R,U,"[3, 9]",1.0,10.0,0.20092487335205078,1.6095008850097656,0.4085899664314523,81.0,820.0,0.0
,,"(6, 6)",,,,,,,,
R,U,"[5, 6]",1.0,1.0,0.8194680213928223,7.57937479019165,0.4209843908651392,82.0,821.0,0.0
Y,R,"[5, 7]",1.0,2.0,0.2383439540863037,1.9033398628234863,0.6740310942767622,82.0,822.0,0.0
Y,R,"[5, 8]",1.0,3.0,0.2966439723968506,1.9126288890838623,0.6200217950506168,82.0,823.0,0.0
G,D,"[6, 8]",-1.0,3.0,0.07592296600341797,5.72962498664856,0.582891089656008,82.0,824.0,0.0
R,U,"[5, 8]",0.0,3.0,0.3574700355529785,1.688507080078125,0.3215966231209793,82.0,825.0,0.0
B,L,"[5, 7]",0.0,3.0,0.3050658702850342,1.7018170356750488,0.39005601341910934,82.0,826.0,0.0
R,U,"[4, 7]",0.0,3.0,0.23638391494750977,1.8580288887023926,0.6310734150664075,82.0,827.0,0.0
R,U,"[3, 7]",0.0,3.0,0.2004549503326416,1.4779698848724365,0.27609326551159635,82.0,828.0,0.0
G,D,"[4, 7]",0.0,3.0,0.22682499885559082,1.6400330066680908,0.4158537129289048,82.0,829.0,0.0
Y,R,"[4, 8]",0.0,3.0,0.15176010131835938,1.5440170764923096,0.39315525974184207,82.0,830.0,0.0
,,"(6, 6)",,,,,,,,
R,U,"[5, 6]",1.0,1.0,0.30281805992126465,3.8625950813293457,0.6721981988048389,83.0,831.0,0.0
Y,R,"[5, 7]",1.0,2.0,0.22571396827697754,1.7560880184173584,0.5283610415946268,83.0,832.0,0.0
Y,R,"[5, 8]",1.0,3.0,0.23840022087097168,1.881462812423706,0.6596483641775064,83.0,833.0,0.0
G,D,"[6, 8]",-1.0,3.0,0.012875080108642578,5.471508026123047,0.3978213587988196,83.0,834.0,0.0
Y,R,"[6, 9]",-1.0,3.0,0.0774989128112793,5.534998893737793,0.38277288553642597,83.0,835.0,0.0
Y,R,"[6, 10]",1.0,4.0,0.5767168998718262,2.1749038696289062,0.5909350263989782,83.0,836.0,0.0
G,D,"[7, 10]",-2.0,4.0,1.4590370655059814,3.1391749382019043,0.7131476402873393,83.0,837.0,0.0
R,U,"[6, 10]",-1.0,4.0,0.09003186225891113,5.807842969894409,0.637567970158678,83.0,838.0,0.0
R,U,"[5, 10]",-2.0,4.0,1.4143710136413574,3.124774932861328,0.728840962960174,83.0,839.0,0.0
B,L,"[5, 9]",0.0,4.0,0.1985030174255371,1.474700927734375,0.270621185274471,83.0,840.0,0.0
,,"(6, 6)",,,,,,,,
R,U,"[5, 6]",1.0,1.0,0.5929818153381348,4.104898929595947,0.4919064911523627,84.0,841.0,0.0
Y,R,"[5, 7]",1.0,2.0,0.2767670154571533,1.546518087387085,0.2718248988087617,84.0,842.0,0.0
Y,R,"[5, 8]",-1.0,2.0,0.00416111946105957,5.792111158370972,0.7301337030491741,84.0,843.0,0.0
G,D,"[6, 8]",-2.0,2.0,2.469758987426758,3.801729917526245,0.3654363152929652,84.0,844.0,0.0
Y,R,"[6, 9]",1.0,3.0,0.3287618160247803,2.00055193901062,0.665588586185541,84.0,845.0,0.0
Y,R,"[6, 10]",1.0,4.0,0.26069188117980957,1.821692943572998,0.5540050388490232,84.0,846.0,0.0
R,U,"[5, 10]",1.0,5.0,0.269334077835083,1.675508975982666,0.41302104850247473,84.0,847.0,0.0
R,U,"[4, 10]",1.0,6.0,0.2727549076080322,1.9823110103607178,0.694977593968349,84.0,848.0,0.0
B,L,"[4, 9]",1.0,7.0,0.2966430187225342,1.7997291088104248,0.5115620434764905,84.0,849.0,0.0
R,U,"[3, 9]",1.0,8.0,0.22794890403747559,1.7021989822387695,0.4803150791163664,84.0,850.0,0.0
,,"(6, 6)",,,,,,,,
R,U,"[5, 6]",1.0,1.0,0.3717079162597656,3.35079288482666,0.3812468947359187,85.0,851.0,0.0
Y,R,"[5, 7]",1.0,2.0,0.21052193641662598,1.852031946182251,0.6329723355872175,85.0,852.0,0.0
Y,R,"[5, 8]",1.0,3.0,0.23345518112182617,1.9069631099700928,0.673160296789111,85.0,853.0,0.0
G,D,"[6, 8]",1.0,4.0,0.25718021392822266,1.9838879108428955,0.723637800296117,85.0,854.0,0.0
Y,R,"[6, 9]",1.0,5.0,0.15437102317810059,1.561614990234375,0.4188554115745936,85.0,855.0,0.0
Y,R,"[6, 10]",-2.0,5.0,1.00528883934021,2.5262701511383057,0.544914028265495,85.0,856.0,0.0
R,U,"[5, 10]",1.0,6.0,0.36556100845336914,1.737591028213501,0.3826599194461281,85.0,857.0,0.0
G,D,"[6, 10]",-2.0,6.0,2.535529851913452,3.8199970722198486,0.3192621939259158,85.0,858.0,0.0
G,D,"[7, 10]",0.0,6.0,0.25487303733825684,1.5972800254821777,0.33316895242844646,85.0,859.0,0.0
G,D,"[8, 10]",0.0,6.0,0.5968959331512451,1.875830888748169,0.27563410466882116,85.0,860.0,0.0
,,"(6, 6)",,,,,,,,
R,U,"[5, 6]",1.0,1.0,0.4229390621185303,3.0049548149108887,0.4970140626067561,86.0,861.0,0.0
Y,R,"[5, 7]",1.0,2.0,0.31649184226989746,1.6683800220489502,0.34880594660988895,86.0,862.0,0.0
Y,R,"[5, 8]",1.0,3.0,0.3958280086517334,1.9335510730743408,0.5323423730169787,86.0,863.0,0.0
G,D,"[6, 8]",1.0,4.0,0.17950916290283203,1.7136948108673096,0.5291538409717661,86.0,864.0,0.0
B,L,"[6, 7]",0.0,4.0,0.23476910591125488,1.9242088794708252,0.6867007057122572,86.0,865.0,0.0
R,U,"[5, 7]",0.0,4.0,0.30506110191345215,1.7443439960479736,0.43104811570908586,86.0,866.0,0.0
R,U,"[4, 7]",0.0,4.0,0.3472461700439453,1.8981561660766602,0.5457952513762228,86.0,867.0,0.0
B,L,"[4, 6]",-1.0,4.0,0.0075359344482421875,5.783397912979126,0.7120580784118842,86.0,868.0,0.0
R,U,"[3, 6]",0.0,4.0,0.5134060382843018,1.8457520008087158,0.3082516411502739,86.0,869.0,0.0
Y,R,"[3, 7]",0.0,4.0,0.2803478240966797,1.7077651023864746,0.4324415250354511,86.0,870.0,0.0
,,"(6, 6)",,,,,,,,
R,U,"[5, 6]",1.0,1.0,0.4453918933868408,3.1271040439605713,0.6592578515635041,87.0,871.0,0.0
Y,R,"[5, 7]",1.0,2.0,0.2969191074371338,1.8895230293273926,0.5988755919761449,87.0,872.0,0.0
Y,R,"[5, 8]",-1.0,2.0,0.06075692176818848,5.803466081619263,0.6688025406384975,87.0,873.0,0.0
Y,R,"[5, 9]",0.0,2.0,0.4989590644836426,2.078062057495117,0.5801779313475912,87.0,874.0,0.0
G,D,"[6, 9]",1.0,3.0,0.4596390724182129,1.9057838916778564,0.4360391275488879,87.0,875.0,0.0
Y,R,"[6, 10]",1.0,4.0,0.6765890121459961,2.3626279830932617,0.6817925975788448,87.0,876.0,0.0
Y,R,"[6, 11]",0.0,4.0,0.2118830680847168,1.6334428787231445,0.41540435803960485,87.0,877.0,0.0
R,U,"[5, 11]",0.0,4.0,0.34253787994384766,1.7881410121917725,0.43685949575935407,87.0,878.0,0.0
R,U,"[4, 11]",0.0,4.0,0.30518507957458496,1.852985143661499,0.5563641403475026,87.0,879.0,0.0
B,L,"[4, 10]",1.0,5.0,0.3681669235229492,1.919551134109497,0.5591518987533926,87.0,880.0,0.0
,,"(6, 6)",,,,,,,,
R,U,"[5, 6]",1.0,1.0,0.48321104049682617,5.972177982330322,0.36471222079122256,88.0,881.0,0.0
Y,R,"[5, 7]",1.0,2.0,0.45236802101135254,2.202371835708618,0.7499953962465807,88.0,882.0,0.0
Y,R,"[5, 8]",1.0,3.0,0.3761279582977295,1.7241430282592773,0.3411048570889973,88.0,883.0,0.0
G,D,"[6, 8]",1.0,4.0,0.31446385383605957,1.7016589641571045,0.39278087266845435,88.0,884.0,0.0
Y,R,"[6, 9]",1.0,5.0,0.3004012107849121,1.5772349834442139,0.2866703470315562,88.0,885.0,0.0
Y,R,"[6, 10]",1.0,6.0,0.5751478672027588,2.193404197692871,0.6130240305935328,88.0,886.0,0.0
R,U,"[5, 10]",1.0,7.0,0.22902202606201172,1.579153060913086,0.34252425360382543,88.0,887.0,0.0
R,U,"[4, 10]",1.0,8.0,0.24648213386535645,1.5409960746765137,0.3002207546406464,88.0,888.0,0.0
B,L,"[4, 9]",1.0,9.0,0.40439605712890625,1.7668850421905518,0.36701263549528673,88.0,889.0,0.0
R,U,"[3, 9]",1.0,10.0,0.2578091621398926,1.636106014251709,0.36972608923355876,88.0,890.0,0.0
,,"(6, 6)",,,,,,,,
R,U,"[5, 6]",1.0,1.0,0.654796838760376,4.101749897003174,0.5877646326588573,89.0,891.0,0.0
Y,R,"[5, 7]",1.0,2.0,0.5811548233032227,1.9674959182739258,0.38868492270766836,89.0,892.0,0.0
Y,R,"[5, 8]",1.0,3.0,0.25466108322143555,1.6147730350494385,0.3702772166796226,89.0,893.0,0.0
Y,R,"[5, 9]",0.0,3.0,0.4422879219055176,1.928961992263794,0.482313245595072,89.0,894.0,0.0
G,D,"[6, 9]",1.0,4.0,0.3926248550415039,1.9704430103302002,0.5692013199062012,89.0,895.0,0.0
B,L,"[6, 8]",-2.0,4.0,1.0894181728363037,2.426719903945923,0.37944700473819504,89.0,896.0,0.0
Y,R,"[6, 9]",0.0,4.0,0.35688209533691406,2.0557849407196045,0.6849215566049669,89.0,897.0,0.0
R,U,"[5, 9]",0.0,4.0,0.24357390403747559,1.5094578266143799,0.26129561903155907,89.0,898.0,0.0
R,U,"[4, 9]",1.0,5.0,0.24286913871765137,1.6261420249938965,0.3874357208799845,89.0,899.0,0.0
B,L,"[4, 8]",0.0,5.0,0.22725200653076172,1.6063528060913086,0.37706400664945644,89.0,900.0,0.0
,,"(6, 6)",,,,,,,,
R,U,"[5, 6]",1.0,1.0,0.46921396255493164,5.206347942352295,0.7329747893993065,90.0,901.0,0.0
Y,R,"[5, 7]",1.0,2.0,0.30066990852355957,1.656398057937622,0.3563259569273719,90.0,902.0,0.0
Y,R,"[5, 8]",1.0,3.0,0.23044800758361816,1.8151140213012695,0.5879209945058446,90.0,903.0,0.0
G,D,"[6, 8]",1.0,4.0,0.22148895263671875,1.9475538730621338,0.7352754939043948,90.0,904.0,0.0
Y,R,"[6, 9]",1.0,5.0,0.16777396202087402,1.587238073348999,0.42266031795956305,90.0,905.0,0.0
Y,R,"[6, 10]",1.0,6.0,0.24251890182495117,1.5289788246154785,0.28521171507378673,90.0,906.0,0.0
R,U,"[5, 10]",1.0,7.0,0.32578206062316895,2.0376129150390625,0.7223257463433868,90.0,907.0,0.0
R,U,"[4, 10]",1.0,8.0,0.23479890823364258,1.924124002456665,0.6962902493250147,90.0,908.0,0.0
B,L,"[4, 9]",1.0,9.0,0.14858102798461914,1.8703649044036865,0.7167125637991986,90.0,909.0,0.0
R,U,"[3, 9]",1.0,10.0,0.24573493003845215,1.554914951324463,0.30521580810682514,90.0,910.0,0.0
,,"(6, 6)",,,,,,,,
G,D,"[7, 6]",0.0,0.0,0.5785880088806152,2.760101795196533,0.5316949559272004,91.0,911.0,0.0
Y,R,"[7, 7]",0.0,0.0,0.2143261432647705,1.8154709339141846,0.5971844254769436,91.0,912.0,0.0
R,U,"[6, 7]",0.0,0.0,0.15412092208862305,1.8667960166931152,0.7137868757743637,91.0,913.0,0.0
R,U,"[5, 7]",1.0,1.0,0.15018987655639648,1.4896180629730225,0.33694290270601546,91.0,914.0,0.0
Y,R,"[5, 8]",1.0,2.0,0.24844002723693848,1.6143109798431396,0.367895509494117,91.0,915.0,0.0
Y,R,"[5, 9]",0.0,2.0,0.18619585037231445,1.5447499752044678,0.362643122567735,91.0,916.0,0.0
G,D,"[6, 9]",1.0,3.0,0.27877092361450195,1.6874170303344727,0.40002435689658583,91.0,917.0,0.0
Y,R,"[6, 10]",1.0,4.0,0.21026206016540527,1.6822218894958496,0.4654370838500538,91.0,918.0,0.0
B,L,"[6, 9]",-2.0,4.0,1.3294708728790283,2.9759140014648438,0.6744536247263277,91.0,919.0,0.0
G,D,"[7, 9]",0.0,4.0,0.843297004699707,2.491909980773926,0.6496276549526556,91.0,920.0,0.0
,,"(6, 6)",,,,,,,,
R,U,"[5, 6]",1.0,1.0,0.7820339202880859,4.327594041824341,0.27744617174413533,92.0,921.0,0.0
Y,R,"[5, 7]",1.0,2.0,0.368588924407959,2.0809741020202637,0.7246978280746041,92.0,922.0,0.0
Y,R,"[5, 8]",1.0,3.0,0.22422313690185547,1.820410966873169,0.5953428930439477,92.0,923.0,0.0
G,D,"[6, 8]",1.0,4.0,0.2171339988708496,1.9029629230499268,0.6815435859564412,92.0,924.0,0.0
Y,R,"[6, 9]",1.0,5.0,0.25093913078308105,1.6330201625823975,0.3813285763130855,92.0,925.0,0.0
Y,R,"[6, 10]",1.0,6.0,0.30751705169677734,1.887753963470459,0.5688865340687965,92.0,926.0,0.0
R,U,"[5, 10]",1.0,7.0,0.3031458854675293,1.7727651596069336,0.47496303182763927,92.0,927.0,0.0
R,U,"[4, 10]",1.0,8.0,0.4344778060913086,1.7508671283721924,0.3258522470034138,92.0,928.0,0.0
B,L,"[4, 9]",1.0,9.0,0.3164491653442383,1.9856491088867188,0.6778185534471013,92.0,929.0,0.0
R,U,"[3, 9]",-1.0,9.0,0.09247803688049316,5.45945405960083,0.3042574527831914,92.0,930.0,0.0
,,"(6, 6)",,,,,,,,
R,U,"[5, 6]",1.0,1.0,0.4507439136505127,3.2343859672546387,0.588203037582672,93.0,931.0,0.0
Y,R,"[5, 7]",1.0,2.0,0.42543983459472656,2.057375907897949,0.6288834872016507,93.0,932.0,0.0
Y,R,"[5, 8]",1.0,3.0,0.7214779853820801,2.1952438354492188,0.4742619720869727,93.0,933.0,0.0
G,D,"[6, 8]",1.0,4.0,0.20408201217651367,1.5584969520568848,0.3661070606109675,93.0,934.0,0.0
Y,R,"[6, 9]",1.0,5.0,0.5353841781616211,1.9718589782714844,0.43787081995893934,93.0,935.0,0.0
Y,R,"[6, 10]",-1.0,5.0,0.04109907150268555,5.579807996749878,0.48407225930327064,93.0,936.0,0.0
R,U,"[5, 10]",1.0,6.0,0.2533290386199951,1.511566162109375,0.2625757713721247,93.0,937.0,0.0
R,U,"[4, 10]",1.0,7.0,0.3186149597167969,1.8255748748779297,0.5045789064534822,93.0,938.0,0.0
B,L,"[4, 9]",1.0,8.0,0.21673011779785156,1.530885934829712,0.3188403876597907,93.0,939.0,0.0
R,U,"[3, 9]",1.0,9.0,0.4016740322113037,2.1036739349365234,0.7054193489482203,93.0,940.0,0.0
,,"(6, 6)",,,,,,,,
R,U,"[5, 6]",1.0,1.0,0.5067551136016846,2.4982028007507324,0.5704720656704498,94.0,941.0,0.0
Y,R,"[5, 7]",1.0,2.0,0.3305819034576416,1.6594789028167725,0.33002226134493695,94.0,942.0,0.0
Y,R,"[5, 8]",1.0,3.0,0.2930319309234619,2.0493369102478027,0.745987751524702,94.0,943.0,0.0
G,D,"[6, 8]",1.0,4.0,0.18884706497192383,1.745352029800415,0.5412356348840872,94.0,944.0,0.0
Y,R,"[6, 9]",1.0,5.0,0.17651796340942383,1.469959020614624,0.29468937635824155,94.0,945.0,0.0
Y,R,"[6, 10]",1.0,6.0,0.6019871234893799,2.2573349475860596,0.6681855579016651,94.0,946.0,0.0
Y,R,"[6, 11]",-2.0,6.0,1.461190938949585,2.788630962371826,0.3571013599250288,94.0,947.0,0.0
Y,R,"[6, 10]",-3.0,6.0,0.4888160228729248,1.807770013809204,0.33148045713318036,94.0,948.0,0.0
R,U,"[5, 10]",-2.0,6.0,2.4683330059051514,3.7170588970184326,0.28192786323363644,94.0,949.0,0.0
B,L,"[5, 9]",0.0,6.0,0.6404521465301514,1.9117658138275146,0.2603398677105615,94.0,950.0,0.0
,,"(6, 6)",,,,,,,,
R,U,"[5, 6]",1.0,1.0,0.3673429489135742,3.191843032836914,0.6184568082547641,95.0,951.0,0.0
Y,R,"[5, 7]",1.0,2.0,0.2786588668823242,1.653109073638916,0.3717058958693682,95.0,952.0,0.0
Y,R,"[5, 8]",1.0,3.0,0.7554190158843994,2.369274139404297,0.6240914861966477,95.0,953.0,0.0
G,D,"[6, 8]",1.0,4.0,0.990746021270752,2.6050901412963867,0.6123352656631755,95.0,954.0,0.0
Y,R,"[6, 9]",1.0,5.0,0.5762591361999512,2.113862991333008,0.5262578825365813,95.0,955.0,0.0
Y,R,"[6, 10]",1.0,6.0,0.3040199279785156,1.853060007095337,0.5626501541681665,95.0,956.0,0.0
B,L,"[6, 9]",-2.0,6.0,1.7674100399017334,3.258631944656372,0.5212220863268424,95.0,957.0,0.0
R,U,"[5, 9]",-2.0,6.0,1.6534409523010254,2.887557029724121,0.275537818913865,95.0,958.0,0.0
R,U,"[4, 9]",1.0,7.0,0.2570228576660156,1.664186954498291,0.42291545872879055,95.0,959.0,0.0
B,L,"[4, 8]",0.0,7.0,0.5723140239715576,1.8259928226470947,0.26577155665264807,95.0,960.0,0.0
,,"(6, 6)",,,,,,,,
R,U,"[5, 6]",1.0,1.0,0.4743659496307373,3.438652992248535,0.5040937108653138,96.0,961.0,0.0
Y,R,"[5, 7]",1.0,2.0,0.3117549419403076,1.7537000179290771,0.4410826273590936,96.0,962.0,0.0
Y,R,"[5, 8]",1.0,3.0,0.44259190559387207,1.9186968803405762,0.4764331495647542,96.0,963.0,0.0
G,D,"[6, 8]",1.0,4.0,0.2590370178222656,1.9118609428405762,0.6546057781546588,96.0,964.0,0.0
Y,R,"[6, 9]",1.0,5.0,0.31623005867004395,1.7462131977081299,0.4345472683485249,96.0,965.0,0.0
Y,R,"[6, 10]",1.0,6.0,0.10050511360168457,1.5657730102539062,0.46684816450800987,96.0,966.0,0.0
G,D,"[7, 10]",0.0,6.0,0.6115820407867432,2.049149990081787,0.4326642406787938,96.0,967.0,0.0
B,L,"[7, 9]",0.0,6.0,0.37079310417175293,1.9760119915008545,0.5918045231214759,96.0,968.0,0.0
R,U,"[6, 9]",0.0,6.0,0.21876192092895508,1.6589081287384033,0.45083065449468446,96.0,969.0,0.0
R,U,"[5, 9]",0.0,6.0,0.31725001335144043,2.0629069805145264,0.7467024552861989,96.0,970.0,0.0
,,"(6, 6)",,,,,,,,
R,U,"[5, 6]",1.0,1.0,0.4285750389099121,3.2951760292053223,0.2922354237867564,97.0,971.0,0.0
Y,R,"[5, 7]",1.0,2.0,0.44038915634155273,2.1311800479888916,0.6895595658304094,97.0,972.0,0.0
Y,R,"[5, 8]",1.0,3.0,0.45885801315307617,1.8873291015625,0.4271781990158774,97.0,973.0,0.0
G,D,"[6, 8]",-2.0,3.0,3.1934800148010254,4.511892795562744,0.35573672959140223,97.0,974.0,0.0
R,U,"[5, 8]",0.0,3.0,0.3227379322052002,1.6394319534301758,0.3283877083747421,97.0,975.0,0.0
R,U,"[4, 8]",0.0,3.0,0.27043795585632324,1.5624849796295166,0.3075749364975416,97.0,976.0,0.0
B,L,"[4, 7]",0.0,3.0,0.19770312309265137,1.5406508445739746,0.3482025408331377,97.0,977.0,0.0
R,U,"[3, 7]",0.0,3.0,0.18592000007629395,1.7805869579315186,0.595181889215366,97.0,978.0,0.0
R,U,"[2, 7]",-2.0,3.0,1.053406000137329,2.366250991821289,0.34492645333539834,97.0,979.0,0.0
R,U,"[1, 7]",0.0,3.0,0.8174021244049072,2.343881130218506,0.5384468031627112,97.0,980.0,0.0
,,"(6, 6)",,,,,,,,
R,U,"[5, 6]",1.0,1.0,0.45128297805786133,2.7792770862579346,0.45113551747758746,98.0,981.0,0.0
Y,R,"[5, 7]",1.0,2.0,0.32194995880126953,1.9137160778045654,0.5813199810689033,98.0,982.0,0.0
Y,R,"[5, 8]",1.0,3.0,0.3154590129852295,1.8004450798034668,0.4819774986863421,98.0,983.0,0.0
G,D,"[6, 8]",1.0,4.0,0.29088807106018066,1.6207690238952637,0.3360681145350896,98.0,984.0,0.0
Y,R,"[6, 9]",1.0,5.0,0.23277592658996582,1.541316032409668,0.31071800394836674,98.0,985.0,0.0
Y,R,"[6, 10]",1.0,6.0,0.2362380027770996,1.6420929431915283,0.41936465691304914,98.0,986.0,0.0
R,U,"[5, 10]",1.0,7.0,0.3262050151824951,1.9546730518341064,0.6237822432099025,98.0,987.0,0.0
R,U,"[4, 10]",1.0,8.0,0.21621203422546387,1.5454680919647217,0.33617793964259196,98.0,988.0,0.0
B,L,"[4, 9]",1.0,9.0,0.2892460823059082,1.9792969226837158,0.6816531157924341,98.0,989.0,0.0
R,U,"[3, 9]",1.0,10.0,0.21389102935791016,1.5633690357208252,0.34542254544218937,98.0,990.0,0.0
,,"(6, 6)",,,,,,,,
R,U,"[5, 6]",1.0,1.0,0.45032811164855957,3.273638963699341,0.7186003085893011,99.0,991.0,0.0
Y,R,"[5, 7]",1.0,2.0,0.19954180717468262,1.9462099075317383,0.7479951179851467,99.0,992.0,0.0
Y,R,"[5, 8]",-1.0,2.0,0.02897191047668457,5.41906213760376,0.3173259811550548,99.0,993.0,0.0
G,D,"[6, 8]",-1.0,2.0,0.02437901496887207,5.779729127883911,0.6966374830765766,99.0,994.0,0.0
R,U,"[5, 8]",0.0,2.0,0.3994140625,1.7553870677947998,0.35237453903754856,99.0,995.0,0.0
R,U,"[4, 8]",0.0,2.0,0.26241397857666016,1.633681058883667,0.36918278772646407,99.0,996.0,0.0
B,L,"[4, 7]",0.0,2.0,0.2315220832824707,1.9677889347076416,0.7368966918595401,99.0,997.0,0.0
R,U,"[3, 7]",0.0,2.0,0.2095048427581787,1.954329013824463,0.7414217791253042,99.0,998.0,0.0
R,U,"[2, 7]",0.0,2.0,0.4373741149902344,1.7304670810699463,0.30509164028587843,99.0,999.0,0.0
R,U,"[1, 7]",0.0,2.0,0.25502610206604004,1.6599230766296387,0.3981945702529956,99.0,1000.0,0.0
