button_choice,action_choice,coordinate_choice,reward,cumulative_reward,rt,total_trial_time,iti,block_n,trial_n,trial_type
Y,R,"[6, 7]",-2.0,0.0,1.1677641868591309,2.8824028968811035,0.7330047770843657,0.0,1.0,0.0
Y,R,"[6, 8]",1.0,1.0,0.38623905181884766,1.9131920337677002,0.52964471300237,0.0,2.0,0.0
Y,R,"[6, 9]",1.0,2.0,0.17538905143737793,1.6621711254119873,0.4750767650314318,0.0,3.0,0.0
Y,R,"[6, 10]",1.0,3.0,0.14941906929016113,1.5284559726715088,0.38690792483130537,0.0,4.0,0.0
R,U,"[5, 10]",1.0,4.0,0.166046142578125,1.8810758590698242,0.7177405827182628,0.0,5.0,0.0
R,U,"[4, 10]",-1.0,4.0,0.018014907836914062,5.551337003707886,0.469019326273504,0.0,6.0,0.0
R,U,"[3, 10]",0.0,4.0,0.3956930637359619,1.9179911613464355,0.5206075141290463,0.0,7.0,0.0
B,L,"[3, 9]",1.0,5.0,0.21629691123962402,1.6639800071716309,0.4509928379913557,0.0,8.0,0.0
R,U,"[2, 9]",0.0,5.0,0.28832006454467773,1.8809559345245361,0.5818373519728337,0.0,9.0,0.0
B,L,"[2, 8]",0.0,5.0,0.16594600677490234,1.8724050521850586,0.7039265706544127,0.0,10.0,0.0
,,"(6, 6)",,,,,,,,
Y,R,"[6, 7]",0.0,0.0,0.4698328971862793,3.084207057952881,0.6049124028876671,1.0,11.0,0.0
Y,R,"[6, 8]",1.0,1.0,0.17348790168762207,1.8573391437530518,0.678662189293731,1.0,12.0,0.0
Y,R,"[6, 9]",1.0,2.0,0.11615300178527832,1.6960701942443848,0.5752657368779223,1.0,13.0,0.0
Y,R,"[6, 10]",1.0,3.0,0.19121909141540527,1.7449710369110107,0.5531789284510773,1.0,14.0,0.0
R,U,"[5, 10]",1.0,4.0,0.16981196403503418,1.7491540908813477,0.5854663446282014,1.0,15.0,0.0
R,U,"[4, 10]",-1.0,4.0,5.698204040527344e-05,5.435488939285278,0.3710318393865104,1.0,16.0,0.0
R,U,"[3, 10]",0.0,4.0,0.4304771423339844,1.7368979454040527,0.30789835083125583,1.0,17.0,0.0
B,L,"[3, 9]",1.0,5.0,0.4391000270843506,1.9574029445648193,0.5317606347216188,1.0,18.0,0.0
R,U,"[2, 9]",0.0,5.0,0.3164541721343994,1.9106650352478027,0.5923600819189905,1.0,19.0,0.0
B,L,"[2, 8]",0.0,5.0,0.2313861846923828,1.6737470626831055,0.4495270364656414,1.0,20.0,0.0
,,"(6, 6)",,,,,,,,
Y,R,"[6, 7]",0.0,0.0,0.985720157623291,4.011958837509155,0.6780908618154449,2.0,21.0,0.0
Y,R,"[6, 8]",1.0,1.0,0.24608397483825684,1.8283050060272217,0.589402880900508,2.0,22.0,0.0
Y,R,"[6, 9]",1.0,2.0,0.5730490684509277,2.223357915878296,0.646000849587244,2.0,23.0,0.0
Y,R,"[6, 10]",1.0,3.0,0.5424051284790039,2.2215371131896973,0.6676479153087845,2.0,24.0,0.0
R,U,"[5, 10]",1.0,4.0,0.38475704193115234,1.9674570560455322,0.5849966212696698,2.0,25.0,0.0
R,U,"[4, 10]",1.0,5.0,0.38700103759765625,1.695194959640503,0.3137547275080909,2.0,26.0,0.0
B,L,"[4, 9]",1.0,6.0,0.45900607109069824,1.989678144454956,0.5198286239011141,2.0,27.0,0.0
R,U,"[3, 9]",1.0,7.0,0.25670480728149414,1.531236171722412,0.26779261082724365,2.0,28.0,0.0
G,D,"[4, 9]",0.0,7.0,0.44533705711364746,2.1853599548339844,0.7360003034179028,2.0,29.0,0.0
B,L,"[4, 8]",0.0,7.0,0.5020418167114258,2.0494370460510254,0.5522016931228005,2.0,30.0,0.0
,,"(6, 6)",,,,,,,,
Y,R,"[6, 7]",0.0,0.0,0.686445951461792,3.146512031555176,0.615362016462214,3.0,31.0,0.0
Y,R,"[6, 8]",1.0,1.0,0.26607608795166016,1.6019508838653564,0.33421513180845663,3.0,32.0,0.0
Y,R,"[6, 9]",1.0,2.0,0.2800750732421875,1.9130568504333496,0.6301924855531326,3.0,33.0,0.0
Y,R,"[6, 10]",1.0,3.0,0.18724703788757324,1.739577054977417,0.5531349244644129,3.0,34.0,0.0
R,U,"[5, 10]",1.0,4.0,0.22091102600097656,1.705312967300415,0.4917272719093017,3.0,35.0,0.0
R,U,"[4, 10]",1.0,5.0,0.2029118537902832,1.6899118423461914,0.4983509130332676,3.0,36.0,0.0
B,L,"[4, 9]",1.0,6.0,0.238908052444458,1.885956048965454,0.6340479961910983,3.0,37.0,0.0
R,U,"[3, 9]",1.0,7.0,0.20651483535766602,1.6652719974517822,0.44941143007756523,3.0,38.0,0.0
R,U,"[2, 9]",0.0,7.0,0.34088706970214844,1.8124117851257324,0.4617376457987701,3.0,39.0,0.0
R,U,"[1, 9]",0.0,7.0,0.7515299320220947,2.424938917160034,0.6865075502106366,3.0,40.0,0.0
,,"(6, 6)",,,,,,,,
Y,R,"[6, 7]",0.0,0.0,0.46257615089416504,3.0934438705444336,0.6132593455110964,4.0,41.0,0.0
Y,R,"[6, 8]",1.0,1.0,0.2574779987335205,1.5562069416046143,0.28640599619032286,4.0,42.0,0.0
Y,R,"[6, 9]",1.0,2.0,0.3834969997406006,1.804110050201416,0.4235756352213652,4.0,43.0,0.0
Y,R,"[6, 10]",1.0,3.0,0.1614089012145996,1.7283539772033691,0.5684767521856362,4.0,44.0,0.0
R,U,"[5, 10]",1.0,4.0,0.15413498878479004,1.7171838283538818,0.5522806243437773,4.0,45.0,0.0
R,U,"[4, 10]",1.0,5.0,0.11040902137756348,1.7361509799957275,0.6216575983254888,4.0,46.0,0.0
B,L,"[4, 9]",1.0,6.0,0.15119218826293945,1.521049976348877,0.37619513374749997,4.0,47.0,0.0
R,U,"[3, 9]",1.0,7.0,0.29656505584716797,1.9688239097595215,0.6779611378574246,4.0,48.0,0.0
R,U,"[2, 9]",0.0,7.0,0.19491195678710938,1.8416259288787842,0.6528690701676119,4.0,49.0,0.0
B,L,"[2, 8]",0.0,7.0,0.1716928482055664,1.844120979309082,0.6802498254300655,4.0,50.0,0.0
,,"(6, 6)",,,,,,,,
Y,R,"[6, 7]",0.0,0.0,0.45772719383239746,2.505251884460449,0.2526059536700219,5.0,51.0,0.0
Y,R,"[6, 8]",1.0,1.0,0.17676520347595215,1.7828919887542725,0.6017694970656202,5.0,52.0,0.0
Y,R,"[6, 9]",1.0,2.0,0.18123793601989746,1.7218730449676514,0.5402643431940319,5.0,53.0,0.0
Y,R,"[6, 10]",1.0,3.0,0.21273398399353027,1.673475980758667,0.46374471311075893,5.0,54.0,0.0
R,U,"[5, 10]",1.0,4.0,0.17333602905273438,1.5790960788726807,0.3928907485478901,5.0,55.0,0.0
R,U,"[4, 10]",1.0,5.0,0.16255903244018555,1.4778809547424316,0.3208610442964517,5.0,56.0,0.0
B,L,"[4, 9]",1.0,6.0,0.2252941131591797,1.8502399921417236,0.6207477614905297,5.0,57.0,0.0
R,U,"[3, 9]",1.0,7.0,0.16949200630187988,1.7742340564727783,0.6116222934672775,5.0,58.0,0.0
B,L,"[3, 8]",0.0,7.0,0.15256500244140625,1.5513160228729248,0.41300526071477867,5.0,59.0,0.0
Y,R,"[3, 9]",0.0,7.0,0.19697308540344238,1.6886470317840576,0.48490881121866214,5.0,60.0,0.0
,,"(6, 6)",,,,,,,,
Y,R,"[6, 7]",0.0,0.0,0.8143858909606934,2.9824299812316895,0.43391450520230956,6.0,61.0,0.0
Y,R,"[6, 8]",1.0,1.0,0.16521692276000977,1.839951992034912,0.6736649840102675,6.0,62.0,0.0
Y,R,"[6, 9]",1.0,2.0,0.1560819149017334,1.5999960899353027,0.4404453974839415,6.0,63.0,0.0
Y,R,"[6, 10]",1.0,3.0,0.18397188186645508,1.805708885192871,0.6292639766901942,6.0,64.0,0.0
R,U,"[5, 10]",1.0,4.0,0.15713882446289062,1.8800699710845947,0.7092485196955804,6.0,65.0,0.0
R,U,"[4, 10]",1.0,5.0,0.18511509895324707,1.4251930713653564,0.2514911395540755,6.0,66.0,0.0
B,L,"[4, 9]",1.0,6.0,0.18822479248046875,1.7883610725402832,0.589461492669924,6.0,67.0,0.0
R,U,"[3, 9]",1.0,7.0,0.17380881309509277,1.6085469722747803,0.43141551928998206,6.0,68.0,0.0
B,L,"[3, 8]",-2.0,7.0,1.224256992340088,2.929744005203247,0.7274913982802411,6.0,69.0,0.0
G,D,"[4, 8]",0.0,7.0,0.22948598861694336,1.5845189094543457,0.3623148532779602,6.0,70.0,0.0
,,"(6, 6)",,,,,,,,
Y,R,"[6, 7]",0.0,0.0,0.8756661415100098,3.052933931350708,0.6481889100651774,7.0,71.0,0.0
Y,R,"[6, 8]",1.0,1.0,0.18187189102172852,1.8082048892974854,0.623402347819008,7.0,72.0,0.0
Y,R,"[6, 9]",1.0,2.0,0.16642498970031738,1.5076608657836914,0.347493225803362,7.0,73.0,0.0
Y,R,"[6, 10]",1.0,3.0,0.27084994316101074,1.657742977142334,0.38857316024523353,7.0,74.0,0.0
R,U,"[5, 10]",1.0,4.0,0.23075485229492188,1.484117031097412,0.2561529691386664,7.0,75.0,0.0
R,U,"[4, 10]",1.0,5.0,0.21347284317016602,1.7992558479309082,0.5882997168174563,7.0,76.0,0.0
B,L,"[4, 9]",1.0,6.0,0.2963700294494629,1.729417085647583,0.43452123500758766,7.0,77.0,0.0
R,U,"[3, 9]",1.0,7.0,0.23507404327392578,1.8507061004638672,0.6182632509650748,7.0,78.0,0.0
B,L,"[3, 8]",0.0,7.0,0.2630650997161865,1.546821117401123,0.2819918380934935,7.0,79.0,0.0
Y,R,"[3, 9]",0.0,7.0,0.4041628837585449,1.8778629302978516,0.4764045917400706,7.0,80.0,0.0
,,"(6, 6)",,,,,,,,
Y,R,"[6, 7]",0.0,0.0,0.9574539661407471,3.416496992111206,0.5593880748628168,8.0,81.0,0.0
Y,R,"[6, 8]",1.0,1.0,0.17565703392028809,1.6668269634246826,0.4928009639736812,8.0,82.0,0.0
Y,R,"[6, 9]",1.0,2.0,0.19499611854553223,1.4928791522979736,0.30260592105392536,8.0,83.0,0.0
Y,R,"[6, 10]",1.0,3.0,0.2739839553833008,1.645341157913208,0.36430476976196474,8.0,84.0,0.0
R,U,"[5, 10]",1.0,4.0,0.21528100967407227,1.5452520847320557,0.32630091463922556,8.0,85.0,0.0
R,U,"[4, 10]",1.0,5.0,0.22466206550598145,1.6785168647766113,0.4547248772378898,8.0,86.0,0.0
B,L,"[4, 9]",1.0,6.0,0.17948198318481445,1.6844909191131592,0.5057088193716726,8.0,87.0,0.0
R,U,"[3, 9]",1.0,7.0,0.2499239444732666,1.9831600189208984,0.7391223954036541,8.0,88.0,0.0
Y,R,"[3, 10]",0.0,7.0,0.19265007972717285,1.75819993019104,0.5636177766601179,8.0,89.0,0.0
Y,R,"[3, 11]",0.0,7.0,0.2079179286956787,1.8551700115203857,0.6353533362711248,8.0,90.0,0.0
,,"(6, 6)",,,,,,,,
Y,R,"[6, 7]",0.0,0.0,0.3889429569244385,3.068760871887207,0.6872171185842231,9.0,91.0,0.0
Y,R,"[6, 8]",1.0,1.0,0.1905531883239746,1.8917489051818848,0.6955973261673549,9.0,92.0,0.0
Y,R,"[6, 9]",1.0,2.0,0.2035369873046875,1.5957319736480713,0.3915723255022915,9.0,93.0,0.0
Y,R,"[6, 10]",1.0,3.0,0.19585704803466797,1.785362958908081,0.5933887275340789,9.0,94.0,0.0
R,U,"[5, 10]",1.0,4.0,0.17754793167114258,1.6247100830078125,0.4514040254583528,9.0,95.0,0.0
R,U,"[4, 10]",1.0,5.0,0.17320513725280762,1.5567619800567627,0.3917099245962262,9.0,96.0,0.0
B,L,"[4, 9]",1.0,6.0,0.21618199348449707,1.8698909282684326,0.6612282734633972,9.0,97.0,0.0
R,U,"[3, 9]",1.0,7.0,0.2115340232849121,1.6444709300994873,0.43905910118444946,9.0,98.0,0.0
B,L,"[3, 8]",0.0,7.0,0.18045711517333984,1.5221748352050781,0.34473779313982106,9.0,99.0,0.0
B,L,"[3, 7]",0.0,7.0,0.21547508239746094,1.4603030681610107,0.2550968703876544,9.0,100.0,0.0
,,"(6, 6)",,,,,,,,
Y,R,"[6, 7]",0.0,0.0,0.7248730659484863,2.9315059185028076,0.45284580066062524,10.0,101.0,0.0
Y,R,"[6, 8]",1.0,1.0,0.1717679500579834,1.4857609272003174,0.32216035610285326,10.0,102.0,0.0
Y,R,"[6, 9]",1.0,2.0,0.2715790271759033,1.7081830501556396,0.4301995980523225,10.0,103.0,0.0
Y,R,"[6, 10]",1.0,3.0,0.19379901885986328,1.6526470184326172,0.44941209379745944,10.0,104.0,0.0
R,U,"[5, 10]",1.0,4.0,0.19479107856750488,1.5928921699523926,0.3923539872002799,10.0,105.0,0.0
R,U,"[4, 10]",1.0,5.0,0.3604881763458252,1.6938450336456299,0.33609979811411766,10.0,106.0,0.0
B,L,"[4, 9]",1.0,6.0,0.22937703132629395,1.6853208541870117,0.45455078092455975,10.0,107.0,0.0
R,U,"[3, 9]",1.0,7.0,0.18685197830200195,1.7308108806610107,0.5518508290696236,10.0,108.0,0.0
G,D,"[4, 9]",0.0,7.0,0.1817018985748291,1.4673840999603271,0.2862335681546266,10.0,109.0,0.0
G,D,"[5, 9]",0.0,7.0,0.20801496505737305,1.8304979801177979,0.6163825783678736,10.0,110.0,0.0
,,"(6, 6)",,,,,,,,
Y,R,"[6, 7]",0.0,0.0,0.6671221256256104,2.8485329151153564,0.5148923064865766,11.0,111.0,0.0
Y,R,"[6, 8]",1.0,1.0,0.260699987411499,1.7282090187072754,0.45976175080933734,11.0,112.0,0.0
Y,R,"[6, 9]",1.0,2.0,0.25911617279052734,1.542755126953125,0.2859705893171158,11.0,113.0,0.0
Y,R,"[6, 10]",1.0,3.0,0.28220486640930176,1.7822771072387695,0.5013255224996089,11.0,114.0,0.0
R,U,"[5, 10]",1.0,4.0,0.15469121932983398,1.4714691638946533,0.32285955977768377,11.0,115.0,0.0
R,U,"[4, 10]",1.0,5.0,0.19495010375976562,1.5671889781951904,0.3733418219159396,11.0,116.0,0.0
B,L,"[4, 9]",1.0,6.0,0.20126700401306152,1.7337210178375244,0.5401665863276384,11.0,117.0,0.0
R,U,"[3, 9]",1.0,7.0,0.17915987968444824,1.597491979598999,0.42136645312736065,11.0,118.0,0.0
R,U,"[2, 9]",0.0,7.0,0.2739071846008301,1.6353161334991455,0.3564099326425084,11.0,119.0,0.0
R,U,"[1, 9]",0.0,7.0,0.4575679302215576,1.7835111618041992,0.3231376220713946,11.0,120.0,0.0
,,"(6, 6)",,,,,,,,
Y,R,"[6, 7]",0.0,0.0,0.545759916305542,3.507538080215454,0.5470467697374739,12.0,121.0,0.0
Y,R,"[6, 8]",1.0,1.0,0.29256200790405273,1.6084420680999756,0.30566462072980044,12.0,122.0,0.0
Y,R,"[6, 9]",1.0,2.0,0.41156506538391113,1.783634901046753,0.3725855679346836,12.0,123.0,0.0
Y,R,"[6, 10]",1.0,3.0,0.282210111618042,1.530423879623413,0.25301456293234403,12.0,124.0,0.0
R,U,"[5, 10]",1.0,4.0,0.2298750877380371,1.8605740070343018,0.629807091099422,12.0,125.0,0.0
R,U,"[4, 10]",1.0,5.0,0.15617704391479492,1.4992389678955078,0.345999933381817,12.0,126.0,0.0
B,L,"[4, 9]",1.0,6.0,0.2501840591430664,1.913646936416626,0.6595731661045914,12.0,127.0,0.0
R,U,"[3, 9]",1.0,7.0,0.19012999534606934,1.6195249557495117,0.4290716096265949,12.0,128.0,0.0
R,U,"[2, 9]",0.0,7.0,0.2739109992980957,1.5561599731445312,0.26855665534171547,12.0,129.0,0.0
G,D,"[3, 9]",0.0,7.0,0.39306092262268066,1.662505865097046,0.2643852745289323,12.0,130.0,0.0
,,"(6, 6)",,,,,,,,
Y,R,"[6, 7]",0.0,0.0,0.531033992767334,3.4308269023895264,0.39497770170994895,13.0,131.0,0.0
Y,R,"[6, 8]",1.0,1.0,0.17833304405212402,1.7712910175323486,0.5992770528433822,13.0,132.0,0.0
Y,R,"[6, 9]",1.0,2.0,0.23705816268920898,1.5714061260223389,0.33765743865317555,13.0,133.0,0.0
Y,R,"[6, 10]",1.0,3.0,0.2675778865814209,1.6739637851715088,0.41174498705866325,13.0,134.0,0.0
Y,R,"[6, 11]",0.0,3.0,0.21981406211853027,1.8050389289855957,0.5996507376107851,13.0,135.0,0.0
R,U,"[5, 11]",0.0,3.0,0.18706393241882324,1.8004670143127441,0.6167193979008346,13.0,136.0,0.0
B,L,"[5, 10]",1.0,4.0,0.38638806343078613,2.073450803756714,0.6902961104855111,13.0,137.0,0.0
R,U,"[4, 10]",1.0,5.0,0.1904599666595459,1.667435884475708,0.47429944455417566,13.0,138.0,0.0
R,U,"[3, 10]",0.0,5.0,0.30971193313598633,1.8173110485076904,0.5081523124005628,13.0,139.0,0.0
Y,R,"[3, 11]",0.0,5.0,0.19024085998535156,1.8815062046051025,0.6894723224006849,13.0,140.0,0.0
,,"(6, 6)",,,,,,,,
Y,R,"[6, 7]",0.0,0.0,0.5359790325164795,3.0058789253234863,0.3621248767872201,14.0,141.0,0.0
Y,R,"[6, 8]",1.0,1.0,0.1950669288635254,1.6169209480285645,0.41241193950050614,14.0,142.0,0.0
Y,R,"[6, 9]",1.0,2.0,0.17038798332214355,1.5816230773925781,0.41065526445628514,14.0,143.0,0.0
Y,R,"[6, 10]",1.0,3.0,0.22687101364135742,1.8618900775909424,0.6389241163203214,14.0,144.0,0.0
R,U,"[5, 10]",1.0,4.0,0.17193889617919922,1.5840740203857422,0.4231692927029479,14.0,145.0,0.0
R,U,"[4, 10]",1.0,5.0,0.32772302627563477,1.9860339164733887,0.6587809610882011,14.0,146.0,0.0
B,L,"[4, 9]",1.0,6.0,0.2002558708190918,1.7214438915252686,0.5302880879803327,14.0,147.0,0.0
R,U,"[3, 9]",1.0,7.0,0.455859899520874,2.159976005554199,0.6900172441183783,14.0,148.0,0.0
Y,R,"[3, 10]",0.0,7.0,0.2479550838470459,1.801650047302246,0.5585041465476921,14.0,149.0,0.0
B,L,"[3, 9]",0.0,7.0,0.35189390182495117,1.9396531581878662,0.598363177481171,14.0,150.0,0.0
,,"(6, 6)",,,,,,,,
Y,R,"[6, 7]",0.0,0.0,0.8857309818267822,2.803256034851074,0.4680795984967595,15.0,151.0,0.0
Y,R,"[6, 8]",1.0,1.0,0.2598729133605957,1.5193989276885986,0.2542947992616574,15.0,152.0,0.0
Y,R,"[6, 9]",1.0,2.0,0.32921385765075684,1.7382521629333496,0.40886492611103786,15.0,153.0,0.0
Y,R,"[6, 10]",1.0,3.0,0.25279688835144043,1.696794033050537,0.45575244132948867,15.0,154.0,0.0
R,U,"[5, 10]",1.0,4.0,0.18080496788024902,1.8557040691375732,0.6777909002475511,15.0,155.0,0.0
R,U,"[4, 10]",1.0,5.0,0.14781904220581055,1.7219510078430176,0.5831320166320513,15.0,156.0,0.0
B,L,"[4, 9]",1.0,6.0,0.18949508666992188,1.9028329849243164,0.7190138853609649,15.0,157.0,0.0
R,U,"[3, 9]",1.0,7.0,0.26443910598754883,1.9094560146331787,0.6451852190706466,15.0,158.0,0.0
R,U,"[2, 9]",0.0,7.0,0.23580718040466309,1.778986930847168,0.5409819804200782,15.0,159.0,0.0
B,L,"[2, 8]",0.0,7.0,0.20015192031860352,1.7663469314575195,0.5738795382033863,15.0,160.0,0.0
,,"(6, 6)",,,,,,,,
Y,R,"[6, 7]",0.0,0.0,0.6306889057159424,3.355497121810913,0.6291220024824541,16.0,161.0,0.0
Y,R,"[6, 8]",1.0,1.0,0.17770981788635254,1.576524019241333,0.3892303685949177,16.0,162.0,0.0
Y,R,"[6, 9]",1.0,2.0,0.18707799911499023,1.5410499572753906,0.3635008459714859,16.0,163.0,0.0
Y,R,"[6, 10]",1.0,3.0,0.20306897163391113,1.7300429344177246,0.5267631463230996,16.0,164.0,0.0
R,U,"[5, 10]",1.0,4.0,0.14732789993286133,1.5232610702514648,0.38348473829495566,16.0,165.0,0.0
R,U,"[4, 10]",1.0,5.0,0.1620190143585205,1.7175908088684082,0.550714157826469,16.0,166.0,0.0
B,L,"[4, 9]",1.0,6.0,0.528372049331665,2.085120916366577,0.5524973848358219,16.0,167.0,0.0
R,U,"[3, 9]",1.0,7.0,0.17602205276489258,1.4825160503387451,0.30188272962766033,16.0,168.0,0.0
R,U,"[2, 9]",0.0,7.0,0.22688078880310059,1.6051480770111084,0.3736377225370432,16.0,169.0,0.0
B,L,"[2, 8]",0.0,7.0,0.17864108085632324,1.557168960571289,0.3807542718756266,16.0,170.0,0.0
,,"(6, 6)",,,,,,,,
Y,R,"[6, 7]",-2.0,0.0,1.0762488842010498,3.5089359283447266,0.7227421809889194,17.0,171.0,0.0
Y,R,"[6, 8]",1.0,1.0,0.26900410652160645,1.7456860542297363,0.48511547597145976,17.0,172.0,0.0
Y,R,"[6, 9]",1.0,2.0,0.19127607345581055,1.7693181037902832,0.5709142162344442,17.0,173.0,0.0
Y,R,"[6, 10]",1.0,3.0,0.1931610107421875,1.4945271015167236,0.29900508298537903,17.0,174.0,0.0
R,U,"[5, 10]",1.0,4.0,0.19426321983337402,1.6085820198059082,0.40747968097338205,17.0,175.0,0.0
R,U,"[4, 10]",1.0,5.0,0.21324491500854492,1.527113914489746,0.3178921030757355,17.0,176.0,0.0
B,L,"[4, 9]",1.0,6.0,0.22990798950195312,1.8376781940460205,0.6052507852543826,17.0,177.0,0.0
R,U,"[3, 9]",1.0,7.0,0.24052000045776367,1.9842021465301514,0.7393231623611982,17.0,178.0,0.0
G,D,"[4, 9]",0.0,7.0,0.2901918888092041,1.7430369853973389,0.4492747962938082,17.0,179.0,0.0
R,U,"[3, 9]",0.0,7.0,0.19120192527770996,1.4924979209899902,0.29185066720763153,17.0,180.0,0.0
,,"(6, 6)",,,,,,,,
Y,R,"[6, 7]",0.0,0.0,0.5612690448760986,2.606443166732788,0.6644316879507854,18.0,181.0,0.0
Y,R,"[6, 8]",1.0,1.0,0.18325209617614746,1.8922829627990723,0.7066842294788265,18.0,182.0,0.0
Y,R,"[6, 9]",1.0,2.0,0.17478108406066895,1.5065839290618896,0.3302853231285172,18.0,183.0,0.0
Y,R,"[6, 10]",1.0,3.0,0.311176061630249,1.869452953338623,0.5495027197944375,18.0,184.0,0.0
R,U,"[5, 10]",1.0,4.0,0.18048906326293945,1.6727190017700195,0.48882167748674554,18.0,185.0,0.0
R,U,"[4, 10]",1.0,5.0,0.1938169002532959,1.9419610500335693,0.7471540429692627,18.0,186.0,0.0
B,L,"[4, 9]",1.0,6.0,0.18677186965942383,1.7828810214996338,0.5967831777521635,18.0,187.0,0.0
R,U,"[3, 9]",1.0,7.0,0.22742486000061035,1.705496072769165,0.4690630824108572,18.0,188.0,0.0
B,L,"[3, 8]",0.0,7.0,0.3354959487915039,1.7944879531860352,0.4634098921375165,18.0,189.0,0.0
G,D,"[4, 8]",0.0,7.0,0.5194509029388428,1.9298100471496582,0.40984955364589615,18.0,190.0,0.0
,,"(6, 6)",,,,,,,,
Y,R,"[6, 7]",0.0,0.0,0.4209880828857422,2.3384971618652344,0.4150421600795169,19.0,191.0,0.0
Y,R,"[6, 8]",1.0,1.0,0.23977994918823242,1.7573411464691162,0.5055380948218118,19.0,192.0,0.0
Y,R,"[6, 9]",1.0,2.0,0.17594122886657715,1.6488490104675293,0.47108265259402615,19.0,193.0,0.0
Y,R,"[6, 10]",1.0,3.0,0.2380368709564209,1.6475989818572998,0.41853522294564754,19.0,194.0,0.0
R,U,"[5, 10]",1.0,4.0,0.3067350387573242,2.0143589973449707,0.6993530426011001,19.0,195.0,0.0
R,U,"[4, 10]",1.0,5.0,0.17005491256713867,1.5953528881072998,0.42821181763895855,19.0,196.0,0.0
B,L,"[4, 9]",1.0,6.0,0.19698190689086914,1.9214539527893066,0.7326601056845958,19.0,197.0,0.0
R,U,"[3, 9]",1.0,7.0,0.24032902717590332,1.5964901447296143,0.3460907596325496,19.0,198.0,0.0
G,D,"[4, 9]",0.0,7.0,0.2865331172943115,1.7779650688171387,0.4906013762570547,19.0,199.0,0.0
B,L,"[4, 8]",0.0,7.0,0.16464805603027344,1.8442142009735107,0.6845969528771201,19.0,200.0,0.0
,,"(6, 6)",,,,,,,,
Y,R,"[6, 7]",0.0,0.0,0.4550611972808838,2.8030600547790527,0.4877104530913735,20.0,201.0,0.0
Y,R,"[6, 8]",1.0,1.0,0.18698406219482422,1.5824079513549805,0.403558182238939,20.0,202.0,0.0
Y,R,"[6, 9]",1.0,2.0,0.1733858585357666,1.5348339080810547,0.3715743644138513,20.0,203.0,0.0
Y,R,"[6, 10]",1.0,3.0,0.18288707733154297,1.894826889038086,0.7161451564172092,20.0,204.0,0.0
R,U,"[5, 10]",-1.0,3.0,0.03329300880432129,5.512826919555664,0.41231446281810324,20.0,205.0,0.0
R,U,"[4, 10]",1.0,4.0,0.25925207138061523,1.835815191268921,0.5645731753246597,20.0,206.0,0.0
B,L,"[4, 9]",1.0,5.0,0.1668388843536377,1.5334970951080322,0.364956737128167,20.0,207.0,0.0
R,U,"[3, 9]",1.0,6.0,0.18157505989074707,1.5825989246368408,0.39747859681628667,20.0,208.0,0.0
G,D,"[4, 9]",-2.0,6.0,1.4732379913330078,2.719312906265259,0.2668152109923485,20.0,209.0,0.0
Y,R,"[4, 10]",0.0,6.0,0.2404799461364746,1.9573700428009033,0.707067214084922,20.0,210.0,0.0
,,"(6, 6)",,,,,,,,
Y,R,"[6, 7]",0.0,0.0,0.4564030170440674,4.302047967910767,0.7256163689279411,21.0,211.0,0.0
Y,R,"[6, 8]",1.0,1.0,0.1604921817779541,1.7683908939361572,0.6107442299045254,21.0,212.0,0.0
Y,R,"[6, 9]",1.0,2.0,0.19281005859375,1.546799898147583,0.357702664852062,21.0,213.0,0.0
Y,R,"[6, 10]",1.0,3.0,0.19704699516296387,1.7758691310882568,0.5833384023300281,21.0,214.0,0.0
R,U,"[5, 10]",1.0,4.0,0.1566450595855713,1.5872209072113037,0.4206236960706399,21.0,215.0,0.0
R,U,"[4, 10]",1.0,5.0,0.2091231346130371,1.582805871963501,0.3701635392573183,21.0,216.0,0.0
B,L,"[4, 9]",1.0,6.0,0.20788884162902832,1.7119100093841553,0.49837420897022083,21.0,217.0,0.0
R,U,"[3, 9]",1.0,7.0,0.21120810508728027,1.6642048358917236,0.44604609742096507,21.0,218.0,0.0
G,D,"[4, 9]",0.0,7.0,0.25638890266418457,1.9423530101776123,0.6715083659139718,21.0,219.0,0.0
Y,R,"[4, 10]",0.0,7.0,0.15008115768432617,1.7552821636199951,0.6101065442425482,21.0,220.0,0.0
,,"(6, 6)",,,,,,,,
Y,R,"[6, 7]",0.0,0.0,0.5587902069091797,2.7499330043792725,0.7098498498521193,22.0,221.0,0.0
Y,R,"[6, 8]",1.0,1.0,0.1620190143585205,1.7990989685058594,0.6425550663404109,22.0,222.0,0.0
Y,R,"[6, 9]",1.0,2.0,0.17923617362976074,1.8583509922027588,0.6838652444078949,22.0,223.0,0.0
Y,R,"[6, 10]",1.0,3.0,0.17446494102478027,1.5002570152282715,0.3177190296755347,22.0,224.0,0.0
R,U,"[5, 10]",1.0,4.0,0.2913191318511963,1.6058759689331055,0.3068506990891632,22.0,225.0,0.0
R,U,"[4, 10]",1.0,5.0,0.28665804862976074,1.7952489852905273,0.5185998634126101,22.0,226.0,0.0
B,L,"[4, 9]",1.0,6.0,0.17833805084228516,1.4455640316009521,0.26428373440483904,22.0,227.0,0.0
R,U,"[3, 9]",1.0,7.0,0.2695198059082031,1.9022729396820068,0.6328517665133241,22.0,228.0,0.0
B,L,"[3, 8]",0.0,7.0,0.3424549102783203,1.9442980289459229,0.59371057608373,22.0,229.0,0.0
R,U,"[2, 8]",0.0,7.0,0.16690683364868164,1.4837329387664795,0.3277627750119503,22.0,230.0,0.0
,,"(6, 6)",,,,,,,,
Y,R,"[6, 7]",0.0,0.0,0.5967490673065186,2.7059638500213623,0.45020806818292347,23.0,231.0,0.0
Y,R,"[6, 8]",1.0,1.0,0.15407705307006836,1.6610229015350342,0.5111222850243408,23.0,232.0,0.0
Y,R,"[6, 9]",1.0,2.0,0.1638329029083252,1.4391651153564453,0.28374727028377955,23.0,233.0,0.0
Y,R,"[6, 10]",1.0,3.0,0.18585205078125,1.733238935470581,0.5500684658478295,23.0,234.0,0.0
R,U,"[5, 10]",1.0,4.0,0.148576021194458,1.8175489902496338,0.6673421940582702,23.0,235.0,0.0
R,U,"[4, 10]",1.0,5.0,0.17385411262512207,1.7766480445861816,0.5942675052714221,23.0,236.0,0.0
B,L,"[4, 9]",1.0,6.0,0.17040610313415527,1.5763599872589111,0.4205671052238688,23.0,237.0,0.0
R,U,"[3, 9]",1.0,7.0,0.22388792037963867,1.7508940696716309,0.5212802125246898,23.0,238.0,0.0
B,L,"[3, 8]",0.0,7.0,0.46051907539367676,1.8489179611206055,0.38699569173162035,23.0,239.0,0.0
R,U,"[2, 8]",0.0,7.0,0.7557690143585205,2.382235050201416,0.618897153511586,23.0,240.0,0.0
,,"(6, 6)",,,,,,,,
Y,R,"[6, 7]",-2.0,0.0,1.055845022201538,3.282811164855957,0.534977380700505,24.0,241.0,0.0
Y,R,"[6, 8]",1.0,1.0,0.16811895370483398,1.698254108428955,0.5331484851232537,24.0,242.0,0.0
Y,R,"[6, 9]",1.0,2.0,0.17514300346374512,1.8445930480957031,0.6609886258059128,24.0,243.0,0.0
Y,R,"[6, 10]",1.0,3.0,0.18276500701904297,1.4423139095306396,0.27020867098596457,24.0,244.0,0.0
R,U,"[5, 10]",1.0,4.0,0.23082184791564941,1.6080279350280762,0.37819508801022417,24.0,245.0,0.0
R,U,"[4, 10]",1.0,5.0,0.1886610984802246,1.5213661193847656,0.3327915660331144,24.0,246.0,0.0
B,L,"[4, 9]",1.0,6.0,0.19268298149108887,1.8140959739685059,0.6133383062735742,24.0,247.0,0.0
R,U,"[3, 9]",1.0,7.0,0.1997358798980713,1.4971590042114258,0.2940834683121516,24.0,248.0,0.0
R,U,"[2, 9]",0.0,7.0,0.25049400329589844,1.5529119968414307,0.3135610587965952,24.0,249.0,0.0
R,U,"[1, 9]",0.0,7.0,0.43770909309387207,1.9360568523406982,0.49937322498881215,24.0,250.0,0.0
,,"(6, 6)",,,,,,,,
Y,R,"[6, 7]",0.0,0.0,0.3294699192047119,2.0039079189300537,0.27012830087811973,25.0,251.0,0.0
Y,R,"[6, 8]",1.0,1.0,0.18228888511657715,1.8529407978057861,0.6725592034691699,25.0,252.0,0.0
Y,R,"[6, 9]",1.0,2.0,0.16248416900634766,1.627082109451294,0.4665096667012899,25.0,253.0,0.0
Y,R,"[6, 10]",1.0,3.0,0.19402408599853516,1.5232489109039307,0.32313156715256525,25.0,254.0,0.0
R,U,"[5, 10]",1.0,4.0,0.22628092765808105,1.6869430541992188,0.45985913414411267,25.0,255.0,0.0
R,U,"[4, 10]",1.0,5.0,0.18799901008605957,1.7485699653625488,0.5749331164648858,25.0,256.0,0.0
B,L,"[4, 9]",1.0,6.0,0.19289302825927734,1.7412490844726562,0.5495527674391574,25.0,257.0,0.0
R,U,"[3, 9]",1.0,7.0,0.22094106674194336,1.9126811027526855,0.6953676213367916,25.0,258.0,0.0
B,L,"[3, 8]",0.0,7.0,0.15522980690002441,1.8323090076446533,0.6777083181754537,25.0,259.0,0.0
G,D,"[4, 8]",0.0,7.0,0.16153311729431152,1.434032917022705,0.27860340011144735,25.0,260.0,0.0
,,"(6, 6)",,,,,,,,
Y,R,"[6, 7]",0.0,0.0,0.5455999374389648,2.5391550064086914,0.5174097051821945,26.0,261.0,0.0
Y,R,"[6, 8]",1.0,1.0,0.15820598602294922,1.6250550746917725,0.45917267665819345,26.0,262.0,0.0
Y,R,"[6, 9]",1.0,2.0,0.1735680103302002,1.5008740425109863,0.32703052810490796,26.0,263.0,0.0
Y,R,"[6, 10]",1.0,3.0,0.24657392501831055,1.5725162029266357,0.33262003685255515,26.0,264.0,0.0
R,U,"[5, 10]",1.0,4.0,0.2043778896331787,1.762511968612671,0.5449540272468758,26.0,265.0,0.0
R,U,"[4, 10]",1.0,5.0,0.15320205688476562,1.632572889328003,0.4940595482215376,26.0,266.0,0.0
B,L,"[4, 9]",1.0,6.0,0.16203713417053223,1.818673849105835,0.6625258983173594,26.0,267.0,0.0
R,U,"[3, 9]",1.0,7.0,0.16145110130310059,1.5630180835723877,0.3924252270615909,26.0,268.0,0.0
B,L,"[3, 8]",0.0,7.0,0.5295441150665283,2.132934093475342,0.6085000522455799,26.0,269.0,0.0
Y,R,"[3, 9]",0.0,7.0,0.16714787483215332,1.872493028640747,0.7144197177732865,26.0,270.0,0.0
,,"(6, 6)",,,,,,,,
Y,R,"[6, 7]",0.0,0.0,0.4252939224243164,2.232974052429199,0.33081583543088666,27.0,271.0,0.0
Y,R,"[6, 8]",1.0,1.0,0.17148804664611816,1.4432878494262695,0.2740580500251523,27.0,272.0,0.0
Y,R,"[6, 9]",1.0,2.0,0.18309593200683594,1.4518189430236816,0.275770783268785,27.0,273.0,0.0
Y,R,"[6, 10]",1.0,3.0,0.1981661319732666,1.5560729503631592,0.3651369368260303,27.0,274.0,0.0
R,U,"[5, 10]",1.0,4.0,0.17249202728271484,1.8393778800964355,0.6541539495031112,27.0,275.0,0.0
R,U,"[4, 10]",1.0,5.0,0.18668103218078613,1.658318042755127,0.47925199933383505,27.0,276.0,0.0
B,L,"[4, 9]",1.0,6.0,0.2913830280303955,1.8272371292114258,0.523360532437585,27.0,277.0,0.0
R,U,"[3, 9]",1.0,7.0,0.2696959972381592,1.5921950340270996,0.33195590256712854,27.0,278.0,0.0
Y,R,"[3, 10]",-2.0,7.0,1.6417620182037354,2.9745490550994873,0.35638756173359715,27.0,279.0,0.0
Y,R,"[3, 11]",0.0,7.0,0.3044779300689697,1.6869070529937744,0.3932366904876584,27.0,280.0,0.0
,,"(6, 6)",,,,,,,,
Y,R,"[6, 7]",0.0,0.0,0.3609731197357178,2.2604739665985107,0.2537460823044576,28.0,281.0,0.0
Y,R,"[6, 8]",1.0,1.0,0.1810169219970703,1.884091854095459,0.7040588999066408,28.0,282.0,0.0
Y,R,"[6, 9]",1.0,2.0,0.17868900299072266,1.5538630485534668,0.37492155902248575,28.0,283.0,0.0
Y,R,"[6, 10]",1.0,3.0,0.21466588973999023,1.9167461395263672,0.7078978505709334,28.0,284.0,0.0
R,U,"[5, 10]",1.0,4.0,0.175994873046875,1.8174622058868408,0.6420944460986537,28.0,285.0,0.0
R,U,"[4, 10]",1.0,5.0,0.19134998321533203,1.4564990997314453,0.26558871962198854,28.0,286.0,0.0
B,L,"[4, 9]",1.0,6.0,0.38262200355529785,2.0342941284179688,0.6495010591175646,28.0,287.0,0.0
R,U,"[3, 9]",1.0,7.0,0.2175300121307373,1.9365530014038086,0.7191679029283451,28.0,288.0,0.0
B,L,"[3, 8]",0.0,7.0,0.19088292121887207,1.9392850399017334,0.7421754949182405,28.0,289.0,0.0
B,L,"[3, 7]",0.0,7.0,0.16167092323303223,1.6329569816589355,0.47484493379830456,28.0,290.0,0.0
,,"(6, 6)",,,,,,,,
Y,R,"[6, 7]",0.0,0.0,0.45220017433166504,2.372997999191284,0.31459681542862317,29.0,291.0,0.0
Y,R,"[6, 8]",1.0,1.0,0.18004107475280762,1.5409491062164307,0.3554888304576185,29.0,292.0,0.0
Y,R,"[6, 9]",1.0,2.0,0.1625831127166748,1.8750178813934326,0.7134663183348329,29.0,293.0,0.0
Y,R,"[6, 10]",1.0,3.0,0.16819500923156738,1.6894569396972656,0.5196303614174372,29.0,294.0,0.0
R,U,"[5, 10]",1.0,4.0,0.18187403678894043,1.6376709938049316,0.4573321943875815,29.0,295.0,0.0
R,U,"[4, 10]",1.0,5.0,0.18753910064697266,1.4845530986785889,0.3087016718961632,29.0,296.0,0.0
B,L,"[4, 9]",1.0,6.0,0.19420099258422852,1.5677781105041504,0.37625837722667177,29.0,297.0,0.0
R,U,"[3, 9]",1.0,7.0,0.20641708374023438,1.7475910186767578,0.5403118220622438,29.0,298.0,0.0
Y,R,"[3, 10]",0.0,7.0,0.1766200065612793,1.7934589385986328,0.6170079255270153,29.0,299.0,0.0
R,U,"[2, 10]",0.0,7.0,0.16048002243041992,1.5154831409454346,0.3494160686661066,29.0,300.0,0.0
,,"(6, 6)",,,,,,,,
Y,R,"[6, 7]",0.0,0.0,0.4696798324584961,2.3079111576080322,0.4405266419022174,30.0,301.0,0.0
Y,R,"[6, 8]",1.0,1.0,0.15673589706420898,1.6462440490722656,0.48670728687460063,30.0,302.0,0.0
Y,R,"[6, 9]",1.0,2.0,0.15076303482055664,1.5608088970184326,0.4140903516584464,30.0,303.0,0.0
Y,R,"[6, 10]",1.0,3.0,0.17005205154418945,1.767765998840332,0.5983861584455916,30.0,304.0,0.0
R,U,"[5, 10]",1.0,4.0,0.15839600563049316,1.5474491119384766,0.3793792618860125,30.0,305.0,0.0
R,U,"[4, 10]",1.0,5.0,0.14845705032348633,1.5966541767120361,0.44253655604148495,30.0,306.0,0.0
B,L,"[4, 9]",1.0,6.0,0.15507102012634277,1.8758389949798584,0.7347059637814985,30.0,307.0,0.0
R,U,"[3, 9]",1.0,7.0,0.2532789707183838,1.582205057144165,0.33380493000982914,30.0,308.0,0.0
Y,R,"[3, 10]",0.0,7.0,0.5725438594818115,1.8898279666900635,0.32366385778277285,30.0,309.0,0.0
B,L,"[3, 9]",0.0,7.0,0.19303584098815918,1.8592848777770996,0.6658059793259898,30.0,310.0,0.0
,,"(6, 6)",,,,,,,,
Y,R,"[6, 7]",0.0,0.0,0.5203120708465576,2.636101007461548,0.7354410074045113,31.0,311.0,0.0
Y,R,"[6, 8]",1.0,1.0,0.14795708656311035,1.849398136138916,0.701131965536453,31.0,312.0,0.0
Y,R,"[6, 9]",1.0,2.0,0.17003488540649414,1.8618419170379639,0.6967071802092528,31.0,313.0,0.0
Y,R,"[6, 10]",1.0,3.0,0.1652979850769043,1.6513400077819824,0.48120671293952105,31.0,314.0,0.0
R,U,"[5, 10]",1.0,4.0,0.18626713752746582,1.9061660766601562,0.7202771519651681,31.0,315.0,0.0
R,U,"[4, 10]",1.0,5.0,0.19932198524475098,1.536991834640503,0.34104407456351266,31.0,316.0,0.0
B,L,"[4, 9]",1.0,6.0,0.18993687629699707,1.924293041229248,0.7315799664856107,31.0,317.0,0.0
R,U,"[3, 9]",1.0,7.0,0.17984294891357422,1.8212449550628662,0.6361970729408956,31.0,318.0,0.0
Y,R,"[3, 10]",0.0,7.0,0.36093616485595703,2.091204881668091,0.7272535623234613,31.0,319.0,0.0
G,D,"[4, 10]",0.0,7.0,0.19458794593811035,1.483036994934082,0.2938161472618751,31.0,320.0,0.0
,,"(6, 6)",,,,,,,,
Y,R,"[6, 7]",0.0,0.0,0.4589231014251709,2.305945873260498,0.3332312848352722,32.0,321.0,0.0
Y,R,"[6, 8]",1.0,1.0,0.18458795547485352,1.6484849452972412,0.4650108105250785,32.0,322.0,0.0
Y,R,"[6, 9]",1.0,2.0,0.1635608673095703,1.8033618927001953,0.6346202932577079,32.0,323.0,0.0
Y,R,"[6, 10]",1.0,3.0,0.18052005767822266,1.76226806640625,0.5800786967142451,32.0,324.0,0.0
R,U,"[5, 10]",1.0,4.0,0.17098283767700195,1.9063000679016113,0.7362696253980143,32.0,325.0,0.0
R,U,"[4, 10]",1.0,5.0,0.18282794952392578,1.730827808380127,0.5504989949421221,32.0,326.0,0.0
R,U,"[3, 10]",0.0,5.0,0.29851794242858887,1.5904359817504883,0.29113468536205744,32.0,327.0,0.0
R,U,"[2, 10]",0.0,5.0,0.8291430473327637,2.2335598468780518,0.40792668027182444,32.0,328.0,0.0
G,D,"[3, 10]",0.0,5.0,0.2748219966888428,1.752073049545288,0.47644076332811,32.0,329.0,0.0
G,D,"[4, 10]",0.0,5.0,0.172760009765625,1.4763131141662598,0.30291407218586114,32.0,330.0,0.0
,,"(6, 6)",,,,,,,,
Y,R,"[6, 7]",0.0,0.0,0.39588499069213867,19.66793203353882,0.5200106698580237,33.0,331.0,0.0
Y,R,"[6, 8]",1.0,1.0,0.1746540069580078,1.6008720397949219,0.4210410698678888,33.0,332.0,0.0
Y,R,"[6, 9]",1.0,2.0,0.17667603492736816,1.8131439685821533,0.6337647994603404,33.0,333.0,0.0
Y,R,"[6, 10]",1.0,3.0,0.16804718971252441,1.863029956817627,0.6967603468871337,33.0,334.0,0.0
R,U,"[5, 10]",1.0,4.0,0.1342778205871582,1.7962958812713623,0.6599019855289465,33.0,335.0,0.0
R,U,"[4, 10]",1.0,5.0,0.1610250473022461,1.5629630088806152,0.40619458171451067,33.0,336.0,0.0
B,L,"[4, 9]",1.0,6.0,0.2002251148223877,1.8996751308441162,0.7054148664731948,33.0,337.0,0.0
R,U,"[3, 9]",1.0,7.0,0.17427301406860352,1.4524760246276855,0.2750675255377411,33.0,338.0,0.0
Y,R,"[3, 10]",0.0,7.0,0.1862649917602539,1.4568169116973877,0.28183086179672895,33.0,339.0,0.0
G,D,"[4, 10]",0.0,7.0,0.18068504333496094,1.8195500373840332,0.6342623182885428,33.0,340.0,0.0
,,"(6, 6)",,,,,,,,
Y,R,"[6, 7]",0.0,0.0,0.35378003120422363,2.192854881286621,0.4106693711242414,34.0,341.0,0.0
Y,R,"[6, 8]",1.0,1.0,0.16657400131225586,1.727489948272705,0.5712232488995921,34.0,342.0,0.0
Y,R,"[6, 9]",1.0,2.0,0.18895912170410156,1.4656498432159424,0.2869972903073697,34.0,343.0,0.0
Y,R,"[6, 10]",1.0,3.0,0.19367504119873047,1.9072849750518799,0.7106146291183657,34.0,344.0,0.0
R,U,"[5, 10]",1.0,4.0,0.33507299423217773,1.956407070159912,0.6337419008468863,34.0,345.0,0.0
R,U,"[4, 10]",1.0,5.0,0.1710951328277588,1.552443027496338,0.38618568054851893,34.0,346.0,0.0
B,L,"[4, 9]",1.0,6.0,0.18485713005065918,1.6891980171203613,0.5086954321200035,34.0,347.0,0.0
R,U,"[3, 9]",1.0,7.0,0.32747483253479004,1.712170124053955,0.38759762686161736,34.0,348.0,0.0
Y,R,"[3, 10]",0.0,7.0,0.356874942779541,1.9724500179290771,0.6097281517270147,34.0,349.0,0.0
R,U,"[2, 10]",0.0,7.0,0.20013904571533203,1.6496739387512207,0.4595405542436515,34.0,350.0,0.0
,,"(6, 6)",,,,,,,,
G,D,"[7, 6]",0.0,0.0,0.4763810634613037,4.5124499797821045,0.505134535908742,35.0,351.0,0.0
Y,R,"[7, 7]",0.0,0.0,0.14844799041748047,1.666975975036621,0.5220222617620461,35.0,352.0,0.0
Y,R,"[7, 8]",0.0,0.0,0.17679691314697266,1.7961359024047852,0.6179872439727125,35.0,353.0,0.0
Y,R,"[7, 9]",0.0,0.0,0.13671493530273438,1.604468822479248,0.4724737807993399,35.0,354.0,0.0
R,U,"[6, 9]",1.0,1.0,0.17271089553833008,1.4549710750579834,0.2776869643016474,35.0,355.0,0.0
R,U,"[5, 9]",0.0,1.0,0.20274996757507324,1.9251799583435059,0.7356519075583097,35.0,356.0,0.0
B,L,"[5, 8]",1.0,2.0,0.17444300651550293,1.4558098316192627,0.27524401683409916,35.0,357.0,0.0
B,L,"[5, 7]",1.0,3.0,0.26139187812805176,1.8175158500671387,0.5591041280862536,35.0,358.0,0.0
R,U,"[4, 7]",0.0,3.0,0.2376708984375,1.873417854309082,0.6490205871029581,35.0,359.0,0.0
G,D,"[5, 7]",0.0,3.0,0.2552931308746338,1.879446029663086,0.6288548800566467,35.0,360.0,0.0
,,"(6, 6)",,,,,,,,
R,U,"[5, 6]",1.0,1.0,0.3230259418487549,3.9989471435546875,0.7437018589176536,36.0,361.0,0.0
Y,R,"[5, 7]",1.0,2.0,0.20160293579101562,1.724139928817749,0.5347455528582062,36.0,362.0,0.0
Y,R,"[5, 8]",1.0,3.0,0.16727995872497559,1.6547880172729492,0.4895095100629154,36.0,363.0,0.0
Y,R,"[5, 9]",0.0,3.0,0.16631698608398438,1.4804861545562744,0.32012300397250915,36.0,364.0,0.0
R,U,"[4, 9]",1.0,4.0,0.23817992210388184,1.5986671447753906,0.3686336501393689,36.0,365.0,0.0
R,U,"[3, 9]",1.0,5.0,0.3049318790435791,1.838958978652954,0.5408094268902168,36.0,366.0,0.0
B,L,"[3, 8]",0.0,5.0,0.17028403282165527,1.7688698768615723,0.6095610078907749,36.0,367.0,0.0
R,U,"[2, 8]",0.0,5.0,0.15288591384887695,1.64410400390625,0.5036809374442247,36.0,368.0,0.0
R,U,"[1, 8]",0.0,5.0,0.16208195686340332,1.7046048641204834,0.541408853874661,36.0,369.0,0.0
B,L,"[1, 7]",0.0,5.0,0.6124050617218018,1.867102861404419,0.258769974021069,36.0,370.0,0.0
,,"(6, 6)",,,,,,,,
R,U,"[5, 6]",1.0,1.0,0.4676520824432373,2.43743896484375,0.3460384993477628,37.0,371.0,0.0
Y,R,"[5, 7]",1.0,2.0,0.22416901588439941,1.7501709461212158,0.5294045661173556,37.0,372.0,0.0
Y,R,"[5, 8]",1.0,3.0,0.15844392776489258,1.6460678577423096,0.47540451111221715,37.0,373.0,0.0
Y,R,"[5, 9]",0.0,3.0,0.18584918975830078,1.8296289443969727,0.6548406432140331,37.0,374.0,0.0
B,L,"[5, 8]",0.0,3.0,0.18347907066345215,1.499983787536621,0.32182727704800385,37.0,375.0,0.0
B,L,"[5, 7]",0.0,3.0,0.22847700119018555,1.7247440814971924,0.4962765970216968,37.0,376.0,0.0
B,L,"[5, 6]",0.0,3.0,0.2000899314880371,1.8395791053771973,0.6360790372947194,37.0,377.0,0.0
G,D,"[6, 6]",0.0,3.0,0.15874695777893066,1.503798007965088,0.33979371510201156,37.0,378.0,0.0
G,D,"[7, 6]",0.0,3.0,0.2478041648864746,1.8079369068145752,0.5639543461248746,37.0,379.0,0.0
G,D,"[8, 6]",0.0,3.0,0.3141288757324219,1.9467799663543701,0.6273129318553752,37.0,380.0,0.0
,,"(6, 6)",,,,,,,,
Y,R,"[6, 7]",0.0,0.0,0.2720620632171631,2.9793570041656494,0.6232450163862056,38.0,381.0,0.0
Y,R,"[6, 8]",1.0,1.0,0.21494412422180176,1.8849740028381348,0.6749534360314543,38.0,382.0,0.0
Y,R,"[6, 9]",1.0,2.0,0.15636086463928223,1.5664441585540771,0.4081946054383692,38.0,383.0,0.0
Y,R,"[6, 10]",1.0,3.0,0.24339890480041504,1.989927053451538,0.7477234699046291,38.0,384.0,0.0
R,U,"[5, 10]",1.0,4.0,0.18544292449951172,1.6971471309661865,0.5117402383168517,38.0,385.0,0.0
R,U,"[4, 10]",1.0,5.0,0.1970689296722412,1.878227949142456,0.6896055699298438,38.0,386.0,0.0
B,L,"[4, 9]",1.0,6.0,0.18067693710327148,1.5757689476013184,0.3990269803126848,38.0,387.0,0.0
B,L,"[4, 8]",0.0,6.0,0.17546391487121582,1.434363842010498,0.2501612069248548,38.0,388.0,0.0
R,U,"[3, 8]",0.0,6.0,0.4780309200286865,1.7452309131622314,0.2619196781560938,38.0,389.0,0.0
B,L,"[3, 7]",0.0,6.0,0.15438485145568848,1.4139859676361084,0.27594964158770335,38.0,390.0,0.0
,,"(6, 6)",,,,,,,,
R,U,"[5, 6]",1.0,1.0,0.4802110195159912,3.4828720092773438,0.6415485194218744,39.0,391.0,0.0
Y,R,"[5, 7]",1.0,2.0,0.2696201801300049,1.915605068206787,0.657166176688497,39.0,392.0,0.0
Y,R,"[5, 8]",1.0,3.0,0.2598690986633301,1.94989013671875,0.6906966103880522,39.0,393.0,0.0
R,U,"[4, 8]",0.0,3.0,0.20195388793945312,1.8776869773864746,0.6846157190495257,39.0,394.0,0.0
B,L,"[4, 7]",0.0,3.0,0.3285660743713379,1.9683399200439453,0.6361771462383239,39.0,395.0,0.0
R,U,"[3, 7]",0.0,3.0,0.1749110221862793,1.7612249851226807,0.5808390771971463,39.0,396.0,0.0
G,D,"[4, 7]",0.0,3.0,0.19025492668151855,1.4526290893554688,0.25038990604453526,39.0,397.0,0.0
Y,R,"[4, 8]",0.0,3.0,0.25515007972717285,1.943302869796753,0.6932183684488429,39.0,398.0,0.0
B,L,"[4, 7]",0.0,3.0,0.8358931541442871,2.2025997638702393,0.37933501191504376,39.0,399.0,0.0
G,D,"[5, 7]",0.0,3.0,0.8176648616790771,2.34128999710083,0.5204696472969912,39.0,400.0,0.0
,,"(6, 6)",,,,,,,,
R,U,"[5, 6]",1.0,1.0,0.4979591369628906,3.3858389854431152,0.7060071720422443,40.0,401.0,0.0
Y,R,"[5, 7]",1.0,2.0,0.2334730625152588,1.6254539489746094,0.3982583607836035,40.0,402.0,0.0
Y,R,"[5, 8]",1.0,3.0,0.27116894721984863,1.7948598861694336,0.5264725698948185,40.0,403.0,0.0
Y,R,"[5, 9]",0.0,3.0,0.2608301639556885,1.6953630447387695,0.43869555544780503,40.0,404.0,0.0
R,U,"[4, 9]",-2.0,3.0,1.7367668151855469,3.2355880737304688,0.540807421214244,40.0,405.0,0.0
G,D,"[5, 9]",0.0,3.0,0.22443509101867676,1.8991050720214844,0.673408543856186,40.0,406.0,0.0
B,L,"[5, 8]",0.0,3.0,0.12137222290039062,1.5556578636169434,0.44589691372335377,40.0,407.0,0.0
Y,R,"[5, 9]",0.0,3.0,0.17377996444702148,1.6170318126678467,0.429706206474829,40.0,408.0,0.0
R,U,"[4, 9]",0.0,3.0,0.1711280345916748,1.59128999710083,0.42104770228621813,40.0,409.0,0.0
G,D,"[5, 9]",0.0,3.0,0.22173810005187988,1.5704128742218018,0.35826678724445643,40.0,410.0,0.0
,,"(6, 6)",,,,,,,,
R,U,"[5, 6]",1.0,1.0,0.4056060314178467,2.7052230834960938,0.3802007513694895,41.0,411.0,0.0
Y,R,"[5, 7]",1.0,2.0,0.18736696243286133,1.9063141345977783,0.7195317380586067,41.0,412.0,0.0
Y,R,"[5, 8]",1.0,3.0,0.2955598831176758,1.6967730522155762,0.399983199854747,41.0,413.0,0.0
B,L,"[5, 7]",0.0,3.0,0.25235700607299805,1.9341230392456055,0.6838692803631907,41.0,414.0,0.0
B,L,"[5, 6]",0.0,3.0,0.17914605140686035,1.9009790420532227,0.7182641006466939,41.0,415.0,0.0
B,L,"[5, 5]",-1.0,3.0,0.013571023941040039,5.558176040649414,0.4768449318523504,41.0,416.0,0.0
B,L,"[5, 4]",0.0,3.0,0.17795181274414062,1.8969581127166748,0.7235403697701418,41.0,417.0,0.0
G,D,"[6, 4]",0.0,3.0,0.19496798515319824,1.841080904006958,0.6481744609195712,41.0,418.0,0.0
B,L,"[6, 3]",0.0,3.0,0.23897910118103027,1.6459040641784668,0.3944525109428494,41.0,419.0,0.0
Y,R,"[6, 4]",0.0,3.0,0.31661391258239746,1.8601040840148926,0.5544043190810627,41.0,420.0,0.0
,,"(6, 6)",,,,,,,,
R,U,"[5, 6]",1.0,1.0,0.7173359394073486,3.0101351737976074,0.5478898559317147,42.0,421.0,0.0
Y,R,"[5, 7]",1.0,2.0,0.14830493927001953,1.6075520515441895,0.45570399210590506,42.0,422.0,0.0
Y,R,"[5, 8]",1.0,3.0,0.24824905395507812,1.6085188388824463,0.3642740827894264,42.0,423.0,0.0
G,D,"[6, 8]",1.0,4.0,0.3495628833770752,1.699141025543213,0.34691088152345556,42.0,424.0,0.0
G,D,"[7, 8]",0.0,4.0,0.39954686164855957,2.1360840797424316,0.7325478065842767,42.0,425.0,0.0
R,U,"[6, 8]",0.0,4.0,0.3089561462402344,1.6142888069152832,0.31408194627790814,42.0,426.0,0.0
B,L,"[6, 7]",0.0,4.0,0.2515230178833008,1.510396957397461,0.25783589492622816,42.0,427.0,0.0
Y,R,"[6, 8]",0.0,4.0,0.2747159004211426,1.7891559600830078,0.5135043290546737,42.0,428.0,0.0
Y,R,"[6, 9]",1.0,5.0,0.45279908180236816,2.0101521015167236,0.5570112491344119,42.0,429.0,0.0
Y,R,"[6, 10]",1.0,6.0,0.41552209854125977,2.1101927757263184,0.7004931746253334,42.0,430.0,0.0
,,"(6, 6)",,,,,,,,
R,U,"[5, 6]",1.0,1.0,0.4843881130218506,3.1437859535217285,0.5778333091406935,43.0,431.0,0.0
Y,R,"[5, 7]",1.0,2.0,0.22067999839782715,1.7963168621063232,0.5908035674017762,43.0,432.0,0.0
Y,R,"[5, 8]",1.0,3.0,0.2704288959503174,1.776766061782837,0.5177341752468164,43.0,433.0,0.0
G,D,"[6, 8]",1.0,4.0,0.4040830135345459,1.7351269721984863,0.33640509677448366,43.0,434.0,0.0
R,U,"[5, 8]",0.0,4.0,0.26488494873046875,1.831399917602539,0.567497426093384,43.0,435.0,0.0
B,L,"[5, 7]",0.0,4.0,0.193342924118042,1.5420398712158203,0.34317998786602943,43.0,436.0,0.0
G,D,"[6, 7]",0.0,4.0,0.34213709831237793,1.9900000095367432,0.6496887058086251,43.0,437.0,0.0
Y,R,"[6, 8]",-1.0,4.0,0.012573957443237305,5.822585105895996,0.7389797482194007,43.0,438.0,0.0
Y,R,"[6, 9]",1.0,5.0,0.273298978805542,1.659958839416504,0.38259656271033876,43.0,439.0,0.0
Y,R,"[6, 10]",1.0,6.0,0.4666628837585449,1.852484941482544,0.3851935967333343,43.0,440.0,0.0
,,"(6, 6)",,,,,,,,
R,U,"[5, 6]",1.0,1.0,0.519550085067749,2.8998289108276367,0.3019455977309253,44.0,441.0,0.0
Y,R,"[5, 7]",1.0,2.0,0.20358896255493164,1.5129368305206299,0.31480433212565584,44.0,442.0,0.0
Y,R,"[5, 8]",1.0,3.0,0.24092411994934082,1.7987349033355713,0.5466073144531703,44.0,443.0,0.0
G,D,"[6, 8]",1.0,4.0,0.6160240173339844,1.8883030414581299,0.2686548334591923,44.0,444.0,0.0
G,D,"[7, 8]",0.0,4.0,0.42853498458862305,1.8248779773712158,0.3934506119418929,44.0,445.0,0.0
B,L,"[7, 7]",0.0,4.0,0.2312321662902832,1.6250150203704834,0.4017213160940474,44.0,446.0,0.0
B,L,"[7, 6]",0.0,4.0,0.3485589027404785,1.9331178665161133,0.5847853825632009,44.0,447.0,0.0
R,U,"[6, 6]",0.0,4.0,0.21923303604125977,1.9582509994506836,0.7430064317964464,44.0,448.0,0.0
Y,R,"[6, 7]",0.0,4.0,0.16631221771240234,1.8344569206237793,0.6775264372611247,44.0,449.0,0.0
Y,R,"[6, 8]",0.0,4.0,0.1691279411315918,1.7605252265930176,0.6048210999906635,44.0,450.0,0.0
,,"(6, 6)",,,,,,,,
R,U,"[5, 6]",-2.0,0.0,1.5965499877929688,3.8506290912628174,0.6387872611510321,45.0,451.0,0.0
Y,R,"[5, 7]",1.0,1.0,0.21610713005065918,1.8298661708831787,0.6188383647399851,45.0,452.0,0.0
Y,R,"[5, 8]",1.0,2.0,0.17358994483947754,1.7497971057891846,0.5687184918455688,45.0,453.0,0.0
Y,R,"[5, 9]",0.0,2.0,0.23080992698669434,1.8411431312561035,0.6099145734349809,45.0,454.0,0.0
R,U,"[4, 9]",1.0,3.0,0.5125160217285156,1.9538869857788086,0.4472168793942617,45.0,455.0,0.0
B,L,"[4, 8]",0.0,3.0,0.22077488899230957,1.5653810501098633,0.3461998482053892,45.0,456.0,0.0
R,U,"[3, 8]",0.0,3.0,0.21128201484680176,1.6497831344604492,0.42928222747995626,45.0,457.0,0.0
G,D,"[4, 8]",0.0,3.0,0.1661529541015625,1.9106590747833252,0.739615605712846,45.0,458.0,0.0
Y,R,"[4, 9]",0.0,3.0,0.17311596870422363,1.4935312271118164,0.31694180173157266,45.0,459.0,0.0
B,L,"[4, 8]",0.0,3.0,0.2630579471588135,1.6281249523162842,0.3617573957457914,45.0,460.0,0.0
,,"(6, 6)",,,,,,,,
R,U,"[5, 6]",1.0,1.0,0.2979860305786133,3.1612348556518555,0.5396658664239198,46.0,461.0,0.0
Y,R,"[5, 7]",1.0,2.0,0.20268011093139648,1.796618938446045,0.6028447351389057,46.0,462.0,0.0
Y,R,"[5, 8]",1.0,3.0,0.3076441287994385,1.8986740112304688,0.5847640145978598,46.0,463.0,0.0
G,D,"[6, 8]",1.0,4.0,0.973686933517456,2.4889321327209473,0.5071746289203417,46.0,464.0,0.0
B,L,"[6, 7]",0.0,4.0,0.26730799674987793,1.5366191864013672,0.2774363916721249,46.0,465.0,0.0
Y,R,"[6, 8]",0.0,4.0,0.5839939117431641,2.272542953491211,0.6996417063005262,46.0,466.0,0.0
Y,R,"[6, 9]",1.0,5.0,0.17064905166625977,1.637660026550293,0.47089405398095985,46.0,467.0,0.0
Y,R,"[6, 10]",1.0,6.0,0.506260871887207,1.8204200267791748,0.3082086487978871,46.0,468.0,0.0
Y,R,"[6, 11]",0.0,6.0,0.5865700244903564,1.929004192352295,0.35377649559734414,46.0,469.0,0.0
Y,R,"[6, 10]",-3.0,6.0,0.46231698989868164,1.8431689739227295,0.3804414845309808,46.0,470.0,0.0
,,"(6, 6)",,,,,,,,
R,U,"[5, 6]",-2.0,0.0,1.0266199111938477,3.895045042037964,0.3420831142501601,47.0,471.0,0.0
Y,R,"[5, 7]",1.0,1.0,0.4678959846496582,1.7761681079864502,0.31848785640573496,47.0,472.0,0.0
Y,R,"[5, 8]",1.0,2.0,0.1946110725402832,1.624765157699585,0.4263959993189763,47.0,473.0,0.0
G,D,"[6, 8]",1.0,3.0,0.5528509616851807,2.2682290077209473,0.7278178598403308,47.0,474.0,0.0
R,U,"[5, 8]",0.0,3.0,0.2444460391998291,1.6158978939056396,0.3773970172286815,47.0,475.0,0.0
R,U,"[4, 8]",0.0,3.0,0.32146120071411133,1.9718577861785889,0.6658784625855412,47.0,476.0,0.0
Y,R,"[4, 9]",1.0,4.0,0.1952221393585205,1.6845979690551758,0.48385842211255053,47.0,477.0,0.0
Y,R,"[4, 10]",1.0,5.0,0.26286792755126953,1.5667140483856201,0.30075591197535056,47.0,478.0,0.0
B,L,"[4, 9]",0.0,5.0,0.26815199851989746,1.9113209247589111,0.6451372078939412,47.0,479.0,0.0
Y,R,"[4, 10]",0.0,5.0,0.3676769733428955,1.971695899963379,0.6167567357500852,47.0,480.0,0.0
,,"(6, 6)",,,,,,,,
R,U,"[5, 6]",1.0,1.0,0.923267126083374,3.900930166244507,0.6678206222202366,48.0,481.0,0.0
Y,R,"[5, 7]",1.0,2.0,0.23576998710632324,1.9414489269256592,0.7091477129306292,48.0,482.0,0.0
Y,R,"[5, 8]",1.0,3.0,0.27466607093811035,1.6977779865264893,0.4239184843511869,48.0,483.0,0.0
G,D,"[6, 8]",1.0,4.0,0.3735988140106201,2.0894908905029297,0.7131077524265492,48.0,484.0,0.0
B,L,"[6, 7]",0.0,4.0,0.7753839492797852,2.3417179584503174,0.5551009288491144,48.0,485.0,0.0
B,L,"[6, 6]",0.0,4.0,0.31121301651000977,1.7328591346740723,0.42151159533570026,48.0,486.0,0.0
Y,R,"[6, 7]",0.0,4.0,0.2457900047302246,1.6270310878753662,0.3818613833946152,48.0,487.0,0.0
Y,R,"[6, 8]",0.0,4.0,0.20589089393615723,1.5571601390838623,0.3558348515972276,48.0,488.0,0.0
Y,R,"[6, 9]",1.0,5.0,0.1633591651916504,1.7998311519622803,0.6386733549360072,48.0,489.0,0.0
Y,R,"[6, 10]",1.0,6.0,0.31131505966186523,2.049997091293335,0.7387361377652124,48.0,490.0,0.0
,,"(6, 6)",,,,,,,,
R,U,"[5, 6]",1.0,1.0,0.9246029853820801,4.750417947769165,0.48941967891049615,49.0,491.0,0.0
Y,R,"[5, 7]",1.0,2.0,0.33733701705932617,1.7524850368499756,0.425289031188328,49.0,492.0,0.0
Y,R,"[5, 8]",1.0,3.0,0.26331210136413574,1.9502010345458984,0.6920428635278226,49.0,493.0,0.0
G,D,"[6, 8]",1.0,4.0,0.25128698348999023,1.647873878479004,0.40688521371825265,49.0,494.0,0.0
R,U,"[5, 8]",0.0,4.0,0.2563939094543457,1.8278958797454834,0.5679750420429841,49.0,495.0,0.0
G,D,"[6, 8]",0.0,4.0,0.21887803077697754,1.9082140922546387,0.693154567720581,49.0,496.0,0.0
B,L,"[6, 7]",0.0,4.0,0.17404699325561523,1.7582859992980957,0.5845977818954791,49.0,497.0,0.0
Y,R,"[6, 8]",0.0,4.0,0.19825506210327148,1.52724289894104,0.3287016601624418,49.0,498.0,0.0
Y,R,"[6, 9]",1.0,5.0,0.2222001552581787,1.786747932434082,0.5652566814322836,49.0,499.0,0.0
Y,R,"[6, 10]",1.0,6.0,0.32369089126586914,1.5910937786102295,0.256630910692917,49.0,500.0,0.0
,,"(6, 6)",,,,,,,,
R,U,"[5, 6]",1.0,1.0,0.5861759185791016,2.8653900623321533,0.3884833370125821,50.0,501.0,0.0
Y,R,"[5, 7]",1.0,2.0,0.20453810691833496,1.9414620399475098,0.746558395474757,50.0,502.0,0.0
Y,R,"[5, 8]",1.0,3.0,0.45656609535217285,1.985666036605835,0.5156078484478699,50.0,503.0,0.0
G,D,"[6, 8]",1.0,4.0,0.24825191497802734,1.5165538787841797,0.26575939473889554,50.0,504.0,0.0
Y,R,"[6, 9]",1.0,5.0,0.42546606063842773,1.888420820236206,0.454086297684292,50.0,505.0,0.0
G,D,"[7, 9]",0.0,5.0,0.864189863204956,2.191648006439209,0.32915446781632224,50.0,506.0,0.0
R,U,"[6, 9]",0.0,5.0,0.2171919345855713,1.6867010593414307,0.46583401450092543,50.0,507.0,0.0
Y,R,"[6, 10]",1.0,6.0,0.28482818603515625,1.7622759342193604,0.4781630860698198,50.0,508.0,0.0
Y,R,"[6, 11]",0.0,6.0,0.2388160228729248,1.519057035446167,0.29733569752586053,50.0,509.0,0.0
Y,R,"[6, 10]",-3.0,6.0,0.3323979377746582,1.6883249282836914,0.3522836377470755,50.0,510.0,0.0
,,"(6, 6)",,,,,,,,
R,U,"[5, 6]",1.0,1.0,0.6440238952636719,3.4461958408355713,0.3153419413594122,51.0,511.0,0.0
Y,R,"[5, 7]",1.0,2.0,0.2400960922241211,1.720931053161621,0.46944971806329294,51.0,512.0,0.0
Y,R,"[5, 8]",1.0,3.0,0.20536208152770996,1.7785909175872803,0.5646444824259114,51.0,513.0,0.0
R,U,"[4, 8]",0.0,3.0,0.19507598876953125,1.8060660362243652,0.6039276478492701,51.0,514.0,0.0
G,D,"[5, 8]",0.0,3.0,0.39702320098876953,2.1287119388580322,0.7325921514320721,51.0,515.0,0.0
Y,R,"[5, 9]",0.0,3.0,0.1877000331878662,1.6694090366363525,0.4856307705043029,51.0,516.0,0.0
B,L,"[5, 8]",0.0,3.0,0.13232994079589844,1.6221959590911865,0.491211332431337,51.0,517.0,0.0
Y,R,"[5, 9]",0.0,3.0,0.19132399559020996,1.8163599967956543,0.6242087578446751,51.0,518.0,0.0
Y,R,"[5, 10]",1.0,4.0,0.5796680450439453,2.1728148460388184,0.5968706639734354,51.0,519.0,0.0
Y,R,"[5, 11]",0.0,4.0,0.27033376693725586,1.5466938018798828,0.2772476355775389,51.0,520.0,0.0
,,"(6, 6)",,,,,,,,
R,U,"[5, 6]",-2.0,0.0,1.0175440311431885,3.3991620540618896,0.4929652703461964,52.0,521.0,0.0
Y,R,"[5, 7]",1.0,1.0,0.17693400382995605,1.8836281299591064,0.7097598957594853,52.0,522.0,0.0
Y,R,"[5, 8]",1.0,2.0,0.1825869083404541,1.8574280738830566,0.6839095001608577,52.0,523.0,0.0
Y,R,"[5, 9]",0.0,2.0,0.2679018974304199,1.85772705078125,0.591733616839452,52.0,524.0,0.0
Y,R,"[5, 10]",-2.0,2.0,1.4529919624328613,2.6956520080566406,0.28775754398100756,52.0,525.0,0.0
B,L,"[5, 9]",0.0,2.0,0.2959098815917969,1.9899680614471436,0.6939829661271435,52.0,526.0,0.0
B,L,"[5, 8]",0.0,2.0,0.15510106086730957,1.5472581386566162,0.408136078163586,52.0,527.0,0.0
Y,R,"[5, 9]",0.0,2.0,0.15052008628845215,1.7338731288909912,0.5918329274715604,52.0,528.0,0.0
Y,R,"[5, 10]",0.0,2.0,0.2421882152557373,1.9419441223144531,0.7004519241869362,52.0,529.0,0.0
Y,R,"[5, 11]",0.0,2.0,0.2152400016784668,1.8636870384216309,0.6475580366853327,52.0,530.0,0.0
,,"(6, 6)",,,,,,,,
R,U,"[5, 6]",1.0,1.0,0.919896125793457,2.826903820037842,0.3081365945134431,53.0,531.0,0.0
Y,R,"[5, 7]",1.0,2.0,0.20376300811767578,1.6067049503326416,0.4147754331912586,53.0,532.0,0.0
Y,R,"[5, 8]",1.0,3.0,0.30249786376953125,1.9766829013824463,0.6744834276121099,53.0,533.0,0.0
G,D,"[6, 8]",1.0,4.0,0.31246113777160645,1.8122789859771729,0.5036004839449906,53.0,534.0,0.0
Y,R,"[6, 9]",1.0,5.0,0.20778799057006836,1.796234130859375,0.5831927856395054,53.0,535.0,0.0
B,L,"[6, 8]",0.0,5.0,0.2137601375579834,1.6865251064300537,0.4697995120930934,53.0,536.0,0.0
B,L,"[6, 7]",0.0,5.0,0.23241901397705078,1.9446439743041992,0.7142736793339264,53.0,537.0,0.0
Y,R,"[6, 8]",0.0,5.0,0.2244861125946045,1.4869999885559082,0.251693695840506,53.0,538.0,0.0
Y,R,"[6, 9]",0.0,5.0,0.2682459354400635,1.9271240234375,0.6617577566963828,53.0,539.0,0.0
Y,R,"[6, 10]",1.0,6.0,0.17193102836608887,1.869354009628296,0.6977877532719188,53.0,540.0,0.0
,,"(6, 6)",,,,,,,,
R,U,"[5, 6]",1.0,1.0,0.869757890701294,4.38631010055542,0.7175048516965886,54.0,541.0,0.0
Y,R,"[5, 7]",1.0,2.0,0.22955918312072754,1.560610055923462,0.32840490002406264,54.0,542.0,0.0
Y,R,"[5, 8]",1.0,3.0,0.43741297721862793,2.090041160583496,0.6515113502998037,54.0,543.0,0.0
G,D,"[6, 8]",1.0,4.0,0.24862408638000488,1.7517430782318115,0.503431418229727,54.0,544.0,0.0
Y,R,"[6, 9]",1.0,5.0,0.2276778221130371,1.951267957687378,0.7211512010277172,54.0,545.0,0.0
R,U,"[5, 9]",0.0,5.0,0.21571707725524902,1.4736449718475342,0.2620593880418989,54.0,546.0,0.0
R,U,"[4, 9]",1.0,6.0,0.3046901226043701,1.7549610137939453,0.46676389247689704,54.0,547.0,0.0
Y,R,"[4, 10]",1.0,7.0,0.2522900104522705,1.6948881149291992,0.44505460779986794,54.0,548.0,0.0
Y,R,"[4, 11]",0.0,7.0,0.31690287590026855,1.8592219352722168,0.5541645641414704,54.0,549.0,0.0
Y,R,"[4, 10]",-3.0,7.0,0.23828411102294922,1.7637150287628174,0.534610899572705,54.0,550.0,0.0
,,"(6, 6)",,,,,,,,
R,U,"[5, 6]",1.0,1.0,0.7346949577331543,2.751387119293213,0.4361403419919651,55.0,551.0,0.0
Y,R,"[5, 7]",1.0,2.0,0.21956682205200195,1.8998019695281982,0.6859749308670162,55.0,552.0,0.0
Y,R,"[5, 8]",1.0,3.0,0.17860817909240723,1.5595409870147705,0.37890414952577495,55.0,553.0,0.0
G,D,"[6, 8]",1.0,4.0,0.5169229507446289,1.946258783340454,0.4250745839079509,55.0,554.0,0.0
Y,R,"[6, 9]",1.0,5.0,0.2525510787963867,1.9530370235443115,0.7111891816580053,55.0,555.0,0.0
Y,R,"[6, 10]",1.0,6.0,0.2078711986541748,1.7631111145019531,0.5578464259178917,55.0,556.0,0.0
R,U,"[5, 10]",1.0,7.0,0.3208768367767334,1.6669089794158936,0.3581888374366469,55.0,557.0,0.0
G,D,"[6, 10]",0.0,7.0,0.29613614082336426,1.6538691520690918,0.36201455107590086,55.0,558.0,0.0
B,L,"[6, 9]",0.0,7.0,0.306488037109375,1.888308048248291,0.5669141095348473,55.0,559.0,0.0
Y,R,"[6, 10]",0.0,7.0,0.1941208839416504,1.59234619140625,0.3928191117184858,55.0,560.0,0.0
,,"(6, 6)",,,,,,,,
R,U,"[5, 6]",1.0,1.0,0.7507791519165039,3.9358069896698,0.6949594922448774,56.0,561.0,0.0
Y,R,"[5, 7]",1.0,2.0,0.2053999900817871,1.6018168926239014,0.39712244729541935,56.0,562.0,0.0
Y,R,"[5, 8]",1.0,3.0,0.30577516555786133,1.9625530242919922,0.6426561885839983,56.0,563.0,0.0
G,D,"[6, 8]",1.0,4.0,0.25876688957214355,1.811486005783081,0.5546427587531925,56.0,564.0,0.0
Y,R,"[6, 9]",1.0,5.0,0.22072696685791016,1.9320571422576904,0.719594795922669,56.0,565.0,0.0
Y,R,"[6, 10]",1.0,6.0,0.295727014541626,1.6146559715270996,0.31799822183896587,56.0,566.0,0.0
B,L,"[6, 9]",0.0,6.0,0.4480419158935547,1.7545640468597412,0.30592268600058653,56.0,567.0,0.0
G,D,"[7, 9]",0.0,6.0,0.3290431499481201,2.0607471466064453,0.7329002563973973,56.0,568.0,0.0
Y,R,"[7, 10]",0.0,6.0,0.23336291313171387,1.8449900150299072,0.6113985457651261,56.0,569.0,0.0
Y,R,"[7, 11]",0.0,6.0,0.3160209655761719,1.981799840927124,0.6765498380631148,56.0,570.0,0.0
,,"(6, 6)",,,,,,,,
R,U,"[5, 6]",-2.0,0.0,1.2206170558929443,3.4390478134155273,0.6820474661059879,57.0,571.0,0.0
Y,R,"[5, 7]",1.0,1.0,0.1968228816986084,1.887502908706665,0.6862860535096009,57.0,572.0,0.0
Y,R,"[5, 8]",1.0,2.0,0.2692599296569824,2.009608030319214,0.7459884437694252,57.0,573.0,0.0
G,D,"[6, 8]",1.0,3.0,0.22763705253601074,1.8515501022338867,0.6142734488648409,57.0,574.0,0.0
Y,R,"[6, 9]",1.0,4.0,0.28263282775878906,1.5620331764221191,0.2766585662463709,57.0,575.0,0.0
B,L,"[6, 8]",0.0,4.0,0.5106558799743652,2.009464979171753,0.5026204129119115,57.0,576.0,0.0
Y,R,"[6, 9]",0.0,4.0,0.2108612060546875,1.5081348419189453,0.2941613088258478,57.0,577.0,0.0
G,D,"[7, 9]",0.0,4.0,0.3888700008392334,2.0775680541992188,0.6881295953247327,57.0,578.0,0.0
Y,R,"[7, 10]",0.0,4.0,0.18563294410705566,1.5580480098724365,0.37981902067674234,57.0,579.0,0.0
Y,R,"[7, 11]",0.0,4.0,0.3098568916320801,1.8918979167938232,0.5715223410933052,57.0,580.0,0.0
,,"(6, 6)",,,,,,,,
R,U,"[5, 6]",1.0,1.0,0.5588259696960449,2.5446810722351074,0.38308972581998874,58.0,581.0,0.0
Y,R,"[5, 7]",1.0,2.0,0.21452593803405762,1.8323698043823242,0.6151873688540883,58.0,582.0,0.0
Y,R,"[5, 8]",1.0,3.0,0.295184850692749,1.9745969772338867,0.6730697067347227,58.0,583.0,0.0
G,D,"[6, 8]",1.0,4.0,0.2104499340057373,1.569432020187378,0.3595043963602362,58.0,584.0,0.0
Y,R,"[6, 9]",1.0,5.0,0.2797689437866211,1.5876319408416748,0.3138945527566909,58.0,585.0,0.0
Y,R,"[6, 10]",1.0,6.0,0.3267848491668701,1.647467851638794,0.31125517754205106,58.0,586.0,0.0
R,U,"[5, 10]",1.0,7.0,0.24444293975830078,1.9841840267181396,0.74511654723208,58.0,587.0,0.0
G,D,"[6, 10]",0.0,7.0,0.34261107444763184,2.081343173980713,0.7264427978927137,58.0,588.0,0.0
G,D,"[7, 10]",0.0,7.0,0.43303489685058594,1.786750078201294,0.36359768773233037,58.0,589.0,0.0
Y,R,"[7, 11]",0.0,7.0,0.3209218978881836,1.6949899196624756,0.37529076515663934,58.0,590.0,0.0
,,"(6, 6)",,,,,,,,
R,U,"[5, 6]",1.0,1.0,0.9293360710144043,3.414005994796753,0.7056442339595151,59.0,591.0,0.0
Y,R,"[5, 7]",1.0,2.0,0.18589496612548828,1.8289918899536133,0.6513478266245687,59.0,592.0,0.0
Y,R,"[5, 8]",1.0,3.0,0.32568788528442383,1.5914039611816406,0.2597561804576244,59.0,593.0,0.0
G,D,"[6, 8]",1.0,4.0,0.28601813316345215,1.9872450828552246,0.7132268769198445,59.0,594.0,0.0
Y,R,"[6, 9]",1.0,5.0,0.19806909561157227,1.8794519901275635,0.6761100847459923,59.0,595.0,0.0
Y,R,"[6, 10]",1.0,6.0,0.20438504219055176,1.6103720664978027,0.42012468853223434,59.0,596.0,0.0
R,U,"[5, 10]",1.0,7.0,0.25264811515808105,1.93528413772583,0.688425603812692,59.0,597.0,0.0
R,U,"[4, 10]",1.0,8.0,0.16139984130859375,1.7002661228179932,0.5387150760241337,59.0,598.0,0.0
R,U,"[3, 10]",0.0,8.0,0.6963350772857666,2.1250579357147217,0.4305822384615039,59.0,599.0,0.0
R,U,"[2, 10]",0.0,8.0,0.3160820007324219,1.8724730014801025,0.5530134412526906,59.0,600.0,0.0
,,"(6, 6)",,,,,,,,
R,U,"[5, 6]",1.0,1.0,0.7493760585784912,2.89469313621521,0.7141240743975799,60.0,601.0,0.0
Y,R,"[5, 7]",1.0,2.0,0.20743608474731445,1.8281259536743164,0.6091138856629179,60.0,602.0,0.0
Y,R,"[5, 8]",1.0,3.0,0.31466007232666016,1.8494629859924316,0.5420015879033628,60.0,603.0,0.0
G,D,"[6, 8]",1.0,4.0,0.23055195808410645,1.5976839065551758,0.3731941179892372,60.0,604.0,0.0
Y,R,"[6, 9]",1.0,5.0,0.5016000270843506,2.0674571990966797,0.5738950272694614,60.0,605.0,0.0
Y,R,"[6, 10]",1.0,6.0,0.24491190910339355,1.7478740215301514,0.5050997179189296,60.0,606.0,0.0
R,U,"[5, 10]",1.0,7.0,0.2768721580505371,1.8938531875610352,0.6155186433061057,60.0,607.0,0.0
R,U,"[4, 10]",1.0,8.0,0.24287700653076172,1.5331799983978271,0.28224065201949483,60.0,608.0,0.0
G,D,"[5, 10]",0.0,8.0,0.30150389671325684,1.9224278926849365,0.6212607532652664,60.0,609.0,0.0
G,D,"[6, 10]",0.0,8.0,0.35466909408569336,2.0804808139801025,0.7347487021265435,60.0,610.0,0.0
,,"(6, 6)",,,,,,,,
R,U,"[5, 6]",1.0,1.0,0.7102220058441162,2.6634840965270996,0.39863763762341947,61.0,611.0,0.0
R,U,"[4, 6]",0.0,1.0,0.1702861785888672,1.5864801406860352,0.4184790671368614,61.0,612.0,0.0
Y,R,"[4, 7]",0.0,1.0,0.4844779968261719,2.0210320949554443,0.539324159125333,61.0,613.0,0.0
Y,R,"[4, 8]",0.0,1.0,0.23305392265319824,1.6399290561676025,0.41267893210396267,61.0,614.0,0.0
G,D,"[5, 8]",-2.0,1.0,1.081758975982666,2.504879951477051,0.4509056225714181,61.0,615.0,0.0
B,L,"[5, 7]",1.0,2.0,0.277878999710083,1.6308372020721436,0.3485301766674932,61.0,616.0,0.0
B,L,"[5, 6]",0.0,2.0,0.2824411392211914,1.6597161293029785,0.3749580411937627,61.0,617.0,0.0
B,L,"[5, 5]",0.0,2.0,0.14358997344970703,1.4594531059265137,0.3176508561540539,61.0,618.0,0.0
B,L,"[5, 4]",0.0,2.0,0.30074286460876465,1.8937349319458008,0.5945659400563236,61.0,619.0,0.0
B,L,"[5, 3]",0.0,2.0,0.2063748836517334,1.8742451667785645,0.6689606276951812,61.0,620.0,0.0
,,"(6, 6)",,,,,,,,
R,U,"[5, 6]",1.0,1.0,0.37403297424316406,3.7057900428771973,0.6410440968621358,62.0,621.0,0.0
Y,R,"[5, 7]",1.0,2.0,0.2031559944152832,1.7904059886932373,0.5984653633401046,62.0,622.0,0.0
Y,R,"[5, 8]",1.0,3.0,0.18503212928771973,1.4601960182189941,0.275506995252134,62.0,623.0,0.0
R,U,"[4, 8]",0.0,3.0,0.22693991661071777,1.535810947418213,0.31126878446906653,62.0,624.0,0.0
Y,R,"[4, 9]",1.0,4.0,0.23990106582641602,1.704949140548706,0.4660119363663917,62.0,625.0,0.0
Y,R,"[4, 10]",1.0,5.0,0.20502400398254395,1.5158109664916992,0.3153018647867693,62.0,626.0,0.0
R,U,"[3, 10]",0.0,5.0,0.24251198768615723,1.852996826171875,0.601374265829915,62.0,627.0,0.0
R,U,"[2, 10]",0.0,5.0,0.1633150577545166,1.869718074798584,0.7043685494829233,62.0,628.0,0.0
B,L,"[2, 9]",0.0,5.0,0.22594094276428223,1.7776050567626953,0.5487552809724692,62.0,629.0,0.0
Y,R,"[2, 10]",0.0,5.0,0.11163496971130371,1.737008810043335,0.6189711019906656,62.0,630.0,0.0
,,"(6, 6)",,,,,,,,
R,U,"[5, 6]",1.0,1.0,0.39597487449645996,2.7173190116882324,0.6363484890273452,63.0,631.0,0.0
Y,R,"[5, 7]",1.0,2.0,0.17128491401672363,1.710010051727295,0.5298082272514293,63.0,632.0,0.0
Y,R,"[5, 8]",1.0,3.0,0.20965790748596191,1.617035150527954,0.3969720690595087,63.0,633.0,0.0
G,D,"[6, 8]",1.0,4.0,0.3129007816314697,1.8509769439697266,0.5310167127020873,63.0,634.0,0.0
Y,R,"[6, 9]",1.0,5.0,0.17676997184753418,1.7436161041259766,0.5579503584775234,63.0,635.0,0.0
Y,R,"[6, 10]",1.0,6.0,0.2384939193725586,1.5220379829406738,0.29702244251229354,63.0,636.0,0.0
R,U,"[5, 10]",1.0,7.0,0.7271950244903564,2.025192975997925,0.2888979672972205,63.0,637.0,0.0
B,L,"[5, 9]",0.0,7.0,0.24571514129638672,1.5775971412658691,0.3330146719254747,63.0,638.0,0.0
B,L,"[5, 8]",0.0,7.0,0.265186071395874,1.7397840023040771,0.47278390281743377,63.0,639.0,0.0
B,L,"[5, 7]",0.0,7.0,0.2498180866241455,1.628166913986206,0.3844202206520116,63.0,640.0,0.0
,,"(6, 6)",,,,,,,,
R,U,"[5, 6]",-2.0,0.0,1.230828046798706,3.349313974380493,0.3003869273121094,64.0,641.0,0.0
Y,R,"[5, 7]",1.0,1.0,0.1615149974822998,1.7305238246917725,0.5640021395159477,64.0,642.0,0.0
Y,R,"[5, 8]",1.0,2.0,0.16008210182189941,1.7034978866577148,0.5341394275950577,64.0,643.0,0.0
Y,R,"[5, 9]",0.0,2.0,0.16208815574645996,1.6649069786071777,0.4990479030631311,64.0,644.0,0.0
Y,R,"[5, 10]",-2.0,2.0,1.3494222164154053,2.8807260990142822,0.5634632313054133,64.0,645.0,0.0
R,U,"[4, 10]",1.0,3.0,0.15908384323120117,1.4974219799041748,0.32744873259612944,64.0,646.0,0.0
R,U,"[3, 10]",0.0,3.0,0.2106328010559082,1.5761351585388184,0.37035851629719646,64.0,647.0,0.0
Y,R,"[3, 11]",0.0,3.0,0.19837212562561035,1.53037691116333,0.333916229065915,64.0,648.0,0.0
B,L,"[3, 10]",0.0,3.0,0.1620769500732422,1.4610679149627686,0.2950600446412149,64.0,649.0,0.0
G,D,"[4, 10]",0.0,3.0,0.1810159683227539,1.9201138019561768,0.7484047758920094,64.0,650.0,0.0
,,"(6, 6)",,,,,,,,
R,U,"[5, 6]",1.0,1.0,0.41167187690734863,2.645120859146118,0.5766249614452417,65.0,651.0,0.0
Y,R,"[5, 7]",1.0,2.0,0.2363419532775879,1.8913660049438477,0.6679803859929723,65.0,652.0,0.0
Y,R,"[5, 8]",1.0,3.0,0.23833990097045898,1.619582176208496,0.3878120907149227,65.0,653.0,0.0
G,D,"[6, 8]",1.0,4.0,0.26872706413269043,1.8369629383087158,0.5746178661623753,65.0,654.0,0.0
Y,R,"[6, 9]",1.0,5.0,0.1872870922088623,1.9044299125671387,0.7289547236187901,65.0,655.0,0.0
Y,R,"[6, 10]",1.0,6.0,0.2906148433685303,2.0371410846710205,0.7325225576812937,65.0,656.0,0.0
R,U,"[5, 10]",1.0,7.0,0.23526716232299805,1.8590619564056396,0.6251079790213774,65.0,657.0,0.0
R,U,"[4, 10]",1.0,8.0,0.2114570140838623,1.7872209548950195,0.5790055228706159,65.0,658.0,0.0
Y,R,"[4, 11]",0.0,8.0,0.20026302337646484,1.6425259113311768,0.4384085817676178,65.0,659.0,0.0
Y,R,"[4, 10]",-3.0,8.0,0.1938920021057129,1.6159000396728516,0.42101851918881533,65.0,660.0,0.0
,,"(6, 6)",,,,,,,,
Y,R,"[6, 7]",0.0,0.0,0.9160411357879639,3.106229066848755,0.6770513549258039,66.0,661.0,0.0
Y,R,"[6, 8]",1.0,1.0,0.4312129020690918,1.9533030986785889,0.5303572971808863,66.0,662.0,0.0
Y,R,"[6, 9]",1.0,2.0,0.4605867862701416,2.1946041584014893,0.7247129132996859,66.0,663.0,0.0
G,D,"[7, 9]",0.0,2.0,0.7073159217834473,2.253818988800049,0.5454882944020514,66.0,664.0,0.0
Y,R,"[7, 10]",0.0,2.0,0.24955511093139648,1.6927659511566162,0.43849796023645693,66.0,665.0,0.0
Y,R,"[7, 11]",0.0,2.0,0.15613603591918945,1.5255861282348633,0.38063658718785853,66.0,666.0,0.0
R,U,"[6, 11]",0.0,2.0,0.16681814193725586,1.8126862049102783,0.6430049295420004,66.0,667.0,0.0
B,L,"[6, 10]",1.0,3.0,0.19334697723388672,1.9056758880615234,0.7153271515750179,66.0,668.0,0.0
B,L,"[6, 9]",0.0,3.0,0.19012999534606934,1.621027946472168,0.4199065778949304,66.0,669.0,0.0
B,L,"[6, 8]",0.0,3.0,0.2275090217590332,1.5958449840545654,0.36575424175785326,66.0,670.0,0.0
,,"(6, 6)",,,,,,,,
R,U,"[5, 6]",1.0,1.0,0.661919116973877,2.8933091163635254,0.3923802592892864,67.0,671.0,0.0
Y,R,"[5, 7]",1.0,2.0,0.17316198348999023,1.7727670669555664,0.5982617812938813,67.0,672.0,0.0
Y,R,"[5, 8]",1.0,3.0,0.2596769332885742,1.7171242237091064,0.44894456561364565,67.0,673.0,0.0
G,D,"[6, 8]",1.0,4.0,0.2021172046661377,1.5674149990081787,0.36645818832019633,67.0,674.0,0.0
Y,R,"[6, 9]",1.0,5.0,0.1913471221923828,1.4606878757476807,0.2605964612476661,67.0,675.0,0.0
Y,R,"[6, 10]",1.0,6.0,0.19134998321533203,1.5073468685150146,0.3178691272421178,67.0,676.0,0.0
R,U,"[5, 10]",1.0,7.0,0.17365217208862305,1.7953119277954102,0.6128819786861481,67.0,677.0,0.0
R,U,"[4, 10]",1.0,8.0,0.1867971420288086,1.7618510723114014,0.574760037811638,67.0,678.0,0.0
B,L,"[4, 9]",1.0,9.0,0.1836559772491455,1.8678641319274902,0.6925057101255954,67.0,679.0,0.0
Y,R,"[4, 10]",0.0,9.0,0.22409415245056152,1.7327921390533447,0.5087179593055196,67.0,680.0,0.0
,,"(6, 6)",,,,,,,,
R,U,"[5, 6]",1.0,1.0,0.5376300811767578,2.5546751022338867,0.34692758246989874,68.0,681.0,0.0
Y,R,"[5, 7]",1.0,2.0,0.41399192810058594,2.045673131942749,0.6256713629443122,68.0,682.0,0.0
Y,R,"[5, 8]",1.0,3.0,0.2706007957458496,1.9779701232910156,0.7201700197037142,68.0,683.0,0.0
G,D,"[6, 8]",1.0,4.0,0.19345903396606445,1.8256449699401855,0.6293150192750754,68.0,684.0,0.0
Y,R,"[6, 9]",1.0,5.0,0.2219409942626953,1.7848072052001953,0.5473961605204322,68.0,685.0,0.0
Y,R,"[6, 10]",1.0,6.0,0.2595999240875244,1.8286170959472656,0.5593910569933418,68.0,686.0,0.0
R,U,"[5, 10]",1.0,7.0,0.24993610382080078,1.6764299869537354,0.4359656022209103,68.0,687.0,0.0
R,U,"[4, 10]",1.0,8.0,0.2865879535675049,1.5459609031677246,0.26534855310934874,68.0,688.0,0.0
B,L,"[4, 9]",1.0,9.0,0.3055398464202881,1.9191339015960693,0.6008652315862328,68.0,689.0,0.0
R,U,"[3, 9]",1.0,10.0,0.1669600009918213,1.7935218811035156,0.6277226021776674,68.0,690.0,0.0
,,"(6, 6)",,,,,,,,
R,U,"[5, 6]",1.0,1.0,0.5116720199584961,4.122430801391602,0.7169240551937957,69.0,691.0,0.0
Y,R,"[5, 7]",1.0,2.0,0.17523193359375,1.5882599353790283,0.40525072948377866,69.0,692.0,0.0
Y,R,"[5, 8]",1.0,3.0,0.2590517997741699,1.805021047592163,0.5434622384215493,69.0,693.0,0.0
G,D,"[6, 8]",1.0,4.0,0.2330610752105713,1.9595909118652344,0.7361710429279815,69.0,694.0,0.0
Y,R,"[6, 9]",1.0,5.0,0.5732951164245605,1.8264079093933105,0.2629601391677506,69.0,695.0,0.0
Y,R,"[6, 10]",1.0,6.0,0.29382991790771484,1.6600570678710938,0.3563503206390765,69.0,696.0,0.0
R,U,"[5, 10]",1.0,7.0,0.22881484031677246,1.5850260257720947,0.35794613617591975,69.0,697.0,0.0
R,U,"[4, 10]",1.0,8.0,0.6344940662384033,1.8916568756103516,0.2663582901580102,69.0,698.0,0.0
B,L,"[4, 9]",1.0,9.0,0.4084749221801758,1.9839088916778564,0.5666733907508488,69.0,699.0,0.0
R,U,"[3, 9]",1.0,10.0,0.18808794021606445,1.8689439296722412,0.6855054205086767,69.0,700.0,0.0
,,"(6, 6)",,,,,,,,
R,U,"[5, 6]",1.0,1.0,0.9482550621032715,3.3389029502868652,0.44132166561889585,70.0,701.0,0.0
Y,R,"[5, 7]",1.0,2.0,0.18820691108703613,1.654695987701416,0.47924583026276457,70.0,702.0,0.0
Y,R,"[5, 8]",1.0,3.0,0.20940208435058594,1.6425590515136719,0.42181014102875963,70.0,703.0,0.0
G,D,"[6, 8]",1.0,4.0,0.23602700233459473,1.9378738403320312,0.7095140440309046,70.0,704.0,0.0
Y,R,"[6, 9]",1.0,5.0,0.3216738700866699,2.007075071334839,0.6831265434197255,70.0,705.0,0.0
Y,R,"[6, 10]",1.0,6.0,0.27105093002319336,1.7320671081542969,0.44871373892636174,70.0,706.0,0.0
R,U,"[5, 10]",1.0,7.0,0.3448941707611084,1.7668280601501465,0.41564164387696556,70.0,707.0,0.0
R,U,"[4, 10]",1.0,8.0,0.19797396659851074,1.6699120998382568,0.468918126071797,70.0,708.0,0.0
B,L,"[4, 9]",1.0,9.0,0.1792609691619873,1.8514587879180908,0.6700443549820768,70.0,709.0,0.0
R,U,"[3, 9]",1.0,10.0,0.16039586067199707,1.5138330459594727,0.35099793124611,70.0,710.0,0.0
,,"(6, 6)",,,,,,,,
R,U,"[5, 6]",1.0,1.0,0.7097518444061279,2.9233651161193848,0.7243399613943566,71.0,711.0,0.0
Y,R,"[5, 7]",1.0,2.0,0.18528413772583008,1.7634217739105225,0.5874482267873407,71.0,712.0,0.0
Y,R,"[5, 8]",1.0,3.0,0.18827581405639648,1.6308810710906982,0.4351564102691681,71.0,713.0,0.0
G,D,"[6, 8]",1.0,4.0,0.2769169807434082,1.7657790184020996,0.48451595525835156,71.0,714.0,0.0
Y,R,"[6, 9]",1.0,5.0,0.1854550838470459,1.537571907043457,0.35512312852974404,71.0,715.0,0.0
Y,R,"[6, 10]",1.0,6.0,0.2058548927307129,1.817396879196167,0.6057164737087164,71.0,716.0,0.0
R,U,"[5, 10]",1.0,7.0,0.19924092292785645,1.6962859630584717,0.5020902020430845,71.0,717.0,0.0
R,U,"[4, 10]",1.0,8.0,0.18047308921813965,1.877392053604126,0.6959252341280227,71.0,718.0,0.0
B,L,"[4, 9]",1.0,9.0,0.17387104034423828,1.821394920349121,0.6340549798392969,71.0,719.0,0.0
R,U,"[3, 9]",1.0,10.0,0.16516685485839844,1.6938328742980957,0.5279466775453385,71.0,720.0,0.0
,,"(6, 6)",,,,,,,,
R,U,"[5, 6]",1.0,1.0,0.7672030925750732,2.826246976852417,0.5042434418541561,72.0,721.0,0.0
Y,R,"[5, 7]",1.0,2.0,0.25634288787841797,1.9094951152801514,0.6635381413379404,72.0,722.0,0.0
Y,R,"[5, 8]",1.0,3.0,0.2037949562072754,1.4724981784820557,0.26973945042818154,72.0,723.0,0.0
G,D,"[6, 8]",1.0,4.0,0.32411885261535645,1.7951900959014893,0.4814167859958896,72.0,724.0,0.0
Y,R,"[6, 9]",1.0,5.0,0.20908784866333008,1.6829681396484375,0.4643068073874035,72.0,725.0,0.0
Y,R,"[6, 10]",1.0,6.0,0.4438509941101074,2.1934289932250977,0.7408467677709207,72.0,726.0,0.0
R,U,"[5, 10]",1.0,7.0,0.1604599952697754,1.7987349033355713,0.639553435472538,72.0,727.0,0.0
R,U,"[4, 10]",1.0,8.0,0.1725449562072754,1.8262228965759277,0.6491341769794206,72.0,728.0,0.0
B,L,"[4, 9]",1.0,9.0,0.18308687210083008,1.4978158473968506,0.31391371631479525,72.0,729.0,0.0
R,U,"[3, 9]",1.0,10.0,0.18001008033752441,1.5289928913116455,0.3429741075673384,72.0,730.0,0.0
,,"(6, 6)",,,,,,,,
R,U,"[5, 6]",1.0,1.0,0.4041290283203125,5.775360822677612,0.31822428586392515,73.0,731.0,0.0
Y,R,"[5, 7]",1.0,2.0,0.22405505180358887,1.5577309131622314,0.32602274825056177,73.0,732.0,0.0
Y,R,"[5, 8]",1.0,3.0,0.2100369930267334,1.725398063659668,0.517801792064291,73.0,733.0,0.0
G,D,"[6, 8]",1.0,4.0,0.20466399192810059,1.8289580345153809,0.6300495721353458,73.0,734.0,0.0
Y,R,"[6, 9]",1.0,5.0,0.14889883995056152,1.7784490585327148,0.6250254484383098,73.0,735.0,0.0
Y,R,"[6, 10]",1.0,6.0,0.16263985633850098,1.4693231582641602,0.3114174277103041,73.0,736.0,0.0
R,U,"[5, 10]",1.0,7.0,0.1940009593963623,1.6256310939788818,0.4368891582119163,73.0,737.0,0.0
R,U,"[4, 10]",1.0,8.0,0.1957249641418457,1.9044671058654785,0.7077421260016432,73.0,738.0,0.0
B,L,"[4, 9]",1.0,9.0,0.19556784629821777,1.868368148803711,0.676160542064651,73.0,739.0,0.0
R,U,"[3, 9]",-1.0,9.0,0.0249478816986084,5.600613117218018,0.5101925939433904,73.0,740.0,0.0
,,"(6, 6)",,,,,,,,
R,U,"[5, 6]",1.0,1.0,0.4327208995819092,2.4378881454467773,0.3315866298537521,74.0,741.0,0.0
Y,R,"[5, 7]",1.0,2.0,0.2018589973449707,1.753420114517212,0.551401493350967,74.0,742.0,0.0
Y,R,"[5, 8]",1.0,3.0,0.1708989143371582,1.7921080589294434,0.6267428506888406,74.0,743.0,0.0
G,D,"[6, 8]",1.0,4.0,0.19362378120422363,1.8306491374969482,0.6409501922439351,74.0,744.0,0.0
Y,R,"[6, 9]",1.0,5.0,0.17539405822753906,1.5277421474456787,0.3520788246411074,74.0,745.0,0.0
Y,R,"[6, 10]",1.0,6.0,0.2748720645904541,1.7188282012939453,0.4374754709013343,74.0,746.0,0.0
R,U,"[5, 10]",1.0,7.0,0.3932039737701416,2.0939269065856934,0.6978138134716714,74.0,747.0,0.0
R,U,"[4, 10]",1.0,8.0,0.2101588249206543,1.7177619934082031,0.4990252172169919,74.0,748.0,0.0
B,L,"[4, 9]",1.0,9.0,0.3608081340789795,2.1108291149139404,0.7429165638861706,74.0,749.0,0.0
R,U,"[3, 9]",1.0,10.0,0.16647696495056152,1.5328590869903564,0.3761955565758136,74.0,750.0,0.0
,,"(6, 6)",,,,,,,,
R,U,"[5, 6]",1.0,1.0,0.37073516845703125,3.3006749153137207,0.2602543912111351,75.0,751.0,0.0
Y,R,"[5, 7]",1.0,2.0,0.2080521583557129,1.6966629028320312,0.4900811270055503,75.0,752.0,0.0
Y,R,"[5, 8]",1.0,3.0,0.2040719985961914,1.6861169338226318,0.49277791647815555,75.0,753.0,0.0
G,D,"[6, 8]",1.0,4.0,0.22471094131469727,1.666905164718628,0.4430433452486598,75.0,754.0,0.0
Y,R,"[6, 9]",1.0,5.0,0.2190248966217041,1.7154719829559326,0.508418297708461,75.0,755.0,0.0
Y,R,"[6, 10]",1.0,6.0,0.1855759620666504,1.6247470378875732,0.4499098629559642,75.0,756.0,0.0
R,U,"[5, 10]",1.0,7.0,0.2860538959503174,1.8954288959503174,0.6121307956018075,75.0,757.0,0.0
R,U,"[4, 10]",1.0,8.0,0.20621800422668457,1.7030298709869385,0.49821309276766895,75.0,758.0,0.0
B,L,"[4, 9]",1.0,9.0,0.20503592491149902,1.936980962753296,0.7183893986752106,75.0,759.0,0.0
R,U,"[3, 9]",1.0,10.0,0.17473196983337402,1.8294768333435059,0.6477614891083004,75.0,760.0,0.0
,,"(6, 6)",,,,,,,,
R,U,"[5, 6]",1.0,1.0,0.3645901679992676,3.2130630016326904,0.5943386884745758,76.0,761.0,0.0
Y,R,"[5, 7]",1.0,2.0,0.21128392219543457,1.9278080463409424,0.7219740983387234,76.0,762.0,0.0
Y,R,"[5, 8]",1.0,3.0,0.22194790840148926,1.6443350315093994,0.4331887253646363,76.0,763.0,0.0
G,D,"[6, 8]",1.0,4.0,0.2189159393310547,1.4794230461120605,0.2628936380821537,76.0,764.0,0.0
Y,R,"[6, 9]",1.0,5.0,0.20659589767456055,1.8528761863708496,0.6487875905851703,76.0,765.0,0.0
Y,R,"[6, 10]",1.0,6.0,0.23755598068237305,1.5970499515533447,0.3626526359190179,76.0,766.0,0.0
R,U,"[5, 10]",1.0,7.0,0.1735670566558838,1.7920238971710205,0.6045012447400782,76.0,767.0,0.0
R,U,"[4, 10]",1.0,8.0,0.17620182037353516,1.9113600254058838,0.7322937916661443,76.0,768.0,0.0
B,L,"[4, 9]",1.0,9.0,0.1835949420928955,1.8985121250152588,0.7141582462753071,76.0,769.0,0.0
R,U,"[3, 9]",1.0,10.0,0.16863393783569336,1.5752060413360596,0.4061807734288434,76.0,770.0,0.0
,,"(6, 6)",,,,,,,,
R,U,"[5, 6]",1.0,1.0,0.36722707748413086,2.397033929824829,0.5363481646786548,77.0,771.0,0.0
Y,R,"[5, 7]",1.0,2.0,0.18884515762329102,1.6535418033599854,0.45679186977841135,77.0,772.0,0.0
Y,R,"[5, 8]",1.0,3.0,0.17785191535949707,1.5725610256195068,0.39604075147724394,77.0,773.0,0.0
G,D,"[6, 8]",1.0,4.0,0.1895158290863037,1.5976529121398926,0.41034110154564724,77.0,774.0,0.0
Y,R,"[6, 9]",1.0,5.0,0.17441105842590332,1.4817228317260742,0.3087089390610819,77.0,775.0,0.0
Y,R,"[6, 10]",1.0,6.0,0.20580816268920898,1.86124587059021,0.6530362465530932,77.0,776.0,0.0
R,U,"[5, 10]",-1.0,6.0,0.008565902709960938,5.56187891960144,0.49819124219281996,77.0,777.0,0.0
R,U,"[4, 10]",-1.0,6.0,0.057840824127197266,5.384383201599121,0.26622062185836215,77.0,778.0,0.0
B,L,"[4, 9]",1.0,7.0,0.305042028427124,1.8265199661254883,0.5257015686508194,77.0,779.0,0.0
R,U,"[3, 9]",1.0,8.0,0.19939923286437988,1.5655889511108398,0.3749110963143481,77.0,780.0,0.0
,,"(6, 6)",,,,,,,,
R,U,"[5, 6]",1.0,1.0,0.4859280586242676,2.8669769763946533,0.5082413024482778,78.0,781.0,0.0
Y,R,"[5, 7]",1.0,2.0,0.20703887939453125,1.8473560810089111,0.6388760417445694,78.0,782.0,0.0
Y,R,"[5, 8]",1.0,3.0,0.31795382499694824,1.8488240242004395,0.5377894471169418,78.0,783.0,0.0
G,D,"[6, 8]",1.0,4.0,0.5448639392852783,2.0952558517456055,0.5497028946183988,78.0,784.0,0.0
Y,R,"[6, 9]",1.0,5.0,0.17501616477966309,1.6804039478302002,0.4967550439373739,78.0,785.0,0.0
Y,R,"[6, 10]",1.0,6.0,0.21765398979187012,1.5082979202270508,0.2885539171067635,78.0,786.0,0.0
R,U,"[5, 10]",1.0,7.0,0.39759397506713867,2.0695340633392334,0.6747246212715226,78.0,787.0,0.0
B,L,"[5, 9]",0.0,7.0,0.18694591522216797,1.7984449863433838,0.6228369270529408,78.0,788.0,0.0
R,U,"[4, 9]",1.0,8.0,0.25289297103881836,1.678452968597412,0.4347982704282675,78.0,789.0,0.0
R,U,"[3, 9]",1.0,9.0,0.48364996910095215,1.8949589729309082,0.41307614408232085,78.0,790.0,0.0
,,"(6, 6)",,,,,,,,
R,U,"[5, 6]",-2.0,0.0,1.363631010055542,4.435343980789185,0.7482887580826316,79.0,791.0,0.0
Y,R,"[5, 7]",1.0,1.0,0.1792309284210205,1.7314789295196533,0.5462867348720953,79.0,792.0,0.0
Y,R,"[5, 8]",1.0,2.0,0.17584705352783203,1.541949987411499,0.35517040607584377,79.0,793.0,0.0
Y,R,"[5, 9]",0.0,2.0,0.23573708534240723,1.5524201393127441,0.32429674642106404,79.0,794.0,0.0
B,L,"[5, 8]",0.0,2.0,0.35953783988952637,1.725142002105713,0.3659577593061207,79.0,795.0,0.0
R,U,"[4, 8]",-1.0,2.0,0.08822393417358398,5.6537909507751465,0.4864534365647437,79.0,796.0,0.0
G,D,"[5, 8]",0.0,2.0,0.20817208290100098,1.9579401016235352,0.7439493152692229,79.0,797.0,0.0
R,U,"[4, 8]",-1.0,2.0,0.05874919891357422,5.3736701011657715,0.2679629919997698,79.0,798.0,0.0
R,U,"[3, 8]",0.0,2.0,0.27976393699645996,1.9084010124206543,0.6260185573466517,79.0,799.0,0.0
R,U,"[2, 8]",0.0,2.0,0.46272921562194824,1.7567508220672607,0.29968075525470633,79.0,800.0,0.0
,,"(6, 6)",,,,,,,,
R,U,"[5, 6]",1.0,1.0,0.6458010673522949,3.5356948375701904,0.6350820951838276,80.0,801.0,0.0
Y,R,"[5, 7]",1.0,2.0,0.22575092315673828,1.8560569286346436,0.6245029746653259,80.0,802.0,0.0
Y,R,"[5, 8]",1.0,3.0,0.2917630672454834,1.621349811553955,0.3294315532959195,80.0,803.0,0.0
G,D,"[6, 8]",1.0,4.0,0.2493000030517578,1.672194004058838,0.4181050465746083,80.0,804.0,0.0
Y,R,"[6, 9]",1.0,5.0,0.20304393768310547,1.4858691692352295,0.2873637867828964,80.0,805.0,0.0
Y,R,"[6, 10]",1.0,6.0,0.31843113899230957,1.8960349559783936,0.5832428999686322,80.0,806.0,0.0
R,U,"[5, 10]",1.0,7.0,0.2692580223083496,1.5367929935455322,0.2702674314729478,80.0,807.0,0.0
B,L,"[5, 9]",0.0,7.0,0.24801993370056152,1.895745038986206,0.649208379419212,80.0,808.0,0.0
R,U,"[4, 9]",1.0,8.0,0.18407082557678223,1.498898983001709,0.31486010643623913,80.0,809.0,0.0
R,U,"[3, 9]",1.0,9.0,0.7380449771881104,2.4256691932678223,0.6734540648287289,80.0,810.0,0.0
,,"(6, 6)",,,,,,,,
R,U,"[5, 6]",-2.0,0.0,1.384734869003296,4.017159938812256,0.45735292218781526,81.0,811.0,0.0
R,U,"[4, 6]",0.0,0.0,0.23357200622558594,1.9103760719299316,0.6842701780342155,81.0,812.0,0.0
Y,R,"[4, 7]",0.0,0.0,0.1669471263885498,1.890017032623291,0.7241805965030275,81.0,813.0,0.0
B,L,"[4, 6]",-1.0,0.0,0.03301596641540527,5.498361110687256,0.4061590474161327,81.0,814.0,0.0
B,L,"[4, 5]",0.0,0.0,0.17855215072631836,1.5881822109222412,0.41086964959003147,81.0,815.0,0.0
G,D,"[5, 5]",0.0,0.0,0.1821739673614502,1.9085049629211426,0.7357557148280796,81.0,816.0,0.0
R,U,"[4, 5]",0.0,0.0,0.19453692436218262,1.7729840278625488,0.5755002805409288,81.0,817.0,0.0
G,D,"[5, 5]",0.0,0.0,0.20478391647338867,1.6482360363006592,0.4405379250889481,81.0,818.0,0.0
B,L,"[5, 4]",0.0,0.0,0.1768040657043457,1.4964709281921387,0.32041329943742103,81.0,819.0,0.0
Y,R,"[5, 5]",0.0,0.0,0.2297229766845703,1.9701120853424072,0.7402069380485754,81.0,820.0,0.0
,,"(6, 6)",,,,,,,,
R,U,"[5, 6]",1.0,1.0,0.3987009525299072,2.670691967010498,0.2612883037192823,82.0,821.0,0.0
Y,R,"[5, 7]",1.0,2.0,0.23775482177734375,1.4839890003204346,0.2619852648392993,82.0,822.0,0.0
Y,R,"[5, 8]",1.0,3.0,0.27089405059814453,1.910841941833496,0.6558530181662736,82.0,823.0,0.0
G,D,"[6, 8]",1.0,4.0,0.264448881149292,1.8374228477478027,0.5764656095653833,82.0,824.0,0.0
Y,R,"[6, 9]",1.0,5.0,0.19008111953735352,1.5381720066070557,0.3481180799470753,82.0,825.0,0.0
Y,R,"[6, 10]",1.0,6.0,0.3610999584197998,1.8375358581542969,0.46888691859584336,82.0,826.0,0.0
R,U,"[5, 10]",1.0,7.0,0.35268592834472656,2.0448408126831055,0.6968929239233184,82.0,827.0,0.0
R,U,"[4, 10]",1.0,8.0,0.30172204971313477,1.8736488819122314,0.570509518565373,82.0,828.0,0.0
B,L,"[4, 9]",1.0,9.0,0.25800490379333496,1.5346670150756836,0.2721201357500693,82.0,829.0,0.0
R,U,"[3, 9]",1.0,10.0,0.16971397399902344,1.6746201515197754,0.5133537161213202,82.0,830.0,0.0
,,"(6, 6)",,,,,,,,
R,U,"[5, 6]",1.0,1.0,0.4124588966369629,3.6851329803466797,0.4317692644332455,83.0,831.0,0.0
Y,R,"[5, 7]",1.0,2.0,0.18198394775390625,1.6086199283599854,0.4236673260319231,83.0,832.0,0.0
Y,R,"[5, 8]",1.0,3.0,0.21094107627868652,1.5399420261383057,0.33031004368552846,83.0,833.0,0.0
G,D,"[6, 8]",1.0,4.0,0.17498207092285156,1.8214049339294434,0.6348302659158739,83.0,834.0,0.0
Y,R,"[6, 9]",-1.0,4.0,0.0016369819641113281,5.347193956375122,0.2821583625307917,83.0,835.0,0.0
Y,R,"[6, 10]",1.0,5.0,0.20731091499328613,1.480621099472046,0.26281927825568707,83.0,836.0,0.0
R,U,"[5, 10]",1.0,6.0,0.27689099311828613,1.677135944366455,0.3898759122749141,83.0,837.0,0.0
R,U,"[4, 10]",1.0,7.0,0.20125389099121094,1.8615751266479492,0.6677700176058934,83.0,838.0,0.0
B,L,"[4, 9]",1.0,8.0,0.24951910972595215,1.9121079444885254,0.6635537272118655,83.0,839.0,0.0
R,U,"[3, 9]",1.0,9.0,0.18485093116760254,1.6332800388336182,0.44667910243811954,83.0,840.0,0.0
,,"(6, 6)",,,,,,,,
R,U,"[5, 6]",-2.0,0.0,1.1945369243621826,3.49295711517334,0.6395384816099825,84.0,841.0,0.0
Y,R,"[5, 7]",1.0,1.0,0.17036795616149902,1.8395490646362305,0.6787797637483521,84.0,842.0,0.0
Y,R,"[5, 8]",1.0,2.0,0.19418787956237793,1.5582849979400635,0.35409857358146113,84.0,843.0,0.0
G,D,"[6, 8]",1.0,3.0,0.3251628875732422,1.7359678745269775,0.40663930694323225,84.0,844.0,0.0
Y,R,"[6, 9]",1.0,4.0,0.1828770637512207,1.5503668785095215,0.37369407401601634,84.0,845.0,0.0
Y,R,"[6, 10]",1.0,5.0,0.26506710052490234,1.8463540077209473,0.586363419433138,84.0,846.0,0.0
R,U,"[5, 10]",1.0,6.0,0.39977598190307617,1.907167911529541,0.5104066478934566,84.0,847.0,0.0
R,U,"[4, 10]",1.0,7.0,0.21283817291259766,1.9481630325317383,0.7415815823439933,84.0,848.0,0.0
Y,R,"[4, 11]",0.0,7.0,0.3989858627319336,1.8462529182434082,0.45481516620091433,84.0,849.0,0.0
R,U,"[3, 11]",0.0,7.0,0.17873382568359375,1.5082828998565674,0.3298936321077947,84.0,850.0,0.0
,,"(6, 6)",,,,,,,,
R,U,"[5, 6]",1.0,1.0,0.4080350399017334,2.9531099796295166,0.4327432056753008,85.0,851.0,0.0
Y,R,"[5, 7]",1.0,2.0,0.21526408195495605,1.8543260097503662,0.6369215170593693,85.0,852.0,0.0
Y,R,"[5, 8]",1.0,3.0,0.20607805252075195,1.563971996307373,0.3677754370315718,85.0,853.0,0.0
G,D,"[6, 8]",1.0,4.0,0.2924830913543701,1.627082109451294,0.3281635069353714,85.0,854.0,0.0
Y,R,"[6, 9]",1.0,5.0,0.40767908096313477,1.889927864074707,0.4846931070586029,85.0,855.0,0.0
Y,R,"[6, 10]",1.0,6.0,0.23470520973205566,1.5866930484771729,0.3547770644105978,85.0,856.0,0.0
R,U,"[5, 10]",1.0,7.0,0.3441331386566162,1.821242094039917,0.47578129523857265,85.0,857.0,0.0
R,U,"[4, 10]",1.0,8.0,0.2897000312805176,1.863192081451416,0.5726248744124027,85.0,858.0,0.0
B,L,"[4, 9]",1.0,9.0,0.21802902221679688,1.9178810119628906,0.7066930858246101,85.0,859.0,0.0
R,U,"[3, 9]",1.0,10.0,0.17735004425048828,1.5667970180511475,0.3904266683554264,85.0,860.0,0.0
,,"(6, 6)",,,,,,,,
R,U,"[5, 6]",1.0,1.0,0.6483259201049805,4.48657488822937,0.643365014024078,86.0,861.0,0.0
Y,R,"[5, 7]",1.0,2.0,0.21129894256591797,1.7214229106903076,0.5148348184540211,86.0,862.0,0.0
Y,R,"[5, 8]",1.0,3.0,0.24015402793884277,1.7529518604278564,0.5011114022300543,86.0,863.0,0.0
G,D,"[6, 8]",1.0,4.0,0.19892215728759766,1.699967861175537,0.5010831104803257,86.0,864.0,0.0
Y,R,"[6, 9]",1.0,5.0,0.1949481964111328,1.619009017944336,0.420158727071607,86.0,865.0,0.0
Y,R,"[6, 10]",1.0,6.0,0.5812809467315674,1.8303921222686768,0.2506406851774283,86.0,866.0,0.0
R,U,"[5, 10]",1.0,7.0,0.49288296699523926,1.9588401317596436,0.45928801211462694,86.0,867.0,0.0
R,U,"[4, 10]",1.0,8.0,0.20985817909240723,1.595494031906128,0.3880748332610755,86.0,868.0,0.0
B,L,"[4, 9]",1.0,9.0,0.420881986618042,2.0244898796081543,0.6123874529582313,86.0,869.0,0.0
R,U,"[3, 9]",1.0,10.0,0.16247892379760742,1.8336670398712158,0.6626490819891873,86.0,870.0,0.0
,,"(6, 6)",,,,,,,,
R,U,"[5, 6]",1.0,1.0,0.7775051593780518,2.84926700592041,0.3288642981089665,87.0,871.0,0.0
Y,R,"[5, 7]",1.0,2.0,0.23322701454162598,1.8264338970184326,0.5882691984866091,87.0,872.0,0.0
Y,R,"[5, 8]",1.0,3.0,0.33559703826904297,2.053212881088257,0.7247337853889193,87.0,873.0,0.0
G,D,"[6, 8]",1.0,4.0,0.20947790145874023,1.8395648002624512,0.6311230353577267,87.0,874.0,0.0
Y,R,"[6, 9]",1.0,5.0,0.1844320297241211,1.9279899597167969,0.7424113635139876,87.0,875.0,0.0
Y,R,"[6, 10]",1.0,6.0,0.2897641658782959,1.548084020614624,0.2574046696235159,87.0,876.0,0.0
R,U,"[5, 10]",1.0,7.0,0.251727819442749,1.817363977432251,0.5743088933892235,87.0,877.0,0.0
R,U,"[4, 10]",1.0,8.0,0.20009398460388184,1.911214828491211,0.7188116601487888,87.0,878.0,0.0
B,L,"[4, 9]",1.0,9.0,0.4024038314819336,1.822342872619629,0.42465304571727724,87.0,879.0,0.0
R,U,"[3, 9]",1.0,10.0,0.1798100471496582,1.7624199390411377,0.5869030737686413,87.0,880.0,0.0
,,"(6, 6)",,,,,,,,
R,U,"[5, 6]",1.0,1.0,0.8074910640716553,2.7555480003356934,0.4759234708755109,88.0,881.0,0.0
Y,R,"[5, 7]",1.0,2.0,0.19199514389038086,1.9291160106658936,0.7381450678319301,88.0,882.0,0.0
Y,R,"[5, 8]",1.0,3.0,0.25868701934814453,1.9844779968261719,0.7225015043866198,88.0,883.0,0.0
G,D,"[6, 8]",1.0,4.0,0.5823650360107422,2.2512309551239014,0.6740704961377031,88.0,884.0,0.0
Y,R,"[6, 9]",1.0,5.0,0.1974470615386963,1.8993258476257324,0.70640057504929,88.0,885.0,0.0
Y,R,"[6, 10]",1.0,6.0,0.18825602531433105,1.534315824508667,0.3577147305415447,88.0,886.0,0.0
R,U,"[5, 10]",1.0,7.0,0.23796892166137695,1.8360779285430908,0.6101707524611197,88.0,887.0,0.0
R,U,"[4, 10]",1.0,8.0,0.20862412452697754,1.48384690284729,0.27764569409642087,88.0,888.0,0.0
B,L,"[4, 9]",1.0,9.0,0.25166893005371094,1.5456831455230713,0.30654730493493787,88.0,889.0,0.0
R,U,"[3, 9]",1.0,10.0,0.2032639980316162,1.8061611652374268,0.6124814669216534,88.0,890.0,0.0
,,"(6, 6)",,,,,,,,
R,U,"[5, 6]",1.0,1.0,0.7255749702453613,3.166762113571167,0.7290803595514789,89.0,891.0,0.0
Y,R,"[5, 7]",1.0,2.0,0.21848392486572266,1.5277700424194336,0.30720942223585007,89.0,892.0,0.0
Y,R,"[5, 8]",1.0,3.0,0.2592189311981201,1.535916805267334,0.27646480562837195,89.0,893.0,0.0
G,D,"[6, 8]",1.0,4.0,0.23184919357299805,1.564851999282837,0.34116544726850373,89.0,894.0,0.0
Y,R,"[6, 9]",1.0,5.0,0.2354121208190918,1.7641079425811768,0.5383460325409049,89.0,895.0,0.0
Y,R,"[6, 10]",1.0,6.0,0.188493013381958,1.6019279956817627,0.40711037903010006,89.0,896.0,0.0
R,U,"[5, 10]",1.0,7.0,0.20676302909851074,1.9272899627685547,0.7174461764440871,89.0,897.0,0.0
R,U,"[4, 10]",1.0,8.0,0.24013400077819824,1.759922981262207,0.5108960679961043,89.0,898.0,0.0
B,L,"[4, 9]",1.0,9.0,0.3232109546661377,1.907379150390625,0.5847835043809835,89.0,899.0,0.0
R,U,"[3, 9]",1.0,10.0,0.1974930763244629,1.6784350872039795,0.47986770253916766,89.0,900.0,0.0
,,"(6, 6)",,,,,,,,
R,U,"[5, 6]",1.0,1.0,0.7375380992889404,3.5176610946655273,0.4809752858222147,90.0,901.0,0.0
Y,R,"[5, 7]",1.0,2.0,0.19251108169555664,1.880162000656128,0.6775574968519542,90.0,902.0,0.0
Y,R,"[5, 8]",1.0,3.0,0.21272706985473633,1.83809494972229,0.6322941009790073,90.0,903.0,0.0
G,D,"[6, 8]",1.0,4.0,0.19075489044189453,1.8809890747070312,0.6798012676739607,90.0,904.0,0.0
Y,R,"[6, 9]",-2.0,4.0,1.130497932434082,2.4965670108795166,0.39337403854877173,90.0,905.0,0.0
Y,R,"[6, 10]",1.0,5.0,0.1921229362487793,1.4440739154815674,0.25421780818743017,90.0,906.0,0.0
R,U,"[5, 10]",1.0,6.0,0.24700689315795898,1.9786229133605957,0.7322794231659339,90.0,907.0,0.0
R,U,"[4, 10]",1.0,7.0,0.19373106956481934,1.5418119430541992,0.3412097683390898,90.0,908.0,0.0
B,L,"[4, 9]",1.0,8.0,0.1983799934387207,1.5370521545410156,0.3449250249920858,90.0,909.0,0.0
R,U,"[3, 9]",1.0,9.0,0.20905303955078125,1.7924962043762207,0.5870099793219818,90.0,910.0,0.0
,,"(6, 6)",,,,,,,,
R,U,"[5, 6]",1.0,1.0,0.6707191467285156,3.0784800052642822,0.7320474122469347,91.0,911.0,0.0
Y,R,"[5, 7]",1.0,2.0,0.18967008590698242,1.5034728050231934,0.30248591703744954,91.0,912.0,0.0
Y,R,"[5, 8]",1.0,3.0,0.36394500732421875,2.066524028778076,0.7019498068340466,91.0,913.0,0.0
G,D,"[6, 8]",1.0,4.0,0.23596882820129395,1.8359839916229248,0.604632823589113,91.0,914.0,0.0
Y,R,"[6, 9]",1.0,5.0,0.18857789039611816,1.4937870502471924,0.31554955290817727,91.0,915.0,0.0
Y,R,"[6, 10]",1.0,6.0,0.24996209144592285,1.9307501316070557,0.6790742147823233,91.0,916.0,0.0
R,U,"[5, 10]",1.0,7.0,0.20526695251464844,1.5114760398864746,0.3075339540184353,91.0,917.0,0.0
R,U,"[4, 10]",1.0,8.0,0.19441008567810059,1.8120858669281006,0.6193973077584446,91.0,918.0,0.0
B,L,"[4, 9]",1.0,9.0,0.22562789916992188,1.9276268482208252,0.6968573838107642,91.0,919.0,0.0
R,U,"[3, 9]",1.0,10.0,0.20924592018127441,1.7775189876556396,0.5578373299068006,91.0,920.0,0.0
,,"(6, 6)",,,,,,,,
R,U,"[5, 6]",1.0,1.0,0.48363709449768066,2.64045786857605,0.7315770879622485,92.0,921.0,0.0
Y,R,"[5, 7]",1.0,2.0,0.219757080078125,1.7741129398345947,0.5556814526139193,92.0,922.0,0.0
Y,R,"[5, 8]",1.0,3.0,0.29131293296813965,1.7795557975769043,0.4852992039655814,92.0,923.0,0.0
G,D,"[6, 8]",1.0,4.0,0.2505459785461426,1.99760103225708,0.7491430951065365,92.0,924.0,0.0
Y,R,"[6, 9]",1.0,5.0,0.1784830093383789,1.70097017288208,0.5170597698220688,92.0,925.0,0.0
Y,R,"[6, 10]",1.0,6.0,0.3274710178375244,1.7188260555267334,0.38603602949403987,92.0,926.0,0.0
R,U,"[5, 10]",1.0,7.0,0.19491887092590332,1.8095710277557373,0.6123996942132872,92.0,927.0,0.0
R,U,"[4, 10]",1.0,8.0,0.18412089347839355,1.4568328857421875,0.26915945801967495,92.0,928.0,0.0
B,L,"[4, 9]",1.0,9.0,0.28714609146118164,1.967979907989502,0.686701099200453,92.0,929.0,0.0
R,U,"[3, 9]",1.0,10.0,0.188431978225708,1.8170158863067627,0.6370781508904093,92.0,930.0,0.0
,,"(6, 6)",,,,,,,,
R,U,"[5, 6]",1.0,1.0,0.6395728588104248,2.786099910736084,0.4232301244451735,93.0,931.0,0.0
Y,R,"[5, 7]",1.0,2.0,0.19133210182189941,1.5650877952575684,0.3717913776540483,93.0,932.0,0.0
Y,R,"[5, 8]",1.0,3.0,0.33671092987060547,1.8336379528045654,0.5052516096758823,93.0,933.0,0.0
G,D,"[6, 8]",1.0,4.0,0.2324540615081787,1.5380699634552002,0.31008010382672724,93.0,934.0,0.0
Y,R,"[6, 9]",1.0,5.0,0.23312902450561523,1.927191972732544,0.7037985109135074,93.0,935.0,0.0
Y,R,"[6, 10]",1.0,6.0,0.3427309989929199,1.9616179466247559,0.6151465924493025,93.0,936.0,0.0
R,U,"[5, 10]",1.0,7.0,0.19708895683288574,1.8104660511016846,0.6089445009083574,93.0,937.0,0.0
R,U,"[4, 10]",1.0,8.0,0.1550440788269043,1.7144291400909424,0.5734932962454072,93.0,938.0,0.0
B,L,"[4, 9]",1.0,9.0,0.21239399909973145,1.5605151653289795,0.3508388669160067,93.0,939.0,0.0
R,U,"[3, 9]",1.0,10.0,0.29363489151000977,1.8475511074066162,0.5480680350532641,93.0,940.0,0.0
,,"(6, 6)",,,,,,,,
R,U,"[5, 6]",1.0,1.0,0.4365198612213135,3.2122600078582764,0.7101209132989708,94.0,941.0,0.0
Y,R,"[5, 7]",1.0,2.0,0.253633975982666,1.5467779636383057,0.3073300168710679,94.0,942.0,0.0
Y,R,"[5, 8]",1.0,3.0,0.6137030124664307,1.8625068664550781,0.25321857300886313,94.0,943.0,0.0
G,D,"[6, 8]",1.0,4.0,0.2859978675842285,1.99873685836792,0.7181411302963077,94.0,944.0,0.0
Y,R,"[6, 9]",1.0,5.0,0.20112395286560059,1.5380959510803223,0.33979994660557356,94.0,945.0,0.0
Y,R,"[6, 10]",1.0,6.0,0.579578161239624,2.081303834915161,0.5042435279862845,94.0,946.0,0.0
R,U,"[5, 10]",1.0,7.0,0.17328810691833496,1.6449968814849854,0.46601665751731813,94.0,947.0,0.0
R,U,"[4, 10]",1.0,8.0,0.18126392364501953,1.7019670009613037,0.5179270521109879,94.0,948.0,0.0
B,L,"[4, 9]",1.0,9.0,0.2602090835571289,1.8818109035491943,0.6163317743356427,94.0,949.0,0.0
R,U,"[3, 9]",1.0,10.0,0.13189005851745605,1.6879298686981201,0.554098393536722,94.0,950.0,0.0
,,"(6, 6)",,,,,,,,
R,U,"[5, 6]",1.0,1.0,0.4776918888092041,2.735960006713867,0.45685917150938354,95.0,951.0,0.0
Y,R,"[5, 7]",1.0,2.0,0.16215300559997559,1.8012800216674805,0.641231424102024,95.0,952.0,0.0
Y,R,"[5, 8]",1.0,3.0,0.255687952041626,1.7309257984161377,0.48896616088513517,95.0,953.0,0.0
G,D,"[6, 8]",1.0,4.0,0.23084807395935059,1.5661530494689941,0.338464955630716,95.0,954.0,0.0
Y,R,"[6, 9]",1.0,5.0,0.18512201309204102,1.793792963027954,0.6154059321940948,95.0,955.0,0.0
Y,R,"[6, 10]",1.0,6.0,0.1711289882659912,1.5372159481048584,0.3694889098190621,95.0,956.0,0.0
R,U,"[5, 10]",1.0,7.0,0.1897869110107422,1.5230779647827148,0.32583726687306885,95.0,957.0,0.0
R,U,"[4, 10]",1.0,8.0,0.2870810031890869,1.6015870571136475,0.32739746553556964,95.0,958.0,0.0
B,L,"[4, 9]",1.0,9.0,0.4611067771911621,2.0144131183624268,0.5582618026918458,95.0,959.0,0.0
R,U,"[3, 9]",1.0,10.0,0.16060996055603027,1.8307521343231201,0.6722056109162775,95.0,960.0,0.0
,,"(6, 6)",,,,,,,,
R,U,"[5, 6]",1.0,1.0,0.40671491622924805,2.627551794052124,0.5998532257979803,96.0,961.0,0.0
Y,R,"[5, 7]",1.0,2.0,0.1527099609375,1.7395820617675781,0.5893353790294238,96.0,962.0,0.0
Y,R,"[5, 8]",1.0,3.0,0.1733560562133789,1.7183470726013184,0.5410764187237378,96.0,963.0,0.0
G,D,"[6, 8]",1.0,4.0,0.25066399574279785,1.8159480094909668,0.5736699465050827,96.0,964.0,0.0
Y,R,"[6, 9]",1.0,5.0,0.16796588897705078,1.6068239212036133,0.4471688279472209,96.0,965.0,0.0
Y,R,"[6, 10]",1.0,6.0,0.17961788177490234,1.6293039321899414,0.4432127361523076,96.0,966.0,0.0
R,U,"[5, 10]",1.0,7.0,0.20863699913024902,1.567317008972168,0.3605358371456845,96.0,967.0,0.0
R,U,"[4, 10]",-1.0,7.0,0.09908008575439453,5.463610887527466,0.29068958487732954,96.0,968.0,0.0
B,L,"[4, 9]",1.0,8.0,0.22229909896850586,1.8644189834594727,0.6384279613936479,96.0,969.0,0.0
R,U,"[3, 9]",1.0,9.0,0.21060895919799805,1.6186270713806152,0.40700453503153716,96.0,970.0,0.0
,,"(6, 6)",,,,,,,,
R,U,"[5, 6]",1.0,1.0,0.46959590911865234,3.115600824356079,0.6555239760303482,97.0,971.0,0.0
Y,R,"[5, 7]",1.0,2.0,0.254457950592041,1.5626249313354492,0.3185285080624121,97.0,972.0,0.0
Y,R,"[5, 8]",1.0,3.0,0.356579065322876,1.9677588939666748,0.6026809212382668,97.0,973.0,0.0
G,D,"[6, 8]",1.0,4.0,0.20496511459350586,1.5024490356445312,0.28868191448396563,97.0,974.0,0.0
Y,R,"[6, 9]",1.0,5.0,0.21189403533935547,1.4852430820465088,0.27399486266207895,97.0,975.0,0.0
Y,R,"[6, 10]",1.0,6.0,0.3518829345703125,1.816784143447876,0.4738390879325851,97.0,976.0,0.0
R,U,"[5, 10]",1.0,7.0,0.48886895179748535,1.7610149383544922,0.28503399720127326,97.0,977.0,0.0
R,U,"[4, 10]",1.0,8.0,0.2051830291748047,1.843430995941162,0.6447583653416906,97.0,978.0,0.0
B,L,"[4, 9]",1.0,9.0,0.2037959098815918,1.8505699634552002,0.6619269432258176,97.0,979.0,0.0
R,U,"[3, 9]",1.0,10.0,0.1701059341430664,1.5667660236358643,0.39557550539293673,97.0,980.0,0.0
,,"(6, 6)",,,,,,,,
R,U,"[5, 6]",1.0,1.0,0.7718980312347412,2.677994966506958,0.34015654905778786,98.0,981.0,0.0
Y,R,"[5, 7]",1.0,2.0,0.20581698417663574,1.835158109664917,0.6249420219902537,98.0,982.0,0.0
Y,R,"[5, 8]",1.0,3.0,0.185499906539917,1.815702199935913,0.6406317730397875,98.0,983.0,0.0
G,D,"[6, 8]",1.0,4.0,0.18377399444580078,1.4891719818115234,0.3135611605894853,98.0,984.0,0.0
Y,R,"[6, 9]",1.0,5.0,0.7603380680084229,2.2887890338897705,0.5187674305065737,98.0,985.0,0.0
Y,R,"[6, 10]",1.0,6.0,0.2194077968597412,1.5349140167236328,0.32049715823855535,98.0,986.0,0.0
R,U,"[5, 10]",1.0,7.0,0.19704699516296387,1.8630800247192383,0.6665553824530797,98.0,987.0,0.0
R,U,"[4, 10]",1.0,8.0,0.18241000175476074,1.6844940185546875,0.5012025603156399,98.0,988.0,0.0
B,L,"[4, 9]",1.0,9.0,0.1860659122467041,1.8838307857513428,0.7014249263749321,98.0,989.0,0.0
R,U,"[3, 9]",1.0,10.0,0.2096691131591797,1.8288450241088867,0.6136671585629986,98.0,990.0,0.0
,,"(6, 6)",,,,,,,,
R,U,"[5, 6]",1.0,1.0,0.607403039932251,2.605219841003418,0.4523253747956269,99.0,991.0,0.0
Y,R,"[5, 7]",1.0,2.0,0.18731904029846191,1.917017936706543,0.7356382164729506,99.0,992.0,0.0
Y,R,"[5, 8]",1.0,3.0,0.1746678352355957,1.4488978385925293,0.26836222569784707,99.0,993.0,0.0
G,D,"[6, 8]",1.0,4.0,0.2528190612792969,1.8049240112304688,0.5562294079549952,99.0,994.0,0.0
Y,R,"[6, 9]",1.0,5.0,0.16891098022460938,1.8169581890106201,0.6563218795448501,99.0,995.0,0.0
Y,R,"[6, 10]",1.0,6.0,0.1879730224609375,1.6477930545806885,0.47098375146168503,99.0,996.0,0.0
R,U,"[5, 10]",1.0,7.0,0.18280315399169922,1.7690529823303223,0.589991470387325,99.0,997.0,0.0
R,U,"[4, 10]",-1.0,7.0,0.08233213424682617,5.618801116943359,0.47544013743940566,99.0,998.0,0.0
B,L,"[4, 9]",1.0,8.0,0.18759989738464355,1.6501080989837646,0.4754346815557533,99.0,999.0,0.0
R,U,"[3, 9]",1.0,9.0,0.293597936630249,1.952665090560913,0.6613215105841985,99.0,1000.0,0.0
