button_choice,action_choice,coordinate_choice,reward,cumulative_reward,rt,total_trial_time,iti,block_n,trial_n,trial_type
R,U,"[5, 6]",1.0,1.0,0.45456910133361816,1.8799920082092285,0.4142195654465927,0.0,1.0,0.0
Y,R,"[5, 7]",1.0,2.0,0.33721208572387695,1.9896888732910156,0.6371095808452026,0.0,2.0,0.0
Y,R,"[5, 8]",1.0,3.0,0.2596311569213867,1.825882911682129,0.5628512560128989,0.0,3.0,0.0
G,D,"[6, 8]",1.0,4.0,0.3736450672149658,1.7564630508422852,0.36953319956947006,0.0,4.0,0.0
Y,R,"[6, 9]",1.0,5.0,0.27683496475219727,1.9272382259368896,0.646447834135077,0.0,5.0,0.0
Y,R,"[6, 10]",1.0,6.0,0.2316739559173584,1.9748589992523193,0.7211964074454098,0.0,6.0,0.0
R,U,"[5, 10]",1.0,7.0,0.2797369956970215,1.58573317527771,0.2906038523023777,0.0,7.0,0.0
R,U,"[4, 10]",1.0,8.0,0.26471710205078125,1.8420569896697998,0.5656511914023249,0.0,8.0,0.0
B,L,"[4, 9]",1.0,9.0,0.260761022567749,1.7072100639343262,0.4399077574145848,0.0,9.0,0.0
R,U,"[3, 9]",1.0,10.0,0.3527050018310547,1.643263816833496,0.2833483899271828,0.0,10.0,0.0
,,"(6, 6)",,,,,,0.0,,
R,U,"[5, 6]",1.0,1.0,0.3433408737182617,3.4242310523986816,0.7069729563570298,,11.0,0.0
Y,R,"[5, 7]",1.0,2.0,0.22628092765808105,1.4923028945922852,0.2663787271830795,1.0,12.0,0.0
Y,R,"[5, 8]",1.0,3.0,0.26352405548095703,1.9927239418029785,0.7254608350359197,1.0,13.0,0.0
G,D,"[6, 8]",1.0,4.0,0.3252880573272705,1.6003849506378174,0.276225752550343,1.0,14.0,0.0
Y,R,"[6, 9]",1.0,5.0,0.290053129196167,1.692234992980957,0.4016641442798718,1.0,15.0,0.0
Y,R,"[6, 10]",1.0,6.0,0.22017598152160645,1.8666749000549316,0.6347694004679213,1.0,16.0,0.0
R,U,"[5, 10]",1.0,7.0,0.3316380977630615,1.7056388854980469,0.3739684793086731,1.0,17.0,0.0
R,U,"[4, 10]",1.0,8.0,0.20560407638549805,1.9313228130340576,0.7215171308282919,1.0,18.0,0.0
B,L,"[4, 9]",1.0,9.0,0.3083930015563965,1.904952049255371,0.5933689684552067,1.0,19.0,0.0
R,U,"[3, 9]",1.0,10.0,0.2634389400482178,1.5566389560699463,0.3003832157403151,1.0,20.0,0.0
,,"(6, 6)",,,,,,1.0,,
R,U,"[5, 6]",1.0,1.0,0.28252100944519043,3.374971866607666,0.6914414928131782,,21.0,0.0
Y,R,"[5, 7]",1.0,2.0,0.23032402992248535,1.4766108989715576,0.2518404352429491,2.0,22.0,0.0
Y,R,"[5, 8]",1.0,3.0,0.28132009506225586,1.6841280460357666,0.3856648698242162,2.0,23.0,0.0
G,D,"[6, 8]",1.0,4.0,0.26851415634155273,1.8608109951019287,0.5796415575598115,2.0,24.0,0.0
Y,R,"[6, 9]",1.0,5.0,0.2501239776611328,1.9834239482879639,0.7298513743144093,2.0,25.0,0.0
Y,R,"[6, 10]",1.0,6.0,0.33287787437438965,2.034627914428711,0.6809547423341386,2.0,26.0,0.0
R,U,"[5, 10]",1.0,7.0,0.28653907775878906,1.8681809902191162,0.5660328660860763,2.0,27.0,0.0
R,U,"[4, 10]",1.0,8.0,0.29032301902770996,1.8255529403686523,0.5249644476522533,2.0,28.0,0.0
B,L,"[4, 9]",1.0,9.0,0.3214578628540039,1.9777028560638428,0.6525493670681419,2.0,29.0,0.0
R,U,"[3, 9]",1.0,10.0,0.3734290599822998,1.7492239475250244,0.3687748357140881,2.0,30.0,0.0
,,"(6, 6)",,,,,,2.0,,
R,U,"[5, 6]",1.0,1.0,0.30838894844055176,2.7985241413116455,0.33386386828597314,,31.0,0.0
Y,R,"[5, 7]",1.0,2.0,0.24717020988464355,1.5987160205841064,0.3492061103127476,3.0,32.0,0.0
Y,R,"[5, 8]",1.0,3.0,0.2433779239654541,1.6423020362854004,0.3914552837348529,3.0,33.0,0.0
G,D,"[6, 8]",1.0,4.0,0.4808809757232666,2.000082015991211,0.5246879076719174,3.0,34.0,0.0
Y,R,"[6, 9]",1.0,5.0,0.2820770740509033,1.7534029483795166,0.46124938499587037,3.0,35.0,0.0
Y,R,"[6, 10]",1.0,6.0,0.32310009002685547,1.8114209175109863,0.4894579272849245,3.0,36.0,0.0
R,U,"[5, 10]",1.0,7.0,0.2994349002838135,1.9052400588989258,0.5945204654048959,3.0,37.0,0.0
R,U,"[4, 10]",1.0,8.0,0.2866809368133545,1.7029850482940674,0.41429969203940376,3.0,38.0,0.0
B,L,"[4, 9]",1.0,9.0,0.3728911876678467,2.108307123184204,0.7224946641958327,3.0,39.0,0.0
R,U,"[3, 9]",1.0,10.0,0.30599188804626465,2.035207986831665,0.7242758866919587,3.0,40.0,0.0
,,"(6, 6)",,,,,,3.0,,
R,U,"[5, 6]",1.0,1.0,0.29712486267089844,2.6356048583984375,0.4269755472778033,,41.0,0.0
Y,R,"[5, 7]",1.0,2.0,0.29250192642211914,1.8961989879608154,0.6064436778280735,4.0,42.0,0.0
Y,R,"[5, 8]",1.0,3.0,0.23961687088012695,1.6725420951843262,0.4290652678389002,4.0,43.0,0.0
G,D,"[6, 8]",1.0,4.0,0.43279480934143066,2.123739004135132,0.6858608439654763,4.0,44.0,0.0
Y,R,"[6, 9]",1.0,5.0,0.25159382820129395,1.755859136581421,0.49192664618746373,4.0,45.0,0.0
Y,R,"[6, 10]",1.0,6.0,0.23569011688232422,1.7127540111541748,0.4713767303107219,4.0,46.0,0.0
R,U,"[5, 10]",1.0,7.0,0.3063061237335205,1.5627148151397705,0.2508398699833859,4.0,47.0,0.0
R,U,"[4, 10]",1.0,8.0,0.35149478912353516,1.8097147941589355,0.44357751455594774,4.0,48.0,0.0
B,L,"[4, 9]",1.0,9.0,0.5076398849487305,2.1769368648529053,0.6704143748849178,4.0,49.0,0.0
R,U,"[3, 9]",1.0,10.0,0.36919713020324707,1.8458309173583984,0.4829499725662203,4.0,50.0,0.0
,,"(6, 6)",,,,,,4.0,,
R,U,"[5, 6]",1.0,1.0,0.30417609214782715,2.6299638748168945,0.6629637542181384,,51.0,0.0
Y,R,"[5, 7]",1.0,2.0,0.2190849781036377,1.7620949745178223,0.525220101407224,5.0,52.0,0.0
Y,R,"[5, 8]",1.0,3.0,0.2831549644470215,1.8651809692382812,0.5736584147800001,5.0,53.0,0.0
G,D,"[6, 8]",1.0,4.0,0.3464629650115967,1.7160999774932861,0.3732459679822594,5.0,54.0,0.0
Y,R,"[6, 9]",1.0,5.0,0.27281999588012695,1.8741469383239746,0.5970944651773757,5.0,55.0,0.0
Y,R,"[6, 10]",1.0,6.0,0.22356486320495605,1.5753998756408691,0.3394695273527544,5.0,56.0,0.0
R,U,"[5, 10]",1.0,7.0,0.3163478374481201,2.0583689212799072,0.7307958332582573,5.0,57.0,0.0
R,U,"[4, 10]",1.0,8.0,0.24657988548278809,1.92600679397583,0.6734605316407767,5.0,58.0,0.0
B,L,"[4, 9]",1.0,9.0,0.322739839553833,1.9442589282989502,0.617781379443279,5.0,59.0,0.0
R,U,"[3, 9]",1.0,10.0,0.4088900089263916,2.110010862350464,0.6943556520880522,5.0,60.0,0.0
,,"(6, 6)",,,,,,5.0,,
R,U,"[5, 6]",1.0,1.0,0.2980380058288574,2.9161438941955566,0.7269409847483596,,61.0,0.0
Y,R,"[5, 7]",1.0,2.0,0.26069188117980957,1.892007827758789,0.6356734461715966,6.0,62.0,0.0
Y,R,"[5, 8]",1.0,3.0,0.2725248336791992,1.6474359035491943,0.36683416097599875,6.0,63.0,0.0
G,D,"[6, 8]",1.0,4.0,0.45072197914123535,1.8289070129394531,0.362550402014983,6.0,64.0,0.0
Y,R,"[6, 9]",1.0,5.0,0.32094907760620117,2.065295934677124,0.7446299714783784,6.0,65.0,0.0
Y,R,"[6, 10]",1.0,6.0,0.22722101211547852,1.8651862144470215,0.6428685266098841,6.0,66.0,0.0
R,U,"[5, 10]",1.0,7.0,0.2719290256500244,1.826646089553833,0.552507145279952,6.0,67.0,0.0
R,U,"[4, 10]",1.0,8.0,0.2544879913330078,1.8594520092010498,0.5955717568752872,6.0,68.0,0.0
B,L,"[4, 9]",1.0,9.0,0.357576847076416,2.0017101764678955,0.6471912121755699,6.0,69.0,0.0
R,U,"[3, 9]",1.0,10.0,0.2917759418487549,1.9956729412078857,0.6926876546925881,6.0,70.0,0.0
,,"(6, 6)",,,,,,6.0,,
R,U,"[5, 6]",1.0,1.0,0.28893399238586426,2.1863739490509033,0.42920259385130477,,71.0,0.0
Y,R,"[5, 7]",1.0,2.0,0.2769801616668701,1.9107270240783691,0.6231884366721777,7.0,72.0,0.0
Y,R,"[5, 8]",1.0,3.0,0.25780296325683594,1.9496228694915771,0.6895066361625856,7.0,73.0,0.0
G,D,"[6, 8]",1.0,4.0,0.334913969039917,1.6753289699554443,0.33165047125150526,7.0,74.0,0.0
Y,R,"[6, 9]",1.0,5.0,0.3194429874420166,1.7430009841918945,0.4080024474365636,7.0,75.0,0.0
Y,R,"[6, 10]",1.0,6.0,0.3482539653778076,1.975097894668579,0.6327027000516883,7.0,76.0,0.0
R,U,"[5, 10]",1.0,7.0,0.36522889137268066,1.8161168098449707,0.4490074463778418,7.0,77.0,0.0
R,U,"[4, 10]",1.0,8.0,0.26262998580932617,1.736285924911499,0.46870331135353105,7.0,78.0,0.0
B,L,"[4, 9]",1.0,9.0,0.4721810817718506,2.1810719966888428,0.6995604554200883,7.0,79.0,0.0
R,U,"[3, 9]",1.0,10.0,0.2767791748046875,1.6450200080871582,0.36141641512110645,7.0,80.0,0.0
,,"(6, 6)",,,,,,7.0,,
R,U,"[5, 6]",1.0,1.0,0.29666614532470703,2.926405191421509,0.621136646169591,,81.0,0.0
Y,R,"[5, 7]",1.0,2.0,0.2109370231628418,1.743886947631836,0.5316840359446372,8.0,82.0,0.0
Y,R,"[5, 8]",1.0,3.0,0.2554042339324951,1.55765700340271,0.2895190612394545,8.0,83.0,0.0
G,D,"[6, 8]",1.0,4.0,0.447451114654541,2.011409044265747,0.5671541767673284,8.0,84.0,0.0
Y,R,"[6, 9]",1.0,5.0,0.224884033203125,1.8054780960083008,0.5728049965294988,8.0,85.0,0.0
Y,R,"[6, 10]",1.0,6.0,0.24223995208740234,1.7190818786621094,0.47546720270828957,8.0,86.0,0.0
R,U,"[5, 10]",1.0,7.0,0.3386039733886719,1.9194200038909912,0.5944813623377025,8.0,87.0,0.0
R,U,"[4, 10]",1.0,8.0,0.32585716247558594,1.9381279945373535,0.6158704200062497,8.0,88.0,0.0
B,L,"[4, 9]",1.0,9.0,0.4006328582763672,2.035006046295166,0.6177811722395383,8.0,89.0,0.0
R,U,"[3, 9]",1.0,10.0,0.37250208854675293,1.8885250091552734,0.5060852899913589,8.0,90.0,0.0
,,"(6, 6)",,,,,,8.0,,
R,U,"[5, 6]",1.0,1.0,0.33643293380737305,2.4011390209198,0.2576622100251003,,91.0,0.0
Y,R,"[5, 7]",1.0,2.0,0.32931995391845703,1.7906811237335205,0.464680697199076,9.0,92.0,0.0
Y,R,"[5, 8]",1.0,3.0,0.28635382652282715,1.7088220119476318,0.40687803702752245,9.0,93.0,0.0
G,D,"[6, 8]",1.0,4.0,0.4073598384857178,1.7555558681488037,0.34573334026169017,9.0,94.0,0.0
Y,R,"[6, 9]",1.0,5.0,0.28732895851135254,1.7009060382843018,0.41324131288781024,9.0,95.0,0.0
Y,R,"[6, 10]",1.0,6.0,0.28918886184692383,2.0501649379730225,0.7464894614237313,9.0,96.0,0.0
R,U,"[5, 10]",1.0,7.0,0.29292893409729004,1.7974200248718262,0.4941450126021047,9.0,97.0,0.0
R,U,"[4, 10]",1.0,8.0,0.22701215744018555,1.6153340339660645,0.3928626667580092,9.0,98.0,0.0
B,L,"[4, 9]",1.0,9.0,0.38308191299438477,2.0476629734039307,0.6568584240947153,9.0,99.0,0.0
R,U,"[3, 9]",1.0,10.0,0.3791821002960205,2.0800671577453613,0.7035482196951619,9.0,100.0,0.0
,,"(6, 6)",,,,,,9.0,,
R,U,"[5, 6]",1.0,1.0,0.4282810688018799,2.282104969024658,0.269319179149124,,101.0,0.0
Y,R,"[5, 7]",1.0,2.0,0.27384305000305176,1.7739980220794678,0.49345571061771476,10.0,102.0,0.0
Y,R,"[5, 8]",1.0,3.0,0.22210216522216797,1.465296983718872,0.2587693159736799,10.0,103.0,0.0
G,D,"[6, 8]",1.0,4.0,0.431394100189209,1.9605059623718262,0.53590866704863,10.0,104.0,0.0
Y,R,"[6, 9]",1.0,5.0,0.22365689277648926,1.5593180656433105,0.32872573040701664,10.0,105.0,0.0
Y,R,"[6, 10]",1.0,6.0,0.2638261318206787,1.7131710052490234,0.45816610389032336,10.0,106.0,0.0
R,U,"[5, 10]",1.0,7.0,0.32403993606567383,1.83837890625,0.5130879256795395,10.0,107.0,0.0
R,U,"[4, 10]",1.0,8.0,0.28722596168518066,1.8267619609832764,0.5231407824718206,10.0,108.0,0.0
B,L,"[4, 9]",1.0,9.0,0.323563814163208,1.7444210052490234,0.41767153948005403,10.0,109.0,0.0
R,U,"[3, 9]",1.0,10.0,0.3915529251098633,1.6535439491271973,0.2546458834638746,10.0,110.0,0.0
,,"(6, 6)",,,,,,10.0,,
R,U,"[5, 6]",1.0,1.0,0.27300310134887695,2.4318361282348633,0.5697519299120324,,111.0,0.0
Y,R,"[5, 7]",1.0,2.0,0.23552894592285156,1.8170900344848633,0.5701685865789134,11.0,112.0,0.0
Y,R,"[5, 8]",1.0,3.0,0.22896409034729004,1.6003401279449463,0.37070479253613847,11.0,113.0,0.0
G,D,"[6, 8]",1.0,4.0,0.4755280017852783,1.9637141227722168,0.4839923646399666,11.0,114.0,0.0
Y,R,"[6, 9]",1.0,5.0,0.23117899894714355,1.5828139781951904,0.35038415279575186,11.0,115.0,0.0
Y,R,"[6, 10]",1.0,6.0,0.3150441646575928,1.8746888637542725,0.541712175423644,11.0,116.0,0.0
R,U,"[5, 10]",1.0,7.0,0.27261805534362793,1.6735858917236328,0.39885335793910426,11.0,117.0,0.0
R,U,"[4, 10]",1.0,8.0,0.2521209716796875,1.561755895614624,0.3106042035297303,11.0,118.0,0.0
B,L,"[4, 9]",1.0,9.0,0.3270869255065918,2.039613962173462,0.7159044004332801,11.0,119.0,0.0
R,U,"[3, 9]",1.0,10.0,0.29718899726867676,1.6018059253692627,0.30192007355709133,11.0,120.0,0.0
,,"(6, 6)",,,,,,11.0,,
R,U,"[5, 6]",1.0,1.0,0.25673604011535645,2.5790810585021973,0.730511000208897,,121.0,0.0
Y,R,"[5, 7]",1.0,2.0,0.18982887268066406,1.500364065170288,0.2979179700308603,12.0,122.0,0.0
Y,R,"[5, 8]",1.0,3.0,0.27155184745788574,1.6484401226043701,0.36291724275867643,12.0,123.0,0.0
G,D,"[6, 8]",1.0,4.0,0.28514695167541504,1.7955400943756104,0.4917963736537782,12.0,124.0,0.0
Y,R,"[6, 9]",1.0,5.0,0.19487690925598145,1.6467580795288086,0.45505869860980375,12.0,125.0,0.0
Y,R,"[6, 10]",1.0,6.0,0.24190902709960938,1.844257116317749,0.5992610783787761,12.0,126.0,0.0
R,U,"[5, 10]",1.0,7.0,0.24325895309448242,1.8624510765075684,0.6117081779974762,12.0,127.0,0.0
R,U,"[4, 10]",1.0,8.0,0.2702300548553467,1.6425611972808838,0.3878135219025313,12.0,128.0,0.0
B,L,"[4, 9]",1.0,9.0,0.3768329620361328,2.021013021469116,0.6417708587222102,12.0,129.0,0.0
R,U,"[3, 9]",1.0,10.0,0.2505049705505371,1.946857213973999,0.7055045215897362,12.0,130.0,0.0
,,"(6, 6)",,,,,,12.0,,
R,U,"[5, 6]",1.0,1.0,0.3783290386199951,2.64530086517334,0.4507723139959858,,131.0,0.0
Y,R,"[5, 7]",1.0,2.0,0.26053690910339355,1.832608938217163,0.5666644020763665,13.0,132.0,0.0
Y,R,"[5, 8]",1.0,3.0,0.2635490894317627,1.6586191654205322,0.39218746553216977,13.0,133.0,0.0
G,D,"[6, 8]",1.0,4.0,0.43178606033325195,1.841001033782959,0.3997390529352392,13.0,134.0,0.0
Y,R,"[6, 9]",1.0,5.0,0.25357890129089355,1.6989221572875977,0.432009874026323,13.0,135.0,0.0
Y,R,"[6, 10]",1.0,6.0,0.29886603355407715,1.5840771198272705,0.26608593186796164,13.0,136.0,0.0
R,U,"[5, 10]",1.0,7.0,0.40131711959838867,2.0889551639556885,0.6713735981720871,13.0,137.0,0.0
R,U,"[4, 10]",1.0,8.0,0.36232686042785645,1.8182830810546875,0.45664418120172856,13.0,138.0,0.0
B,L,"[4, 9]",1.0,9.0,0.3305549621582031,1.6242120265960693,0.2978177896429242,13.0,139.0,0.0
R,U,"[3, 9]",1.0,10.0,0.3591420650482178,2.0067031383514404,0.6373663534250638,13.0,140.0,0.0
,,"(6, 6)",,,,,,13.0,,
R,U,"[5, 6]",1.0,1.0,0.2980668544769287,2.4621801376342773,0.5162215181083148,,141.0,0.0
Y,R,"[5, 7]",1.0,2.0,0.24460816383361816,1.6593079566955566,0.4088916190380898,14.0,142.0,0.0
Y,R,"[5, 8]",1.0,3.0,0.3011140823364258,1.8630461692810059,0.5717857070871597,14.0,143.0,0.0
G,D,"[6, 8]",1.0,4.0,0.3263130187988281,1.956597089767456,0.6285412064770657,14.0,144.0,0.0
Y,R,"[6, 9]",1.0,5.0,0.2184281349182129,1.6562299728393555,0.451484297740401,14.0,145.0,0.0
Y,R,"[6, 10]",1.0,6.0,0.2674851417541504,1.875748872756958,0.5937088704362548,14.0,146.0,0.0
R,U,"[5, 10]",1.0,7.0,0.34082579612731934,1.7941269874572754,0.4547151579403843,14.0,147.0,0.0
R,U,"[4, 10]",1.0,8.0,0.3047671318054199,1.765273094177246,0.4533615022978143,14.0,148.0,0.0
B,L,"[4, 9]",1.0,9.0,0.40143299102783203,1.7763381004333496,0.3794873404264651,14.0,149.0,0.0
R,U,"[3, 9]",1.0,10.0,0.4031848907470703,1.8616321086883545,0.44110227168614946,14.0,150.0,0.0
,,"(6, 6)",,,,,,14.0,,
R,U,"[5, 6]",1.0,1.0,0.26956701278686523,2.887624979019165,0.6951809501933274,,151.0,0.0
Y,R,"[5, 7]",1.0,2.0,0.26200294494628906,1.942492961883545,0.6876113281206544,15.0,152.0,0.0
Y,R,"[5, 8]",1.0,3.0,0.32096409797668457,1.75972318649292,0.44789829388591285,15.0,153.0,0.0
G,D,"[6, 8]",1.0,4.0,0.33136701583862305,1.6716179847717285,0.3361936151426019,15.0,154.0,0.0
Y,R,"[6, 9]",1.0,5.0,0.2998330593109131,2.0532429218292236,0.7390981939587515,15.0,155.0,0.0
Y,R,"[6, 10]",1.0,6.0,0.22773098945617676,1.913295030593872,0.685106533414187,15.0,156.0,0.0
R,U,"[5, 10]",1.0,7.0,0.2830359935760498,1.5608699321746826,0.2633430756271445,15.0,157.0,0.0
R,U,"[4, 10]",1.0,8.0,0.26757287979125977,1.7849490642547607,0.49810966245382804,15.0,158.0,0.0
B,L,"[4, 9]",1.0,9.0,0.2462608814239502,1.798414945602417,0.5465118567310939,15.0,159.0,0.0
R,U,"[3, 9]",1.0,10.0,0.2613179683685303,1.7747390270233154,0.5046583779215058,15.0,160.0,0.0
,,"(6, 6)",,,,,,15.0,,
R,U,"[5, 6]",1.0,1.0,0.20717597007751465,2.7053208351135254,0.393483871390388,,161.0,0.0
Y,R,"[5, 7]",1.0,2.0,0.3388841152191162,1.6067118644714355,0.267042684205809,16.0,162.0,0.0
Y,R,"[5, 8]",1.0,3.0,0.2634708881378174,1.6666722297668457,0.4001368388945967,16.0,163.0,0.0
G,D,"[6, 8]",1.0,4.0,0.34384608268737793,1.7246110439300537,0.3746524764045752,16.0,164.0,0.0
Y,R,"[6, 9]",1.0,5.0,0.2721400260925293,1.6037828922271729,0.32857599923519554,16.0,165.0,0.0
Y,R,"[6, 10]",1.0,6.0,0.34717893600463867,1.7362618446350098,0.3981539222503591,16.0,166.0,0.0
R,U,"[5, 10]",1.0,7.0,0.27842092514038086,1.5867629051208496,0.3015881274180621,16.0,167.0,0.0
R,U,"[4, 10]",1.0,8.0,0.2789449691772461,1.993455171585083,0.7114893502565225,16.0,168.0,0.0
B,L,"[4, 9]",1.0,9.0,0.2705979347229004,1.6731829643249512,0.4013015790453194,16.0,169.0,0.0
R,U,"[3, 9]",1.0,10.0,0.3203160762786865,2.0070929527282715,0.6748949411680252,16.0,170.0,0.0
,,"(6, 6)",,,,,,16.0,,
R,U,"[5, 6]",1.0,1.0,0.3160891532897949,2.0478971004486084,0.25644913196151464,,171.0,0.0
Y,R,"[5, 7]",1.0,2.0,0.2825050354003906,1.6014201641082764,0.3080622676062288,17.0,172.0,0.0
Y,R,"[5, 8]",1.0,3.0,0.2624928951263428,1.7601850032806396,0.5011789882297734,17.0,173.0,0.0
G,D,"[6, 8]",1.0,4.0,0.32016777992248535,1.9566679000854492,0.6410654487931197,17.0,174.0,0.0
Y,R,"[6, 9]",1.0,5.0,0.24817204475402832,1.5267109870910645,0.2846504660116367,17.0,175.0,0.0
Y,R,"[6, 10]",1.0,6.0,0.36012792587280273,2.0240979194641113,0.6583680590491335,17.0,176.0,0.0
R,U,"[5, 10]",1.0,7.0,0.32230687141418457,1.9699389934539795,0.6449988526803241,17.0,177.0,0.0
R,U,"[4, 10]",1.0,8.0,0.24166202545166016,1.642421007156372,0.4042843995813459,17.0,178.0,0.0
B,L,"[4, 9]",1.0,9.0,0.3680729866027832,1.717724084854126,0.3554578136887206,17.0,179.0,0.0
R,U,"[3, 9]",1.0,10.0,0.3301849365234375,1.6609950065612793,0.33310807189253816,17.0,180.0,0.0
,,"(6, 6)",,,,,,17.0,,
R,U,"[5, 6]",1.0,1.0,0.27626991271972656,2.1617419719696045,0.31167633849988263,,181.0,0.0
Y,R,"[5, 7]",1.0,2.0,0.24636507034301758,1.7672910690307617,0.5287306201667249,18.0,182.0,0.0
Y,R,"[5, 8]",1.0,3.0,0.25194597244262695,1.8318960666656494,0.5770488270520766,18.0,183.0,0.0
G,D,"[6, 8]",1.0,4.0,0.29148101806640625,1.8422470092773438,0.5527368715704477,18.0,184.0,0.0
Y,R,"[6, 9]",1.0,5.0,0.25722312927246094,1.5738980770111084,0.31009515578683383,18.0,185.0,0.0
Y,R,"[6, 10]",1.0,6.0,0.2578880786895752,1.7155580520629883,0.45899379426945547,18.0,186.0,0.0
R,U,"[5, 10]",1.0,7.0,0.39626002311706543,2.054313898086548,0.6629512781856262,18.0,187.0,0.0
R,U,"[4, 10]",1.0,8.0,0.25008296966552734,1.797518014907837,0.5273258462270943,18.0,188.0,0.0
B,L,"[4, 9]",1.0,9.0,0.29544687271118164,1.750011920928955,0.46055122507670976,18.0,189.0,0.0
R,U,"[3, 9]",1.0,10.0,0.2754998207092285,1.6971840858459473,0.4246791970676915,18.0,190.0,0.0
,,"(6, 6)",,,,,,18.0,,
R,U,"[5, 6]",1.0,1.0,0.2633039951324463,2.406360149383545,0.3310116714205863,,191.0,0.0
Y,R,"[5, 7]",1.0,2.0,0.23697996139526367,1.933988094329834,0.681439370402952,19.0,192.0,0.0
Y,R,"[5, 8]",1.0,3.0,0.20796513557434082,1.581037998199463,0.36255520839421806,19.0,193.0,0.0
G,D,"[6, 8]",1.0,4.0,0.4444241523742676,2.014500856399536,0.5602069942173303,19.0,194.0,0.0
Y,R,"[6, 9]",1.0,5.0,0.27368998527526855,1.9154448509216309,0.6424956223594529,19.0,195.0,0.0
Y,R,"[6, 10]",1.0,6.0,0.25397515296936035,1.6191790103912354,0.3618553853822469,19.0,196.0,0.0
R,U,"[5, 10]",1.0,7.0,0.3322279453277588,1.5833420753479004,0.26188634882641126,19.0,197.0,0.0
R,U,"[4, 10]",1.0,8.0,0.24701285362243652,1.7913789749145508,0.5527921935924741,19.0,198.0,0.0
B,L,"[4, 9]",1.0,9.0,0.2520771026611328,1.8715510368347168,0.6248506224731817,19.0,199.0,0.0
R,U,"[3, 9]",1.0,10.0,0.3213977813720703,1.7204439640045166,0.3950798539271019,19.0,200.0,0.0
,,"(6, 6)",,,,,,19.0,,
R,U,"[5, 6]",1.0,1.0,0.2447819709777832,2.7153642177581787,0.3270330367888853,,201.0,0.0
Y,R,"[5, 7]",1.0,2.0,0.2745678424835205,1.9542160034179688,0.6975578415737963,20.0,202.0,0.0
Y,R,"[5, 8]",1.0,3.0,0.21552705764770508,1.6838810443878174,0.4653356508990678,20.0,203.0,0.0
G,D,"[6, 8]",1.0,4.0,0.349323034286499,1.7801389694213867,0.41200038469293354,20.0,204.0,0.0
Y,R,"[6, 9]",1.0,5.0,0.2097010612487793,1.8409419059753418,0.6360392897943417,20.0,205.0,0.0
Y,R,"[6, 10]",1.0,6.0,0.34572386741638184,1.72963285446167,0.3827050231245372,20.0,206.0,0.0
R,U,"[5, 10]",1.0,7.0,0.3754758834838867,1.9330520629882812,0.5485712034649941,20.0,207.0,0.0
R,U,"[4, 10]",1.0,8.0,0.2683401107788086,1.7083609104156494,0.42374853226576714,20.0,208.0,0.0
B,L,"[4, 9]",1.0,9.0,0.32554197311401367,1.7342498302459717,0.4246387797174295,20.0,209.0,0.0
R,U,"[3, 9]",1.0,10.0,0.28508496284484863,2.0358529090881348,0.7435044431261861,20.0,210.0,0.0
,,"(6, 6)",,,,,,20.0,,
R,U,"[5, 6]",1.0,1.0,0.24284601211547852,2.1911590099334717,0.5349570290655831,,211.0,0.0
Y,R,"[5, 7]",1.0,2.0,0.15182995796203613,1.787687063217163,0.6224745118827762,21.0,212.0,0.0
Y,R,"[5, 8]",1.0,3.0,0.24256610870361328,1.832139015197754,0.5879946883351913,21.0,213.0,0.0
G,D,"[6, 8]",1.0,4.0,0.28181004524230957,1.7422230243682861,0.4469850976812622,21.0,214.0,0.0
Y,R,"[6, 9]",1.0,5.0,0.25135207176208496,1.6402769088745117,0.37071977094550884,21.0,215.0,0.0
Y,R,"[6, 10]",1.0,6.0,0.2927439212799072,1.805243968963623,0.5091524292947852,21.0,216.0,0.0
R,U,"[5, 10]",1.0,7.0,0.26604413986206055,1.6668710708618164,0.39269103324394106,21.0,217.0,0.0
R,U,"[4, 10]",1.0,8.0,0.30958008766174316,1.7788381576538086,0.4714042579010655,21.0,218.0,0.0
B,L,"[4, 9]",1.0,9.0,0.35149693489074707,2.0370819568634033,0.6751988221432181,21.0,219.0,0.0
R,U,"[3, 9]",1.0,10.0,0.24131202697753906,1.7125298976898193,0.47126798744732024,21.0,220.0,0.0
,,"(6, 6)",,,,,,21.0,,
R,U,"[5, 6]",1.0,1.0,0.22330212593078613,2.611862897872925,0.7494822573548207,,221.0,0.0
Y,R,"[5, 7]",1.0,2.0,0.20971083641052246,1.5224790573120117,0.3056915151778625,22.0,222.0,0.0
Y,R,"[5, 8]",1.0,3.0,0.28019285202026367,1.9459857940673828,0.6680009229392738,22.0,223.0,0.0
G,D,"[6, 8]",1.0,4.0,0.26745104789733887,1.8394479751586914,0.5575329716425319,22.0,224.0,0.0
Y,R,"[6, 9]",1.0,5.0,0.3379650115966797,1.9509069919586182,0.6082271784665758,22.0,225.0,0.0
Y,R,"[6, 10]",1.0,6.0,0.2890360355377197,1.8058350086212158,0.5143873479944818,22.0,226.0,0.0
R,U,"[5, 10]",1.0,7.0,0.2915971279144287,2.011568069458008,0.7088460176346385,22.0,227.0,0.0
R,U,"[4, 10]",1.0,8.0,0.24167990684509277,1.684689998626709,0.44401048069268095,22.0,228.0,0.0
B,L,"[4, 9]",1.0,9.0,0.3834500312805176,1.9533848762512207,0.563814359212564,22.0,229.0,0.0
R,U,"[3, 9]",1.0,10.0,0.2555699348449707,1.9488649368286133,0.6790897585657124,22.0,230.0,0.0
,,"(6, 6)",,,,,,22.0,,
R,U,"[5, 6]",1.0,1.0,0.3078889846801758,2.6029651165008545,0.7156107384619301,,231.0,0.0
Y,R,"[5, 7]",1.0,2.0,0.21173787117004395,1.6910979747772217,0.47353791876937046,23.0,232.0,0.0
Y,R,"[5, 8]",1.0,3.0,0.22365999221801758,1.5548410415649414,0.3283672613210725,23.0,233.0,0.0
G,D,"[6, 8]",1.0,4.0,0.4875009059906006,2.0034759044647217,0.5149192383749146,23.0,234.0,0.0
Y,R,"[6, 9]",1.0,5.0,0.2378551959991455,1.8226978778839111,0.5709742988266541,23.0,235.0,0.0
Y,R,"[6, 10]",1.0,6.0,0.2295210361480713,1.8277199268341064,0.598652199845567,23.0,236.0,0.0
R,U,"[5, 10]",1.0,7.0,0.32810306549072266,1.9772758483886719,0.6425980519686458,23.0,237.0,0.0
R,U,"[4, 10]",1.0,8.0,0.1705629825592041,1.799246072769165,0.6255919410563577,23.0,238.0,0.0
B,L,"[4, 9]",1.0,9.0,0.27553582191467285,1.5408949851989746,0.266419041559652,23.0,239.0,0.0
R,U,"[3, 9]",1.0,10.0,0.5756359100341797,2.246135950088501,0.6620264379494825,23.0,240.0,0.0
,,"(6, 6)",,,,,,23.0,,
R,U,"[5, 6]",1.0,1.0,0.24711298942565918,2.9723830223083496,0.6843639451644975,,241.0,0.0
Y,R,"[5, 7]",1.0,2.0,0.21912097930908203,1.6164817810058594,0.3843734323562359,24.0,242.0,0.0
Y,R,"[5, 8]",1.0,3.0,0.31331300735473633,1.8689069747924805,0.5530797156920941,24.0,243.0,0.0
G,D,"[6, 8]",1.0,4.0,0.5719270706176758,1.8548920154571533,0.29181160489673313,24.0,244.0,0.0
Y,R,"[6, 9]",1.0,5.0,0.3801548480987549,1.8725569248199463,0.4974212090631349,24.0,245.0,0.0
Y,R,"[6, 10]",1.0,6.0,0.26780200004577637,1.8177978992462158,0.5317426331986712,24.0,246.0,0.0
R,U,"[5, 10]",1.0,7.0,0.2689399719238281,1.871912956237793,0.6037016903000985,24.0,247.0,0.0
R,U,"[4, 10]",1.0,8.0,0.27326107025146484,1.6990950107574463,0.4195813421495196,24.0,248.0,0.0
B,L,"[4, 9]",1.0,9.0,0.2854611873626709,1.971900224685669,0.6746613970401285,24.0,249.0,0.0
R,U,"[3, 9]",1.0,10.0,0.38802504539489746,2.1230859756469727,0.7310257366777259,24.0,250.0,0.0
,,"(6, 6)",,,,,,24.0,,
R,U,"[5, 6]",1.0,1.0,0.33944201469421387,2.579848051071167,0.5274185681757312,,251.0,0.0
Y,R,"[5, 7]",1.0,2.0,0.2331559658050537,1.551797866821289,0.31277422089753937,25.0,252.0,0.0
Y,R,"[5, 8]",1.0,3.0,0.4463198184967041,1.842397928237915,0.3884688937916575,25.0,253.0,0.0
G,D,"[6, 8]",1.0,4.0,0.3510620594024658,1.8920011520385742,0.5302206859032939,25.0,254.0,0.0
Y,R,"[6, 9]",1.0,5.0,0.24425196647644043,1.7686529159545898,0.5156662908918968,25.0,255.0,0.0
Y,R,"[6, 10]",1.0,6.0,0.2938199043273926,1.7756710052490234,0.4745435537729786,25.0,256.0,0.0
R,U,"[5, 10]",1.0,7.0,0.377910852432251,1.8039779663085938,0.4286731624517545,25.0,257.0,0.0
R,U,"[4, 10]",1.0,8.0,0.2684290409088135,1.7997689247131348,0.5283592669013795,25.0,258.0,0.0
B,L,"[4, 9]",1.0,9.0,0.3992748260498047,1.7773590087890625,0.3725804675852696,25.0,259.0,0.0
R,U,"[3, 9]",1.0,10.0,0.3229668140411377,1.8009159564971924,0.47349046588985705,25.0,260.0,0.0
,,"(6, 6)",,,,,,25.0,,
R,U,"[5, 6]",1.0,1.0,0.30929088592529297,2.5089781284332275,0.3989398006129693,,261.0,0.0
Y,R,"[5, 7]",1.0,2.0,0.2644968032836914,1.8560521602630615,0.5883141416449283,26.0,262.0,0.0
Y,R,"[5, 8]",1.0,3.0,0.2734339237213135,1.695976972579956,0.4176091732147945,26.0,263.0,0.0
G,D,"[6, 8]",1.0,4.0,0.3564419746398926,1.7135272026062012,0.3479068357346918,26.0,264.0,0.0
Y,R,"[6, 9]",1.0,5.0,0.285736083984375,1.7361741065979004,0.43417402843939007,26.0,265.0,0.0
Y,R,"[6, 10]",1.0,6.0,0.269974946975708,1.7380969524383545,0.45581524295458037,26.0,266.0,0.0
R,U,"[5, 10]",1.0,7.0,0.2552621364593506,1.5929620265960693,0.3318645798275082,26.0,267.0,0.0
R,U,"[4, 10]",1.0,8.0,0.2714860439300537,1.9686388969421387,0.6833161976430645,26.0,268.0,0.0
B,L,"[4, 9]",1.0,9.0,0.33260297775268555,2.0249860286712646,0.6750369575060862,26.0,269.0,0.0
R,U,"[3, 9]",1.0,10.0,0.22920703887939453,1.7478699684143066,0.5229586374749293,26.0,270.0,0.0
,,"(6, 6)",,,,,,26.0,,
R,U,"[5, 6]",1.0,1.0,0.3420999050140381,2.8757059574127197,0.5322703165984267,,271.0,0.0
Y,R,"[5, 7]",1.0,2.0,0.2512671947479248,1.6172208786010742,0.3495832642993872,27.0,272.0,0.0
Y,R,"[5, 8]",1.0,3.0,0.25331878662109375,1.8277819156646729,0.5602394248097008,27.0,273.0,0.0
G,D,"[6, 8]",1.0,4.0,0.32964086532592773,1.7211601734161377,0.3982790962144148,27.0,274.0,0.0
Y,R,"[6, 9]",1.0,5.0,0.2714529037475586,1.6481571197509766,0.3630612551902789,27.0,275.0,0.0
Y,R,"[6, 10]",1.0,6.0,0.24779486656188965,1.6917810440063477,0.43836855613300585,27.0,276.0,0.0
R,U,"[5, 10]",1.0,7.0,0.2273550033569336,1.6675469875335693,0.4390508173068291,27.0,277.0,0.0
R,U,"[4, 10]",1.0,8.0,0.39562392234802246,1.9041728973388672,0.5096699293926734,27.0,278.0,0.0
B,L,"[4, 9]",1.0,9.0,0.3196690082550049,1.9767839908599854,0.6530746590857195,27.0,279.0,0.0
R,U,"[3, 9]",1.0,10.0,0.250471830368042,1.7509679794311523,0.48752766131060954,27.0,280.0,0.0
,,"(6, 6)",,,,,,27.0,,
R,U,"[5, 6]",1.0,1.0,0.26618313789367676,3.481207847595215,0.5685526346062115,,281.0,0.0
Y,R,"[5, 7]",1.0,2.0,0.2682318687438965,1.7470879554748535,0.4657278232113606,28.0,282.0,0.0
Y,R,"[5, 8]",1.0,3.0,0.28223609924316406,1.6733710765838623,0.3892196875162107,28.0,283.0,0.0
G,D,"[6, 8]",1.0,4.0,0.30480313301086426,1.9674649238586426,0.6563545075259798,28.0,284.0,0.0
Y,R,"[6, 9]",1.0,5.0,0.2992990016937256,1.8763399124145508,0.5830104931474851,28.0,285.0,0.0
Y,R,"[6, 10]",1.0,6.0,0.2737889289855957,1.8009650707244873,0.5172533577909262,28.0,286.0,0.0
R,U,"[5, 10]",1.0,7.0,0.26705408096313477,1.6215929985046387,0.3391766715950213,28.0,287.0,0.0
R,U,"[4, 10]",1.0,8.0,0.27121782302856445,1.6749119758605957,0.39726619173576716,28.0,288.0,0.0
B,L,"[4, 9]",1.0,9.0,0.5059959888458252,1.861786127090454,0.3423915217551864,28.0,289.0,0.0
R,U,"[3, 9]",1.0,10.0,0.36208105087280273,1.641266107559204,0.28371136886417503,28.0,290.0,0.0
,,"(6, 6)",,,,,,28.0,,
R,U,"[5, 6]",1.0,1.0,0.21375393867492676,2.750472068786621,0.48412395645314954,,291.0,0.0
Y,R,"[5, 7]",1.0,2.0,0.2253279685974121,1.857865810394287,0.6250884877623273,29.0,292.0,0.0
Y,R,"[5, 8]",1.0,3.0,0.27434706687927246,1.778554916381836,0.5036223429506068,29.0,293.0,0.0
G,D,"[6, 8]",1.0,4.0,0.30068302154541016,1.908883810043335,0.5957031874633808,29.0,294.0,0.0
Y,R,"[6, 9]",1.0,5.0,0.35463500022888184,1.908592939376831,0.5376125532755361,29.0,295.0,0.0
Y,R,"[6, 10]",1.0,6.0,0.2563049793243408,1.622021198272705,0.3599981154268982,29.0,296.0,0.0
R,U,"[5, 10]",1.0,7.0,0.25603199005126953,1.689173936843872,0.4323199281736372,29.0,297.0,0.0
R,U,"[4, 10]",1.0,8.0,0.2411789894104004,1.662463903427124,0.41152090078791215,29.0,298.0,0.0
B,L,"[4, 9]",1.0,9.0,0.46051812171936035,2.02121901512146,0.565703776325132,29.0,299.0,0.0
R,U,"[3, 9]",1.0,10.0,0.27356982231140137,1.5593369007110596,0.27529553010211333,29.0,300.0,0.0
,,"(6, 6)",,,,,,29.0,,
R,U,"[5, 6]",1.0,1.0,0.29413294792175293,2.3113059997558594,0.28683585508528703,,301.0,0.0
Y,R,"[5, 7]",1.0,2.0,0.2861928939819336,1.995077133178711,0.6981565569015965,30.0,302.0,0.0
Y,R,"[5, 8]",1.0,3.0,0.2633168697357178,1.556791067123413,0.2885749898440785,30.0,303.0,0.0
G,D,"[6, 8]",1.0,4.0,0.4031350612640381,2.0816779136657715,0.6697931700599136,30.0,304.0,0.0
Y,R,"[6, 9]",1.0,5.0,0.2255408763885498,1.5893709659576416,0.35968397148078324,30.0,305.0,0.0
Y,R,"[6, 10]",1.0,6.0,0.40511012077331543,1.9463281631469727,0.555574175012491,30.0,306.0,0.0
R,U,"[5, 10]",1.0,7.0,0.3298158645629883,1.7960009574890137,0.4682303849349752,30.0,307.0,0.0
R,U,"[4, 10]",1.0,8.0,0.26276493072509766,1.7048139572143555,0.4397788953320121,30.0,308.0,0.0
B,L,"[4, 9]",1.0,9.0,0.36266112327575684,1.628852128982544,0.26869079656442085,30.0,309.0,0.0
R,U,"[3, 9]",1.0,10.0,0.6838228702545166,2.0423929691314697,0.3610911902982645,30.0,310.0,0.0
,,"(6, 6)",,,,,,30.0,,
R,U,"[5, 6]",1.0,1.0,0.3131999969482422,2.1728107929229736,0.3834378585226108,,311.0,0.0
Y,R,"[5, 7]",1.0,2.0,0.21394896507263184,1.886795997619629,0.6703402904136402,31.0,312.0,0.0
Y,R,"[5, 8]",1.0,3.0,0.24554991722106934,1.576200008392334,0.330227614019059,31.0,313.0,0.0
G,D,"[6, 8]",1.0,4.0,0.33347201347351074,1.8405680656433105,0.48725427306908053,31.0,314.0,0.0
Y,R,"[6, 9]",1.0,5.0,0.2287740707397461,1.5478019714355469,0.31867305225874526,31.0,315.0,0.0
Y,R,"[6, 10]",1.0,6.0,0.4843909740447998,2.0525288581848145,0.5707011326507726,31.0,316.0,0.0
R,U,"[5, 10]",1.0,7.0,0.33461904525756836,1.8832449913024902,0.5376366136787589,31.0,317.0,0.0
R,U,"[4, 10]",1.0,8.0,0.4297358989715576,2.1176819801330566,0.6883691555102083,31.0,318.0,0.0
B,L,"[4, 9]",1.0,9.0,0.41131091117858887,1.74881911277771,0.33770001629445534,31.0,319.0,0.0
R,U,"[3, 9]",1.0,10.0,0.4272458553314209,2.1295480728149414,0.6999237490070807,31.0,320.0,0.0
,,"(6, 6)",,,,,,31.0,,
R,U,"[5, 6]",1.0,1.0,0.31281399726867676,2.747258186340332,0.6971098904890713,,321.0,0.0
Y,R,"[5, 7]",1.0,2.0,0.2573230266571045,1.8389909267425537,0.5695654259138334,32.0,322.0,0.0
Y,R,"[5, 8]",1.0,3.0,0.2823359966278076,1.555384874343872,0.2586179017127825,32.0,323.0,0.0
G,D,"[6, 8]",1.0,4.0,0.418287992477417,1.8629038333892822,0.43791066242925025,32.0,324.0,0.0
Y,R,"[6, 9]",1.0,5.0,0.3051149845123291,1.7906079292297363,0.47844027216784696,32.0,325.0,0.0
Y,R,"[6, 10]",1.0,6.0,0.3142120838165283,2.0221002101898193,0.7170009334037288,32.0,326.0,0.0
R,U,"[5, 10]",1.0,7.0,0.26320600509643555,1.76882004737854,0.502959295852023,32.0,327.0,0.0
R,U,"[4, 10]",1.0,8.0,0.42363905906677246,2.0816650390625,0.651544724094282,32.0,328.0,0.0
B,L,"[4, 9]",1.0,9.0,0.3590199947357178,1.7561681270599365,0.3906829177010095,32.0,329.0,0.0
R,U,"[3, 9]",1.0,10.0,0.40311312675476074,1.7080180644989014,0.2987660856042937,32.0,330.0,0.0
,,"(6, 6)",,,,,,32.0,,
R,U,"[5, 6]",1.0,1.0,0.20660805702209473,2.8330647945404053,0.7313734402572505,,331.0,0.0
Y,R,"[5, 7]",1.0,2.0,0.21525907516479492,1.5805909633636475,0.36218087972287794,33.0,332.0,0.0
Y,R,"[5, 8]",1.0,3.0,0.32892489433288574,1.589383840560913,0.26866592300321257,33.0,333.0,0.0
G,D,"[6, 8]",1.0,4.0,0.34960103034973145,1.7505218982696533,0.38553043184748226,33.0,334.0,0.0
Y,R,"[6, 9]",1.0,5.0,0.32774901390075684,1.6374452114105225,0.3065943583837172,33.0,335.0,0.0
Y,R,"[6, 10]",1.0,6.0,0.40240001678466797,1.8836100101470947,0.47334540267627156,33.0,336.0,0.0
R,U,"[5, 10]",1.0,7.0,0.3311350345611572,1.8945040702819824,0.5676247055317704,33.0,337.0,0.0
R,U,"[4, 10]",1.0,8.0,0.41927194595336914,1.9034199714660645,0.4710927460852958,33.0,338.0,0.0
B,L,"[4, 9]",1.0,9.0,0.3082101345062256,2.0393850803375244,0.726943479687304,33.0,339.0,0.0
R,U,"[3, 9]",1.0,10.0,0.26338696479797363,1.6305811405181885,0.3745327908762136,33.0,340.0,0.0
,,"(6, 6)",,,,,,33.0,,
R,U,"[5, 6]",1.0,1.0,0.27928614616394043,3.3062820434570312,0.3974971220543374,,341.0,0.0
Y,R,"[5, 7]",1.0,2.0,0.2612588405609131,1.6979601383209229,0.4286773113774811,34.0,342.0,0.0
Y,R,"[5, 8]",1.0,3.0,0.2620079517364502,1.5389111042022705,0.28423765152354796,34.0,343.0,0.0
G,D,"[6, 8]",1.0,4.0,0.3650350570678711,1.6555521488189697,0.27326707540956613,34.0,344.0,0.0
Y,R,"[6, 9]",1.0,5.0,0.29311394691467285,1.7150969505310059,0.42149684638484297,34.0,345.0,0.0
Y,R,"[6, 10]",1.0,6.0,0.26213598251342773,1.5305697917938232,0.268673756126158,34.0,346.0,0.0
R,U,"[5, 10]",1.0,7.0,0.2781801223754883,1.6628549098968506,0.381371005251105,34.0,347.0,0.0
R,U,"[4, 10]",1.0,8.0,0.2406930923461914,1.6196529865264893,0.36773769432585124,34.0,348.0,0.0
B,L,"[4, 9]",1.0,9.0,0.31415605545043945,1.7045109272003174,0.38921861852415884,34.0,349.0,0.0
R,U,"[3, 9]",1.0,10.0,0.3010270595550537,1.63773512840271,0.32684718736794666,34.0,350.0,0.0
,,"(6, 6)",,,,,,34.0,,
R,U,"[5, 6]",1.0,1.0,0.27401185035705566,3.167086124420166,0.7269560280677265,,351.0,0.0
Y,R,"[5, 7]",1.0,2.0,0.299152135848999,1.97377610206604,0.6676474733956126,35.0,352.0,0.0
Y,R,"[5, 8]",1.0,3.0,0.29209208488464355,1.7917959690093994,0.49240829575502104,35.0,353.0,0.0
G,D,"[6, 8]",1.0,4.0,0.3505840301513672,1.7315890789031982,0.3743022573297176,35.0,354.0,0.0
Y,R,"[6, 9]",1.0,5.0,0.41025400161743164,1.9176490306854248,0.5086472200701481,35.0,355.0,0.0
Y,R,"[6, 10]",1.0,6.0,0.3016481399536133,1.7214791774749756,0.4134996090403991,35.0,356.0,0.0
R,U,"[5, 10]",1.0,7.0,0.2753560543060303,1.9781081676483154,0.6915861710118272,35.0,357.0,0.0
R,U,"[4, 10]",1.0,8.0,0.22793078422546387,1.6162450313568115,0.3908760752822064,35.0,358.0,0.0
B,L,"[4, 9]",1.0,9.0,0.3518819808959961,2.0065431594848633,0.6471749151714578,35.0,359.0,0.0
R,U,"[3, 9]",1.0,10.0,0.35280895233154297,1.9166779518127441,0.5641150295608086,35.0,360.0,0.0
,,"(6, 6)",,,,,,35.0,,
R,U,"[5, 6]",1.0,1.0,0.24573206901550293,2.53598690032959,0.6499774147345332,,361.0,0.0
Y,R,"[5, 7]",1.0,2.0,0.29195117950439453,1.8246572017669678,0.524694324121922,36.0,362.0,0.0
Y,R,"[5, 8]",1.0,3.0,0.43415117263793945,1.9758539199829102,0.5341490562209082,36.0,363.0,0.0
G,D,"[6, 8]",1.0,4.0,0.36191606521606445,1.9407649040222168,0.574934706884277,36.0,364.0,0.0
Y,R,"[6, 9]",1.0,5.0,0.2748100757598877,1.8345928192138672,0.5594913016759847,36.0,365.0,0.0
Y,R,"[6, 10]",1.0,6.0,0.34836506843566895,1.5906870365142822,0.25073822950879127,36.0,366.0,0.0
R,U,"[5, 10]",1.0,7.0,0.32438015937805176,1.7320430278778076,0.3994834445828409,36.0,367.0,0.0
R,U,"[4, 10]",1.0,8.0,0.23060107231140137,1.6004490852355957,0.36682423493851946,36.0,368.0,0.0
B,L,"[4, 9]",1.0,9.0,0.3382411003112793,1.8551840782165527,0.5054303348052118,36.0,369.0,0.0
R,U,"[3, 9]",1.0,10.0,0.4172248840332031,1.725031852722168,0.31413661604362686,36.0,370.0,0.0
,,"(6, 6)",,,,,,36.0,,
R,U,"[5, 6]",1.0,1.0,0.21582317352294922,2.9764108657836914,0.7402721740615565,,371.0,0.0
Y,R,"[5, 7]",1.0,2.0,0.2535231113433838,1.7233049869537354,0.4639863108475804,37.0,372.0,0.0
Y,R,"[5, 8]",1.0,3.0,0.5000250339508057,2.2456471920013428,0.7262198279886432,37.0,373.0,0.0
G,D,"[6, 8]",1.0,4.0,0.29203295707702637,1.8031370639801025,0.5131160101823581,37.0,374.0,0.0
Y,R,"[6, 9]",1.0,5.0,0.3164238929748535,1.7130889892578125,0.3765964780920109,37.0,375.0,0.0
Y,R,"[6, 10]",1.0,6.0,0.2812800407409668,1.8400640487670898,0.5333468284635026,37.0,376.0,0.0
R,U,"[5, 10]",1.0,7.0,0.27449917793273926,1.5958940982818604,0.31297025968494985,37.0,377.0,0.0
R,U,"[4, 10]",1.0,8.0,0.4463789463043213,2.043980121612549,0.5902899215877548,37.0,378.0,0.0
B,L,"[4, 9]",1.0,9.0,0.3022000789642334,1.571141004562378,0.261917155297236,37.0,379.0,0.0
R,U,"[3, 9]",1.0,10.0,0.5825228691101074,2.0952651500701904,0.5069843997621191,37.0,380.0,0.0
,,"(6, 6)",,,,,,37.0,,
R,U,"[5, 6]",1.0,1.0,0.263308048248291,2.667884111404419,0.4085366230308041,,381.0,0.0
Y,R,"[5, 7]",1.0,2.0,0.26418209075927734,1.9020030498504639,0.6439243004798525,38.0,382.0,0.0
Y,R,"[5, 8]",1.0,3.0,0.37503719329833984,1.6758029460906982,0.30332072310641256,38.0,383.0,0.0
G,D,"[6, 8]",1.0,4.0,0.34792280197143555,1.8124351501464844,0.44922105158896397,38.0,384.0,0.0
Y,R,"[6, 9]",1.0,5.0,0.3172881603240967,1.7241630554199219,0.39024564668726364,38.0,385.0,0.0
Y,R,"[6, 10]",1.0,6.0,0.35558485984802246,1.714770793914795,0.3553206488557766,38.0,386.0,0.0
R,U,"[5, 10]",1.0,7.0,0.28393983840942383,1.6027798652648926,0.3082293379695437,38.0,387.0,0.0
R,U,"[4, 10]",1.0,8.0,0.2962369918823242,1.900378942489624,0.6085487124139572,38.0,388.0,0.0
B,L,"[4, 9]",1.0,9.0,0.3870840072631836,1.9016478061676025,0.5104345743219446,38.0,389.0,0.0
R,U,"[3, 9]",1.0,10.0,0.36812806129455566,2.052947998046875,0.6801451390875313,38.0,390.0,0.0
,,"(6, 6)",,,,,,38.0,,
R,U,"[5, 6]",1.0,1.0,0.3177928924560547,2.6212830543518066,0.6184369093669264,,391.0,0.0
Y,R,"[5, 7]",1.0,2.0,0.20897793769836426,1.918271780014038,0.7032685019085645,39.0,392.0,0.0
Y,R,"[5, 8]",1.0,3.0,0.27524495124816895,1.7935469150543213,0.5141848441498995,39.0,393.0,0.0
G,D,"[6, 8]",1.0,4.0,0.27545785903930664,1.58347487449646,0.29797251590688273,39.0,394.0,0.0
Y,R,"[6, 9]",1.0,5.0,0.47313499450683594,2.0301008224487305,0.5444150009018461,39.0,395.0,0.0
Y,R,"[6, 10]",1.0,6.0,0.346513032913208,1.6652679443359375,0.3267500125845681,39.0,396.0,0.0
R,U,"[5, 10]",1.0,7.0,0.26613402366638184,1.8894879817962646,0.6330473087976907,39.0,397.0,0.0
R,U,"[4, 10]",1.0,8.0,0.2619168758392334,1.9493958950042725,0.682517283793306,39.0,398.0,0.0
B,L,"[4, 9]",1.0,9.0,0.2630782127380371,1.8880259990692139,0.6208299676997713,39.0,399.0,0.0
R,U,"[3, 9]",1.0,10.0,0.3103909492492676,1.743865966796875,0.43153308395266143,39.0,400.0,0.0
,,"(6, 6)",,,,,,39.0,,
R,U,"[5, 6]",1.0,1.0,0.30841517448425293,2.4238789081573486,0.6385839429782062,,401.0,0.0
Y,R,"[5, 7]",1.0,2.0,0.28149986267089844,1.7925009727478027,0.4982415347263118,40.0,402.0,0.0
Y,R,"[5, 8]",1.0,3.0,0.23851799964904785,1.5986759662628174,0.34720023708332914,40.0,403.0,0.0
G,D,"[6, 8]",1.0,4.0,0.3683159351348877,1.8839399814605713,0.49772113358257347,40.0,404.0,0.0
Y,R,"[6, 9]",1.0,5.0,0.2890310287475586,1.7468390464782715,0.4448162877785523,40.0,405.0,0.0
Y,R,"[6, 10]",1.0,6.0,0.4351539611816406,1.8445398807525635,0.4065013720662757,40.0,406.0,0.0
R,U,"[5, 10]",1.0,7.0,0.2878909111022949,1.924818992614746,0.631139655960218,40.0,407.0,0.0
R,U,"[4, 10]",1.0,8.0,0.2766261100769043,1.8897631168365479,0.6044258797184342,40.0,408.0,0.0
B,L,"[4, 9]",1.0,9.0,0.4101369380950928,2.1586899757385254,0.7462816981956331,40.0,409.0,0.0
R,U,"[3, 9]",1.0,10.0,0.34884214401245117,2.0251429080963135,0.6717278707743399,40.0,410.0,0.0
,,"(6, 6)",,,,,,40.0,,
R,U,"[5, 6]",1.0,1.0,0.3644850254058838,2.66341495513916,0.7188215635008243,,411.0,0.0
Y,R,"[5, 7]",1.0,2.0,0.30051279067993164,1.9175829887390137,0.6034034398836754,41.0,412.0,0.0
Y,R,"[5, 8]",1.0,3.0,0.2628657817840576,1.9296197891235352,0.6661590435313626,41.0,413.0,0.0
G,D,"[6, 8]",1.0,4.0,0.37798094749450684,1.9007229804992676,0.5174480744895918,41.0,414.0,0.0
Y,R,"[6, 9]",1.0,5.0,0.2506570816040039,1.8173799514770508,0.5513445603673202,41.0,415.0,0.0
Y,R,"[6, 10]",1.0,6.0,0.27708005905151367,1.686964988708496,0.40546651550324,41.0,416.0,0.0
R,U,"[5, 10]",1.0,7.0,0.296724796295166,1.6422078609466553,0.34797978154733816,41.0,417.0,0.0
R,U,"[4, 10]",1.0,8.0,0.28984713554382324,1.9453399181365967,0.6430468088714272,41.0,418.0,0.0
B,L,"[4, 9]",1.0,9.0,0.3775818347930908,2.106478214263916,0.7330691577496922,41.0,419.0,0.0
R,U,"[3, 9]",1.0,10.0,0.34827184677124023,1.7843880653381348,0.43461661385047806,41.0,420.0,0.0
,,"(6, 6)",,,,,,41.0,,
R,U,"[5, 6]",1.0,1.0,0.31588006019592285,2.504484176635742,0.48911990888101514,,421.0,0.0
Y,R,"[5, 7]",1.0,2.0,0.2478630542755127,1.9025170803070068,0.6415935848026781,42.0,422.0,0.0
Y,R,"[5, 8]",1.0,3.0,0.50388503074646,2.1267831325531006,0.6354034543938469,42.0,423.0,0.0
G,D,"[6, 8]",1.0,4.0,0.44703102111816406,1.7449910640716553,0.2973171481078877,42.0,424.0,0.0
Y,R,"[6, 9]",1.0,5.0,0.528548002243042,1.7981610298156738,0.26227805597160786,42.0,425.0,0.0
Y,R,"[6, 10]",1.0,6.0,0.5295219421386719,2.196885824203491,0.6756065967050005,42.0,426.0,0.0
R,U,"[5, 10]",1.0,7.0,0.361706018447876,1.9215400218963623,0.5639863297264274,42.0,427.0,0.0
R,U,"[4, 10]",1.0,8.0,0.32523608207702637,1.9459400177001953,0.6104371925210741,42.0,428.0,0.0
B,L,"[4, 9]",1.0,9.0,0.36797189712524414,1.6945340633392334,0.32206458915349956,42.0,429.0,0.0
R,U,"[3, 9]",1.0,10.0,0.48291897773742676,2.1033260822296143,0.6083411000016297,42.0,430.0,0.0
,,"(6, 6)",,,,,,42.0,,
R,U,"[5, 6]",1.0,1.0,0.3802788257598877,2.6371212005615234,0.37931834351733595,,431.0,0.0
Y,R,"[5, 7]",1.0,2.0,0.3171980381011963,1.928865909576416,0.5913943988454735,43.0,432.0,0.0
Y,R,"[5, 8]",1.0,3.0,0.32401514053344727,2.059358835220337,0.7341829655993639,43.0,433.0,0.0
G,D,"[6, 8]",1.0,4.0,0.49705004692077637,1.8629579544067383,0.36424993745731166,43.0,434.0,0.0
Y,R,"[6, 9]",1.0,5.0,0.30434393882751465,1.5900840759277344,0.27110055233135166,43.0,435.0,0.0
Y,R,"[6, 10]",1.0,6.0,0.562978982925415,2.250541925430298,0.688385194142269,43.0,436.0,0.0
R,U,"[5, 10]",1.0,7.0,0.3081240653991699,1.7477610111236572,0.43625139630213705,43.0,437.0,0.0
R,U,"[4, 10]",1.0,8.0,0.2861349582672119,2.0229389667510986,0.7427028536338778,43.0,438.0,0.0
B,L,"[4, 9]",1.0,9.0,0.3276379108428955,1.9932031631469727,0.6697124850498789,43.0,439.0,0.0
R,U,"[3, 9]",1.0,10.0,0.3666810989379883,2.089185953140259,0.7085485819903807,43.0,440.0,0.0
,,"(6, 6)",,,,,,43.0,,
R,U,"[5, 6]",1.0,1.0,0.3478720188140869,2.5951077938079834,0.5206968764125648,,441.0,0.0
Y,R,"[5, 7]",1.0,2.0,0.3131978511810303,2.039193868637085,0.7263906152445576,44.0,442.0,0.0
Y,R,"[5, 8]",1.0,3.0,0.22551584243774414,1.613516092300415,0.39074472891524437,44.0,443.0,0.0
G,D,"[6, 8]",1.0,4.0,0.5270121097564697,2.2507119178771973,0.7241560802035749,44.0,444.0,0.0
Y,R,"[6, 9]",1.0,5.0,0.2557260990142822,1.810060977935791,0.5514235743601634,44.0,445.0,0.0
Y,R,"[6, 10]",1.0,6.0,0.41844606399536133,1.9963891506195068,0.5645159088946184,44.0,446.0,0.0
R,U,"[5, 10]",1.0,7.0,0.22526216506958008,1.6465840339660645,0.4114344690961074,44.0,447.0,0.0
R,U,"[4, 10]",1.0,8.0,0.2388758659362793,1.739184856414795,0.5006442298869614,44.0,448.0,0.0
B,L,"[4, 9]",1.0,9.0,0.30108189582824707,1.6780669689178467,0.3790560449799544,44.0,449.0,0.0
R,U,"[3, 9]",1.0,10.0,0.3658268451690674,1.8583459854125977,0.4874150945026616,44.0,450.0,0.0
,,"(6, 6)",,,,,,44.0,,
R,U,"[5, 6]",1.0,1.0,0.37871694564819336,2.391345977783203,0.3955963006915393,,451.0,0.0
Y,R,"[5, 7]",1.0,2.0,0.31062817573547363,1.8926880359649658,0.5883438283884004,45.0,452.0,0.0
Y,R,"[5, 8]",1.0,3.0,0.37864184379577637,1.7438390254974365,0.36580280769602236,45.0,453.0,0.0
G,D,"[6, 8]",1.0,4.0,0.3986470699310303,1.8827009201049805,0.4652446646917651,45.0,454.0,0.0
Y,R,"[6, 9]",1.0,5.0,0.34929800033569336,1.8877201080322266,0.5197830888828365,45.0,455.0,0.0
Y,R,"[6, 10]",1.0,6.0,0.41803693771362305,2.093794822692871,0.6634749616943003,45.0,456.0,0.0
R,U,"[5, 10]",1.0,7.0,0.28209805488586426,1.9188799858093262,0.6158399172366459,45.0,457.0,0.0
R,U,"[4, 10]",1.0,8.0,0.37648701667785645,2.0161561965942383,0.6321823272636268,45.0,458.0,0.0
B,L,"[4, 9]",1.0,9.0,0.30884790420532227,2.0554518699645996,0.737630379063509,45.0,459.0,0.0
R,U,"[3, 9]",1.0,10.0,0.4627518653869629,2.192805051803589,0.7309405233106161,45.0,460.0,0.0
,,"(6, 6)",,,,,,45.0,,
R,U,"[5, 6]",1.0,1.0,0.28180503845214844,2.751983165740967,0.3664826056481262,,461.0,0.0
Y,R,"[5, 7]",1.0,2.0,0.2751200199127197,1.8410720825195312,0.5577414590339518,46.0,462.0,0.0
Y,R,"[5, 8]",1.0,3.0,0.2708749771118164,1.555006980895996,0.279843272892686,46.0,463.0,0.0
G,D,"[6, 8]",1.0,4.0,0.3954789638519287,1.800065040588379,0.3963213301916843,46.0,464.0,0.0
Y,R,"[6, 9]",1.0,5.0,0.3573620319366455,1.825850009918213,0.45550775659752507,46.0,465.0,0.0
Y,R,"[6, 10]",1.0,6.0,0.31876587867736816,1.8117890357971191,0.48409278432583336,46.0,466.0,0.0
R,U,"[5, 10]",1.0,7.0,0.33025312423706055,1.8703999519348145,0.5380312603966702,46.0,467.0,0.0
R,U,"[4, 10]",1.0,8.0,0.24318981170654297,1.812067985534668,0.5669697799531221,46.0,468.0,0.0
B,L,"[4, 9]",1.0,9.0,0.580894947052002,2.009956121444702,0.4269399792719061,46.0,469.0,0.0
R,U,"[3, 9]",1.0,10.0,0.5722370147705078,2.230700969696045,0.6577137244889175,46.0,470.0,0.0
,,"(6, 6)",,,,,,46.0,,
R,U,"[5, 6]",1.0,1.0,0.2972450256347656,2.394402027130127,0.5191727285933183,,471.0,0.0
Y,R,"[5, 7]",1.0,2.0,0.3498079776763916,1.725658893585205,0.36168705201949647,47.0,472.0,0.0
Y,R,"[5, 8]",1.0,3.0,0.3671700954437256,1.761340856552124,0.38979799573041707,47.0,473.0,0.0
G,D,"[6, 8]",1.0,4.0,0.4024529457092285,1.994140863418579,0.5838173334349178,47.0,474.0,0.0
Y,R,"[6, 9]",1.0,5.0,0.3156120777130127,2.0592281818389893,0.7264331308720324,47.0,475.0,0.0
Y,R,"[6, 10]",1.0,6.0,0.3456389904022217,1.6493301391601562,0.3096307195505145,47.0,476.0,0.0
R,U,"[5, 10]",1.0,7.0,0.4610288143157959,1.8364388942718506,0.3794413248413472,47.0,477.0,0.0
R,U,"[4, 10]",1.0,8.0,0.4777100086212158,2.170182943344116,0.6826075536925835,47.0,478.0,0.0
B,L,"[4, 9]",1.0,9.0,0.4344320297241211,1.9053940773010254,0.45509860939812663,47.0,479.0,0.0
R,U,"[3, 9]",1.0,10.0,0.515192985534668,1.8651862144470215,0.3373316978552474,47.0,480.0,0.0
,,"(6, 6)",,,,,,47.0,,
R,U,"[5, 6]",1.0,1.0,0.2748589515686035,2.491511106491089,0.37898642310281955,,481.0,0.0
Y,R,"[5, 7]",1.0,2.0,0.31752896308898926,1.9880099296569824,0.6667457000468346,48.0,482.0,0.0
Y,R,"[5, 8]",1.0,3.0,0.35547518730163574,1.7215158939361572,0.3552977669837034,48.0,483.0,0.0
G,D,"[6, 8]",1.0,4.0,0.45395994186401367,1.7017488479614258,0.25730702006610917,48.0,484.0,0.0
Y,R,"[6, 9]",1.0,5.0,0.4869191646575928,2.163752794265747,0.670799510304802,48.0,485.0,0.0
Y,R,"[6, 10]",1.0,6.0,0.2604219913482666,1.5137510299682617,0.25171873222312774,48.0,486.0,0.0
R,U,"[5, 10]",1.0,7.0,0.3720080852508545,1.7714431285858154,0.3898103986068706,48.0,487.0,0.0
R,U,"[4, 10]",1.0,8.0,0.35750293731689453,2.0345020294189453,0.6741003642476887,48.0,488.0,0.0
B,L,"[4, 9]",1.0,9.0,0.26885390281677246,1.9979829788208008,0.7222753877591238,48.0,489.0,0.0
R,U,"[3, 9]",1.0,10.0,0.3010220527648926,2.0077688694000244,0.6968110375552881,48.0,490.0,0.0
,,"(6, 6)",,,,,,48.0,,
R,U,"[5, 6]",1.0,1.0,0.3372819423675537,2.6339919567108154,0.6809813246115926,,491.0,0.0
Y,R,"[5, 7]",1.0,2.0,0.24620389938354492,1.7594611644744873,0.5076339575579858,49.0,492.0,0.0
Y,R,"[5, 8]",1.0,3.0,0.2923600673675537,1.6402089595794678,0.3480777762739254,49.0,493.0,0.0
G,D,"[6, 8]",1.0,4.0,0.34122300148010254,1.7489218711853027,0.39715924008732156,49.0,494.0,0.0
Y,R,"[6, 9]",1.0,5.0,0.4061429500579834,1.7837128639221191,0.3643639591593297,49.0,495.0,0.0
Y,R,"[6, 10]",1.0,6.0,0.3309190273284912,1.7780628204345703,0.4421594198402643,49.0,496.0,0.0
R,U,"[5, 10]",1.0,7.0,0.2594339847564697,1.5795619487762451,0.32210331600674424,49.0,497.0,0.0
R,U,"[4, 10]",1.0,8.0,0.2872159481048584,1.7656960487365723,0.4709632389121353,49.0,498.0,0.0
B,L,"[4, 9]",1.0,9.0,0.3957998752593994,2.0863029956817627,0.6905359432956095,49.0,499.0,0.0
R,U,"[3, 9]",1.0,10.0,0.39911890029907227,1.9794340133666992,0.5704159501212658,49.0,500.0,0.0
,,"(6, 6)",,,,,,49.0,,
R,U,"[5, 6]",1.0,1.0,0.3262341022491455,3.3035740852355957,0.45735777037811737,,501.0,0.0
Y,R,"[5, 7]",1.0,2.0,0.2682020664215088,1.593958854675293,0.3184479318160034,50.0,502.0,0.0
Y,R,"[5, 8]",1.0,3.0,0.3531150817871094,1.794409990310669,0.42957178468595686,50.0,503.0,0.0
G,D,"[6, 8]",1.0,4.0,0.3221111297607422,1.9093389511108398,0.5721614993829867,50.0,504.0,0.0
Y,R,"[6, 9]",1.0,5.0,0.3412818908691406,1.900486946105957,0.5558739387574516,50.0,505.0,0.0
Y,R,"[6, 10]",1.0,6.0,0.4612619876861572,1.7326929569244385,0.2722309268074304,50.0,506.0,0.0
R,U,"[5, 10]",1.0,7.0,0.48098015785217285,1.7660748958587646,0.2885014103424676,50.0,507.0,0.0
R,U,"[4, 10]",1.0,8.0,0.3242301940917969,1.6065189838409424,0.278469715122444,50.0,508.0,0.0
B,L,"[4, 9]",1.0,9.0,0.4902679920196533,2.0947940349578857,0.6063123754139053,50.0,509.0,0.0
R,U,"[3, 9]",1.0,10.0,0.41478800773620605,1.9541261196136475,0.5108182815405348,50.0,510.0,0.0
,,"(6, 6)",,,,,,50.0,,
R,U,"[5, 6]",1.0,1.0,0.6491408348083496,2.970431089401245,0.6312828776543783,,511.0,0.0
Y,R,"[5, 7]",1.0,2.0,0.2714571952819824,1.82393217086792,0.5387261615803587,51.0,512.0,0.0
Y,R,"[5, 8]",1.0,3.0,0.39305996894836426,1.9679629802703857,0.5733823283731607,51.0,513.0,0.0
G,D,"[6, 8]",1.0,4.0,0.3131430149078369,1.5966699123382568,0.2870889674664733,51.0,514.0,0.0
Y,R,"[6, 9]",1.0,5.0,0.34679412841796875,1.9538230895996094,0.6073587015753497,51.0,515.0,0.0
Y,R,"[6, 10]",1.0,6.0,0.2921130657196045,2.022858142852783,0.7302159883097084,51.0,516.0,0.0
R,U,"[5, 10]",1.0,7.0,0.47789692878723145,2.158506155014038,0.6722704387444327,51.0,517.0,0.0
R,U,"[4, 10]",1.0,8.0,0.35420799255371094,1.6234149932861328,0.26295718074643587,51.0,518.0,0.0
B,L,"[4, 9]",1.0,9.0,0.5617060661315918,1.8323500156402588,0.262167764793828,51.0,519.0,0.0
R,U,"[3, 9]",1.0,10.0,0.4360690116882324,2.022075891494751,0.5838422663452487,51.0,520.0,0.0
,,"(6, 6)",,,,,,51.0,,
R,U,"[5, 6]",1.0,1.0,0.35568904876708984,2.7441189289093018,0.6948144220479457,,521.0,0.0
Y,R,"[5, 7]",1.0,2.0,0.3197648525238037,1.57545804977417,0.2541788496749274,52.0,522.0,0.0
Y,R,"[5, 8]",1.0,3.0,0.5521290302276611,1.886258840560913,0.3236472346039456,52.0,523.0,0.0
G,D,"[6, 8]",1.0,4.0,0.28290414810180664,1.6132338047027588,0.32028791014253727,52.0,524.0,0.0
Y,R,"[6, 9]",1.0,5.0,0.39710497856140137,1.7929160594940186,0.380019003100541,52.0,525.0,0.0
Y,R,"[6, 10]",1.0,6.0,0.3204960823059082,1.8914849758148193,0.5546586840081094,52.0,526.0,0.0
R,U,"[5, 10]",1.0,7.0,0.3513031005859375,1.8812789916992188,0.5194384344465379,52.0,527.0,0.0
R,U,"[4, 10]",1.0,8.0,0.27498698234558105,1.7311339378356934,0.4507063271049508,52.0,528.0,0.0
B,L,"[4, 9]",1.0,9.0,0.42551493644714355,1.7592649459838867,0.32697353210481456,52.0,529.0,0.0
R,U,"[3, 9]",1.0,10.0,0.6770789623260498,2.010512113571167,0.33762585262470246,52.0,530.0,0.0
,,"(6, 6)",,,,,,52.0,,
R,U,"[5, 6]",1.0,1.0,0.32378697395324707,2.237553119659424,0.25860716824444263,,531.0,0.0
Y,R,"[5, 7]",1.0,2.0,0.3507997989654541,2.0731780529022217,0.7148523037937614,53.0,532.0,0.0
Y,R,"[5, 8]",1.0,3.0,0.4780130386352539,2.201369047164917,0.716240257366617,53.0,533.0,0.0
G,D,"[6, 8]",1.0,4.0,0.439608097076416,1.8320319652557373,0.3820497148065042,53.0,534.0,0.0
Y,R,"[6, 9]",1.0,5.0,0.41756510734558105,2.1835951805114746,0.7487616700008857,53.0,535.0,0.0
Y,R,"[6, 10]",1.0,6.0,0.4071180820465088,1.892664909362793,0.475366759238936,53.0,536.0,0.0
R,U,"[5, 10]",1.0,7.0,0.41384196281433105,2.1473450660705566,0.7390577710294839,53.0,537.0,0.0
R,U,"[4, 10]",1.0,8.0,0.26795411109924316,1.9260900020599365,0.6485618538856678,53.0,538.0,0.0
B,L,"[4, 9]",1.0,9.0,0.37204599380493164,2.0406951904296875,0.6560850148481581,53.0,539.0,0.0
R,U,"[3, 9]",1.0,10.0,0.3404099941253662,1.9807910919189453,0.636977100809714,53.0,540.0,0.0
,,"(6, 6)",,,,,,53.0,,
R,U,"[5, 6]",1.0,1.0,0.3785851001739502,2.654184103012085,0.6582058302312543,,541.0,0.0
Y,R,"[5, 7]",1.0,2.0,0.35616302490234375,1.7686450481414795,0.41022142866824873,54.0,542.0,0.0
Y,R,"[5, 8]",1.0,3.0,0.5196280479431152,2.2203710079193115,0.697208130527825,54.0,543.0,0.0
G,D,"[6, 8]",1.0,4.0,0.3504030704498291,1.8024928569793701,0.4335859655213225,54.0,544.0,0.0
Y,R,"[6, 9]",1.0,5.0,0.33638620376586914,1.8851699829101562,0.5352394401287619,54.0,545.0,0.0
Y,R,"[6, 10]",1.0,6.0,0.32625818252563477,1.8038229942321777,0.4725166190392438,54.0,546.0,0.0
R,U,"[5, 10]",1.0,7.0,0.39017796516418457,1.918308973312378,0.524125623783299,54.0,547.0,0.0
R,U,"[4, 10]",1.0,8.0,0.30455708503723145,1.7656128406524658,0.47345290695147296,54.0,548.0,0.0
B,L,"[4, 9]",1.0,9.0,0.39299583435058594,2.097808837890625,0.7044293427772997,54.0,549.0,0.0
R,U,"[3, 9]",1.0,10.0,0.42893505096435547,1.7443578243255615,0.3158838599350174,54.0,550.0,0.0
,,"(6, 6)",,,,,,54.0,,
R,U,"[5, 6]",1.0,1.0,0.2928149700164795,3.068908929824829,0.6181271311187809,,551.0,0.0
Y,R,"[5, 7]",1.0,2.0,0.31144189834594727,1.9825491905212402,0.667330902573662,55.0,552.0,0.0
Y,R,"[5, 8]",1.0,3.0,0.2702188491821289,1.9760820865631104,0.6935880603276261,55.0,553.0,0.0
G,D,"[6, 8]",1.0,4.0,0.32573699951171875,1.8970909118652344,0.5739486358630066,55.0,554.0,0.0
Y,R,"[6, 9]",1.0,5.0,0.3018350601196289,2.0308690071105957,0.7217337191168592,55.0,555.0,0.0
Y,R,"[6, 10]",1.0,6.0,0.45740509033203125,2.0472769737243652,0.585754908163145,55.0,556.0,0.0
R,U,"[5, 10]",1.0,7.0,0.295612096786499,1.7560110092163086,0.4584948285717469,55.0,557.0,0.0
R,U,"[4, 10]",1.0,8.0,0.2826838493347168,1.651602029800415,0.3604768344389968,55.0,558.0,0.0
B,L,"[4, 9]",1.0,9.0,0.44051194190979004,1.7669289112091064,0.32757354135114064,55.0,559.0,0.0
R,U,"[3, 9]",1.0,10.0,0.4679429531097412,1.856154203414917,0.4003839097663101,55.0,560.0,0.0
,,"(6, 6)",,,,,,55.0,,
R,U,"[5, 6]",1.0,1.0,0.36308908462524414,3.087317943572998,0.2712903749607026,,561.0,0.0
Y,R,"[5, 7]",1.0,2.0,0.5011270046234131,1.9437289237976074,0.431591548536357,56.0,562.0,0.0
Y,R,"[5, 8]",1.0,3.0,0.4612429141998291,1.7906601428985596,0.32245715577614653,56.0,563.0,0.0
G,D,"[6, 8]",1.0,4.0,0.36606597900390625,2.0705339908599854,0.6926891628295377,56.0,564.0,0.0
Y,R,"[6, 9]",1.0,5.0,0.29532504081726074,1.7665998935699463,0.47625914944545483,56.0,565.0,0.0
Y,R,"[6, 10]",1.0,6.0,0.3712000846862793,1.8350179195404053,0.46129230136661264,56.0,566.0,0.0
R,U,"[5, 10]",1.0,7.0,0.2926039695739746,1.707590103149414,0.41920983954238217,56.0,567.0,0.0
R,U,"[4, 10]",1.0,8.0,0.24893712997436523,1.7771379947662354,0.4962934492314886,56.0,568.0,0.0
B,L,"[4, 9]",1.0,9.0,0.3977351188659668,1.8472988605499268,0.44370542300040205,56.0,569.0,0.0
R,U,"[3, 9]",1.0,10.0,0.358644962310791,1.9641029834747314,0.607894404508103,56.0,570.0,0.0
,,"(6, 6)",,,,,,56.0,,
R,U,"[5, 6]",1.0,1.0,0.3234579563140869,2.3061411380767822,0.34757044405378124,,571.0,0.0
Y,R,"[5, 7]",1.0,2.0,0.2671501636505127,1.6876170635223389,0.4018688483400729,57.0,572.0,0.0
Y,R,"[5, 8]",1.0,3.0,0.3129401206970215,1.8577170372009277,0.5430567361939593,57.0,573.0,0.0
G,D,"[6, 8]",1.0,4.0,0.40896010398864746,1.7607388496398926,0.3540105208170683,57.0,574.0,0.0
Y,R,"[6, 9]",1.0,5.0,0.33022403717041016,1.7073969841003418,0.3780851439894989,57.0,575.0,0.0
Y,R,"[6, 10]",1.0,6.0,0.34146809577941895,1.7314670085906982,0.3930277232019984,57.0,576.0,0.0
R,U,"[5, 10]",1.0,7.0,0.3813660144805908,2.0660321712493896,0.6921651673041862,57.0,577.0,0.0
R,U,"[4, 10]",1.0,8.0,0.25055909156799316,1.519090175628662,0.26170902972471377,57.0,578.0,0.0
B,L,"[4, 9]",1.0,9.0,0.4978790283203125,2.128239154815674,0.6230372107849178,57.0,579.0,0.0
R,U,"[3, 9]",1.0,10.0,0.30853986740112305,2.0305800437927246,0.7203122877038146,57.0,580.0,0.0
,,"(6, 6)",,,,,,57.0,,
R,U,"[5, 6]",1.0,1.0,0.45534396171569824,2.860300064086914,0.5306697090018431,,581.0,0.0
Y,R,"[5, 7]",1.0,2.0,0.37583184242248535,1.6633119583129883,0.2776594929115519,58.0,582.0,0.0
Y,R,"[5, 8]",1.0,3.0,0.48789501190185547,2.11618709564209,0.6270610903104529,58.0,583.0,0.0
G,D,"[6, 8]",1.0,4.0,0.3573009967803955,1.683696985244751,0.32779990850468843,58.0,584.0,0.0
Y,R,"[6, 9]",1.0,5.0,0.326854944229126,1.7344939708709717,0.4121363265485722,58.0,585.0,0.0
Y,R,"[6, 10]",1.0,6.0,0.2757129669189453,1.9598851203918457,0.6884983273519509,58.0,586.0,0.0
R,U,"[5, 10]",1.0,7.0,0.375108003616333,1.6418519020080566,0.26423618046120223,58.0,587.0,0.0
R,U,"[4, 10]",1.0,8.0,0.3262910842895508,2.0197339057922363,0.6836509094353367,58.0,588.0,0.0
B,L,"[4, 9]",1.0,9.0,0.3715519905090332,1.7193138599395752,0.33671928430448494,58.0,589.0,0.0
R,U,"[3, 9]",1.0,10.0,0.42102789878845215,2.0711729526519775,0.6408697041545186,58.0,590.0,0.0
,,"(6, 6)",,,,,,58.0,,
R,U,"[5, 6]",1.0,1.0,0.3469359874725342,2.5240979194641113,0.44885448702687036,,591.0,0.0
Y,R,"[5, 7]",1.0,2.0,0.2952110767364502,1.9984920024871826,0.6969616903595708,59.0,592.0,0.0
Y,R,"[5, 8]",1.0,3.0,0.37209510803222656,1.8348948955535889,0.44896535375261637,59.0,593.0,0.0
G,D,"[6, 8]",1.0,4.0,0.36907100677490234,1.8897929191589355,0.5055304175492886,59.0,594.0,0.0
Y,R,"[6, 9]",1.0,5.0,0.2989389896392822,1.5961651802062988,0.28524809453822775,59.0,595.0,0.0
Y,R,"[6, 10]",1.0,6.0,0.5067129135131836,1.77485990524292,0.2601570220139004,59.0,596.0,0.0
R,U,"[5, 10]",1.0,7.0,0.4309980869293213,1.9436500072479248,0.5204912476789898,59.0,597.0,0.0
R,U,"[4, 10]",1.0,8.0,0.2739531993865967,1.6709342002868652,0.4081063288135781,59.0,598.0,0.0
B,L,"[4, 9]",1.0,9.0,0.4226861000061035,2.084041118621826,0.6591635276399892,59.0,599.0,0.0
R,U,"[3, 9]",1.0,10.0,0.4241640567779541,1.7990901470184326,0.3749776100945589,59.0,600.0,0.0
,,"(6, 6)",,,,,,59.0,,
R,U,"[5, 6]",1.0,1.0,0.3293938636779785,2.108525037765503,0.26688027304108697,,601.0,0.0
Y,R,"[5, 7]",1.0,2.0,0.37488389015197754,2.1271421909332275,0.7435846251844938,60.0,602.0,0.0
Y,R,"[5, 8]",1.0,3.0,0.23309087753295898,1.4947929382324219,0.2556112020972846,60.0,603.0,0.0
G,D,"[6, 8]",1.0,4.0,0.42498087882995605,1.7980849742889404,0.3702986550972803,60.0,604.0,0.0
Y,R,"[6, 9]",1.0,5.0,0.30895113945007324,1.9102880954742432,0.5971407810793423,60.0,605.0,0.0
Y,R,"[6, 10]",1.0,6.0,0.3316318988800049,1.6938831806182861,0.3579450635256658,60.0,606.0,0.0
R,U,"[5, 10]",1.0,7.0,0.2853128910064697,1.8206970691680908,0.545255549325504,60.0,607.0,0.0
R,U,"[4, 10]",1.0,8.0,0.30373287200927734,1.9841949939727783,0.6794474501808999,60.0,608.0,0.0
B,L,"[4, 9]",1.0,9.0,0.25974512100219727,1.7851510047912598,0.514844958513269,60.0,609.0,0.0
R,U,"[3, 9]",1.0,10.0,0.34277796745300293,1.9156301021575928,0.5639084818091822,60.0,610.0,0.0
,,"(6, 6)",,,,,,60.0,,
R,U,"[5, 6]",1.0,1.0,0.2871270179748535,2.686306953430176,0.5837974758315965,,611.0,0.0
Y,R,"[5, 7]",1.0,2.0,0.2706611156463623,1.7361059188842773,0.4533276254712831,61.0,612.0,0.0
Y,R,"[5, 8]",1.0,3.0,0.42148709297180176,1.876946210861206,0.44704467192669783,61.0,613.0,0.0
G,D,"[6, 8]",1.0,4.0,0.32126498222351074,1.6930749416351318,0.3570480306088583,61.0,614.0,0.0
Y,R,"[6, 9]",1.0,5.0,0.32985687255859375,1.8006489276885986,0.4744295673813916,61.0,615.0,0.0
Y,R,"[6, 10]",1.0,6.0,0.26195406913757324,1.6673638820648193,0.4082697016490036,61.0,616.0,0.0
R,U,"[5, 10]",1.0,7.0,0.27945780754089355,1.8640880584716797,0.589102608591227,61.0,617.0,0.0
R,U,"[4, 10]",1.0,8.0,0.2736990451812744,1.5841357707977295,0.30695130074188937,61.0,618.0,0.0
B,L,"[4, 9]",1.0,9.0,0.38464903831481934,1.9249389171600342,0.5315303788412888,61.0,619.0,0.0
R,U,"[3, 9]",1.0,10.0,0.2651839256286621,1.9183118343353271,0.6331465967962151,61.0,620.0,0.0
,,"(6, 6)",,,,,,61.0,,
R,U,"[5, 6]",1.0,1.0,0.43534088134765625,3.018738031387329,0.7185682566442664,,621.0,0.0
Y,R,"[5, 7]",1.0,2.0,0.28896498680114746,2.0270581245422363,0.7458270258689124,62.0,622.0,0.0
Y,R,"[5, 8]",1.0,3.0,0.33576202392578125,2.1002728939056396,0.7461164201474548,62.0,623.0,0.0
G,D,"[6, 8]",1.0,4.0,0.33078694343566895,1.7275779247283936,0.3906634640351525,62.0,624.0,0.0
Y,R,"[6, 9]",1.0,5.0,0.31818199157714844,2.0312910079956055,0.7052833629018376,62.0,625.0,0.0
Y,R,"[6, 10]",1.0,6.0,0.2729220390319824,1.7496440410614014,0.4718367868101566,62.0,626.0,0.0
R,U,"[5, 10]",1.0,7.0,0.3530240058898926,1.8877050876617432,0.5262092369816473,62.0,627.0,0.0
R,U,"[4, 10]",1.0,8.0,0.30968403816223145,1.795447826385498,0.4885754134591939,62.0,628.0,0.0
B,L,"[4, 9]",1.0,9.0,0.5838940143585205,2.2046639919281006,0.6096402098816015,62.0,629.0,0.0
R,U,"[3, 9]",1.0,10.0,0.3587760925292969,1.9372119903564453,0.5802728821842065,62.0,630.0,0.0
,,"(6, 6)",,,,,,62.0,,
R,U,"[5, 6]",1.0,1.0,0.3173940181732178,2.486521005630493,0.6335137561161793,,631.0,0.0
Y,R,"[5, 7]",1.0,2.0,0.22162914276123047,1.5971260070800781,0.36449880254265776,63.0,632.0,0.0
Y,R,"[5, 8]",1.0,3.0,0.386962890625,1.7408881187438965,0.355479495022942,63.0,633.0,0.0
G,D,"[6, 8]",1.0,4.0,0.3636770248413086,1.868422031402588,0.4904960022665367,63.0,634.0,0.0
Y,R,"[6, 9]",1.0,5.0,0.35233211517333984,1.9273109436035156,0.5678099387472492,63.0,635.0,0.0
Y,R,"[6, 10]",1.0,6.0,0.43167805671691895,1.9567530155181885,0.5245178625115207,63.0,636.0,0.0
R,U,"[5, 10]",1.0,7.0,0.29177284240722656,1.962446928024292,0.6704303289252844,63.0,637.0,0.0
R,U,"[4, 10]",1.0,8.0,0.2598409652709961,1.9675180912017822,0.7045142056074156,63.0,638.0,0.0
B,L,"[4, 9]",1.0,9.0,0.3574790954589844,1.7837460041046143,0.421944631516987,63.0,639.0,0.0
R,U,"[3, 9]",1.0,10.0,0.3500359058380127,1.740185022354126,0.3787575811341757,63.0,640.0,0.0
,,"(6, 6)",,,,,,63.0,,
R,U,"[5, 6]",1.0,1.0,0.31783080101013184,4.107784032821655,0.47007705685273865,,641.0,0.0
Y,R,"[5, 7]",1.0,2.0,0.29206299781799316,1.810295820236206,0.5136818578775919,64.0,642.0,0.0
Y,R,"[5, 8]",1.0,3.0,0.407912015914917,1.7349209785461426,0.315535595498152,64.0,643.0,0.0
G,D,"[6, 8]",1.0,4.0,0.35747790336608887,1.9922518730163574,0.6240956447254952,64.0,644.0,0.0
Y,R,"[6, 9]",1.0,5.0,0.2943258285522461,2.0335381031036377,0.7409436007635324,64.0,645.0,0.0
Y,R,"[6, 10]",1.0,6.0,0.26395106315612793,1.8536591529846191,0.595121051080803,64.0,646.0,0.0
R,U,"[5, 10]",1.0,7.0,0.291309118270874,2.002908945083618,0.7145730269663695,64.0,647.0,0.0
R,U,"[4, 10]",1.0,8.0,0.2653629779815674,1.6283869743347168,0.3600606948627769,64.0,648.0,0.0
B,L,"[4, 9]",1.0,9.0,0.3746330738067627,1.9408071041107178,0.5674068435586952,64.0,649.0,0.0
R,U,"[3, 9]",1.0,10.0,0.3547861576080322,1.7374141216278076,0.37147699099858644,64.0,650.0,0.0
,,"(6, 6)",,,,,,64.0,,
R,U,"[5, 6]",1.0,1.0,0.33232688903808594,2.575364112854004,0.5301611490202851,,651.0,0.0
Y,R,"[5, 7]",1.0,2.0,0.3063950538635254,1.785693883895874,0.4660179327141702,65.0,652.0,0.0
Y,R,"[5, 8]",1.0,3.0,0.4510619640350342,1.724600076675415,0.2574282565460492,65.0,653.0,0.0
G,D,"[6, 8]",1.0,4.0,0.4565248489379883,1.9013900756835938,0.44210154673945606,65.0,654.0,0.0
Y,R,"[6, 9]",1.0,5.0,0.38849592208862305,2.115489959716797,0.7241455502800247,65.0,655.0,0.0
Y,R,"[6, 10]",1.0,6.0,0.24729585647583008,1.849435806274414,0.6069999544943898,65.0,656.0,0.0
R,U,"[5, 10]",1.0,7.0,0.301008939743042,1.6376819610595703,0.3284355364564511,65.0,657.0,0.0
R,U,"[4, 10]",1.0,8.0,0.3597099781036377,1.8171899318695068,0.46212900777043203,65.0,658.0,0.0
B,L,"[4, 9]",1.0,9.0,0.4270598888397217,1.9365441799163818,0.5154609511167523,65.0,659.0,0.0
R,U,"[3, 9]",1.0,10.0,0.5220658779144287,1.99418306350708,0.4597837460433441,65.0,660.0,0.0
,,"(6, 6)",,,,,,65.0,,
R,U,"[5, 6]",1.0,1.0,0.32476282119750977,2.0940070152282715,0.27069823907567797,,661.0,0.0
Y,R,"[5, 7]",1.0,2.0,0.34627699851989746,2.0853970050811768,0.738931131260271,66.0,662.0,0.0
Y,R,"[5, 8]",1.0,3.0,0.2997610569000244,1.835824966430664,0.5250667927298086,66.0,663.0,0.0
G,D,"[6, 8]",1.0,4.0,0.35736513137817383,1.8592109680175781,0.5012228575211548,66.0,664.0,0.0
Y,R,"[6, 9]",1.0,5.0,0.2627689838409424,1.5917949676513672,0.3262871299429057,66.0,665.0,0.0
Y,R,"[6, 10]",1.0,6.0,0.3624269962310791,1.8322689533233643,0.47517351000084684,66.0,666.0,0.0
R,U,"[5, 10]",1.0,7.0,0.2933619022369385,1.6337449550628662,0.3425636327207452,66.0,667.0,0.0
R,U,"[4, 10]",1.0,8.0,0.41382789611816406,2.026547908782959,0.618945457890652,66.0,668.0,0.0
B,L,"[4, 9]",1.0,9.0,0.44278502464294434,1.7695257663726807,0.32224925981014496,66.0,669.0,0.0
R,U,"[3, 9]",1.0,10.0,0.6189699172973633,2.0354950428009033,0.4076229096445709,66.0,670.0,0.0
,,"(6, 6)",,,,,,66.0,,
R,U,"[5, 6]",1.0,1.0,0.26897692680358887,2.4240341186523438,0.5983632712603235,,671.0,0.0
Y,R,"[5, 7]",1.0,2.0,0.3205139636993408,1.663309097290039,0.3286036483749642,67.0,672.0,0.0
Y,R,"[5, 8]",1.0,3.0,0.44057416915893555,1.8935480117797852,0.45540508846659106,67.0,673.0,0.0
G,D,"[6, 8]",1.0,4.0,0.32561278343200684,1.863652229309082,0.5357021045551698,67.0,674.0,0.0
Y,R,"[6, 9]",1.0,5.0,0.3820059299468994,1.9625461101531982,0.5650984180199627,67.0,675.0,0.0
Y,R,"[6, 10]",1.0,6.0,0.43883705139160156,2.0038909912109375,0.5689575529518349,67.0,676.0,0.0
R,U,"[5, 10]",1.0,7.0,0.2768118381500244,1.8055801391601562,0.5246112626790937,67.0,677.0,0.0
R,U,"[4, 10]",1.0,8.0,0.27574992179870605,2.005953073501587,0.730499240402871,67.0,678.0,0.0
B,L,"[4, 9]",1.0,9.0,0.33392786979675293,1.9472081661224365,0.5944045782069682,67.0,679.0,0.0
R,U,"[3, 9]",1.0,10.0,0.4028010368347168,1.666240930557251,0.2609937739200685,67.0,680.0,0.0
,,"(6, 6)",,,,,,67.0,,
R,U,"[5, 6]",1.0,1.0,0.2672131061553955,2.397282838821411,0.27502573111241185,,681.0,0.0
Y,R,"[5, 7]",1.0,2.0,0.2910459041595459,1.6604788303375244,0.3688856059837456,68.0,682.0,0.0
Y,R,"[5, 8]",1.0,3.0,0.31656479835510254,1.9465510845184326,0.61519287134961,68.0,683.0,0.0
G,D,"[6, 8]",1.0,4.0,0.26960086822509766,2.0305020809173584,0.7457903705489519,68.0,684.0,0.0
Y,R,"[6, 9]",1.0,5.0,0.3133690357208252,1.7949960231781006,0.47422564425130526,68.0,685.0,0.0
Y,R,"[6, 10]",1.0,6.0,0.5050160884857178,1.8234281539916992,0.33129254297170724,68.0,686.0,0.0
R,U,"[5, 10]",1.0,7.0,0.4257481098175049,1.927173137664795,0.49159208837375246,68.0,687.0,0.0
R,U,"[4, 10]",1.0,8.0,0.34203505516052246,1.893651008605957,0.551887316494275,68.0,688.0,0.0
B,L,"[4, 9]",1.0,9.0,0.42905688285827637,2.0980491638183594,0.6665841997138935,68.0,689.0,0.0
R,U,"[3, 9]",1.0,10.0,0.3541860580444336,1.8911488056182861,0.5247145089751528,68.0,690.0,0.0
,,"(6, 6)",,,,,,68.0,,
R,U,"[5, 6]",1.0,1.0,0.2185671329498291,2.924057960510254,0.6652961447091137,,691.0,0.0
Y,R,"[5, 7]",1.0,2.0,0.28698205947875977,1.7058401107788086,0.40474274422099815,69.0,692.0,0.0
Y,R,"[5, 8]",1.0,3.0,0.3688991069793701,1.845933198928833,0.4674470273677118,69.0,693.0,0.0
G,D,"[6, 8]",1.0,4.0,0.32285308837890625,1.6533699035644531,0.32097803721465,69.0,694.0,0.0
Y,R,"[6, 9]",1.0,5.0,0.3494250774383545,1.9178400039672852,0.5552441402301433,69.0,695.0,0.0
Y,R,"[6, 10]",1.0,6.0,0.3333740234375,1.7289879322052002,0.3845175998147316,69.0,696.0,0.0
R,U,"[5, 10]",1.0,7.0,0.4800281524658203,1.7685389518737793,0.28649466359539844,69.0,697.0,0.0
R,U,"[4, 10]",1.0,8.0,0.41248297691345215,2.0803678035736084,0.6665438866428852,69.0,698.0,0.0
B,L,"[4, 9]",1.0,9.0,0.43016910552978516,1.9790160655975342,0.545801700247316,69.0,699.0,0.0
R,U,"[3, 9]",1.0,10.0,0.3111240863800049,2.0302939414978027,0.709391811917824,69.0,700.0,0.0
,,"(6, 6)",,,,,,69.0,,
R,U,"[5, 6]",1.0,1.0,0.3611948490142822,2.4648678302764893,0.4747260251039861,,701.0,0.0
Y,R,"[5, 7]",1.0,2.0,0.2627909183502197,1.958061933517456,0.6991721929456245,70.0,702.0,0.0
Y,R,"[5, 8]",1.0,3.0,0.2531449794769287,1.8105299472808838,0.5432585078210656,70.0,703.0,0.0
G,D,"[6, 8]",1.0,4.0,0.29642581939697266,1.8935518264770508,0.6034808642160288,70.0,704.0,0.0
Y,R,"[6, 9]",1.0,5.0,0.30627012252807617,1.8319709300994873,0.5187973103547283,70.0,705.0,0.0
Y,R,"[6, 10]",1.0,6.0,0.32505106925964355,1.6675670146942139,0.3367223392310495,70.0,706.0,0.0
R,U,"[5, 10]",1.0,7.0,0.27238893508911133,1.9088799953460693,0.6286417313048112,70.0,707.0,0.0
R,U,"[4, 10]",1.0,8.0,0.24371099472045898,1.6258108615875244,0.38811799292112426,70.0,708.0,0.0
B,L,"[4, 9]",1.0,9.0,0.36992716789245605,1.7088189125061035,0.3304445714938458,70.0,709.0,0.0
R,U,"[3, 9]",1.0,10.0,0.3235640525817871,1.831761121749878,0.4953991615978998,70.0,710.0,0.0
,,"(6, 6)",,,,,,70.0,,
R,U,"[5, 6]",1.0,1.0,0.3334681987762451,2.5999491214752197,0.7283330414507752,,711.0,0.0
Y,R,"[5, 7]",1.0,2.0,0.2850940227508545,1.5777060985565186,0.29005907261273434,71.0,712.0,0.0
Y,R,"[5, 8]",1.0,3.0,0.51395583152771,2.1449341773986816,0.6346155900685049,71.0,713.0,0.0
G,D,"[6, 8]",1.0,4.0,0.34082508087158203,1.655992031097412,0.3076642186526113,71.0,714.0,0.0
Y,R,"[6, 9]",1.0,5.0,0.4202861785888672,1.8387300968170166,0.4131105065805088,71.0,715.0,0.0
Y,R,"[6, 10]",1.0,6.0,0.35694098472595215,1.7483620643615723,0.3782843758872692,71.0,716.0,0.0
R,U,"[5, 10]",1.0,7.0,0.3206188678741455,1.8305671215057373,0.5087190900138383,71.0,717.0,0.0
R,U,"[4, 10]",1.0,8.0,0.3294370174407959,2.046290159225464,0.7213364573153773,71.0,718.0,0.0
B,L,"[4, 9]",1.0,9.0,0.33345508575439453,1.8798420429229736,0.5348602033146683,71.0,719.0,0.0
R,U,"[3, 9]",1.0,10.0,0.3262050151824951,1.6503219604492188,0.3186527264001255,71.0,720.0,0.0
,,"(6, 6)",,,,,,71.0,,
R,U,"[5, 6]",1.0,1.0,0.29494309425354004,2.000993013381958,0.25343279174923233,,721.0,0.0
Y,R,"[5, 7]",1.0,2.0,0.3793671131134033,2.0735321044921875,0.6935176280253983,72.0,722.0,0.0
Y,R,"[5, 8]",1.0,3.0,0.37084102630615234,2.0372331142425537,0.6638090568364918,72.0,723.0,0.0
G,D,"[6, 8]",1.0,4.0,0.3267090320587158,1.7118990421295166,0.37579827934340854,72.0,724.0,0.0
Y,R,"[6, 9]",1.0,5.0,0.5088140964508057,1.7879748344421387,0.28053480694200733,72.0,725.0,0.0
Y,R,"[6, 10]",1.0,6.0,0.47489213943481445,1.893233060836792,0.4070324441988613,72.0,726.0,0.0
R,U,"[5, 10]",1.0,7.0,0.2785789966583252,1.5378401279449463,0.2618054279048596,72.0,727.0,0.0
R,U,"[4, 10]",1.0,8.0,0.35129404067993164,1.837536096572876,0.4824614752214543,72.0,728.0,0.0
B,L,"[4, 9]",1.0,9.0,0.30936098098754883,1.9580340385437012,0.6403678381734621,72.0,729.0,0.0
R,U,"[3, 9]",1.0,10.0,0.3426220417022705,2.0686891078948975,0.726100106659965,72.0,730.0,0.0
,,"(6, 6)",,,,,,72.0,,
R,U,"[5, 6]",1.0,1.0,0.3646199703216553,4.2632410526275635,0.35613360081568995,,731.0,0.0
Y,R,"[5, 7]",1.0,2.0,0.3273780345916748,1.9778409004211426,0.6503610103608444,73.0,732.0,0.0
Y,R,"[5, 8]",1.0,3.0,0.31510090827941895,1.8450641632080078,0.512411302591574,73.0,733.0,0.0
G,D,"[6, 8]",1.0,4.0,0.3468770980834961,1.7761571407318115,0.40540591064084025,73.0,734.0,0.0
Y,R,"[6, 9]",1.0,5.0,0.43850016593933105,2.189404010772705,0.7444132991911843,73.0,735.0,0.0
Y,R,"[6, 10]",1.0,6.0,0.45119309425354004,1.7120051383972168,0.2569687872866509,73.0,736.0,0.0
R,U,"[5, 10]",1.0,7.0,0.456834077835083,2.1473610401153564,0.6873725046216936,73.0,737.0,0.0
R,U,"[4, 10]",1.0,8.0,0.4563159942626953,1.995575189590454,0.533051511613075,73.0,738.0,0.0
B,L,"[4, 9]",1.0,9.0,0.36475086212158203,1.7030608654022217,0.33649536967019383,73.0,739.0,0.0
R,U,"[3, 9]",1.0,10.0,0.5178999900817871,2.076795816421509,0.5462949799944614,73.0,740.0,0.0
,,"(6, 6)",,,,,,73.0,,
R,U,"[5, 6]",1.0,1.0,0.24405694007873535,2.4284250736236572,0.4915610836060332,,741.0,0.0
Y,R,"[5, 7]",1.0,2.0,0.35115790367126465,1.71927809715271,0.36101957310129046,74.0,742.0,0.0
Y,R,"[5, 8]",1.0,3.0,0.6295280456542969,2.00838303565979,0.38611206308639673,74.0,743.0,0.0
G,D,"[6, 8]",1.0,4.0,0.4909698963165283,1.8372058868408203,0.34011109635668413,74.0,744.0,0.0
Y,R,"[6, 9]",1.0,5.0,0.345473051071167,2.040335178375244,0.6968137855309708,74.0,745.0,0.0
Y,R,"[6, 10]",1.0,6.0,0.26653003692626953,1.9427320957183838,0.6561411288855753,74.0,746.0,0.0
R,U,"[5, 10]",1.0,7.0,0.32929205894470215,1.6234281063079834,0.2967171340106756,74.0,747.0,0.0
R,U,"[4, 10]",1.0,8.0,0.3639860153198242,1.8853979110717773,0.5153843706519272,74.0,748.0,0.0
B,L,"[4, 9]",1.0,9.0,0.29384708404541016,1.8814549446105957,0.5800826410459224,74.0,749.0,0.0
R,U,"[3, 9]",1.0,10.0,0.2834620475769043,1.622363805770874,0.31941405803437295,74.0,750.0,0.0
,,"(6, 6)",,,,,,74.0,,
R,U,"[5, 6]",1.0,1.0,0.518394947052002,2.584007978439331,0.43683698280456057,,751.0,0.0
Y,R,"[5, 7]",1.0,2.0,0.2876780033111572,1.6481800079345703,0.3519521278574405,75.0,752.0,0.0
Y,R,"[5, 8]",1.0,3.0,0.5036070346832275,2.1464970111846924,0.6314812155737283,75.0,753.0,0.0
G,D,"[6, 8]",1.0,4.0,0.31488704681396484,1.9165709018707275,0.5811553297393383,75.0,754.0,0.0
Y,R,"[6, 9]",1.0,5.0,0.4423351287841797,1.7255380153656006,0.2739968981773854,75.0,755.0,0.0
Y,R,"[6, 10]",1.0,6.0,0.46555519104003906,2.100109100341797,0.6236843743933941,75.0,756.0,0.0
R,U,"[5, 10]",1.0,7.0,0.274791955947876,1.5298130512237549,0.25399499864799213,75.0,757.0,0.0
R,U,"[4, 10]",1.0,8.0,0.3398561477661133,1.920691967010498,0.5745585857764747,75.0,758.0,0.0
B,L,"[4, 9]",1.0,9.0,0.3406069278717041,2.0493698120117188,0.707115299704681,75.0,759.0,0.0
R,U,"[3, 9]",1.0,10.0,0.45885205268859863,2.1002659797668457,0.6407841513296986,75.0,760.0,0.0
,,"(6, 6)",,,,,,75.0,,
R,U,"[5, 6]",1.0,1.0,0.31490588188171387,2.726595878601074,0.5010595470362791,,761.0,0.0
Y,R,"[5, 7]",1.0,2.0,0.3026878833770752,1.596527099609375,0.2811939892026493,76.0,762.0,0.0
Y,R,"[5, 8]",1.0,3.0,0.37065696716308594,2.066153049468994,0.6801422649299393,76.0,763.0,0.0
G,D,"[6, 8]",1.0,4.0,0.33252906799316406,2.0046920776367188,0.6681030894007158,76.0,764.0,0.0
Y,R,"[6, 9]",1.0,5.0,0.3322749137878418,1.9818580150604248,0.6503356308280801,76.0,765.0,0.0
Y,R,"[6, 10]",1.0,6.0,0.42905187606811523,1.9255528450012207,0.492424661580857,76.0,766.0,0.0
R,U,"[5, 10]",1.0,7.0,0.3133578300476074,1.9999768733978271,0.692389386019382,76.0,767.0,0.0
R,U,"[4, 10]",1.0,8.0,0.2932131290435791,1.8735079765319824,0.5826028560431624,76.0,768.0,0.0
B,L,"[4, 9]",1.0,9.0,0.44913601875305176,1.8797080516815186,0.4125759135898677,76.0,769.0,0.0
R,U,"[3, 9]",1.0,10.0,0.6018049716949463,2.157212972640991,0.5363958921593659,76.0,770.0,0.0
,,"(6, 6)",,,,,,76.0,,
R,U,"[5, 6]",1.0,1.0,0.3104429244995117,2.7149980068206787,0.6516665901003349,,771.0,0.0
Y,R,"[5, 7]",1.0,2.0,0.2762770652770996,2.019351005554199,0.7375213282374035,77.0,772.0,0.0
Y,R,"[5, 8]",1.0,3.0,0.2589390277862549,1.8426599502563477,0.580157206139335,77.0,773.0,0.0
G,D,"[6, 8]",1.0,4.0,0.3977971076965332,1.8389270305633545,0.4193188237255329,77.0,774.0,0.0
Y,R,"[6, 9]",1.0,5.0,0.3735079765319824,2.081839084625244,0.7011660727103639,77.0,775.0,0.0
Y,R,"[6, 10]",1.0,6.0,0.3174600601196289,2.0561110973358154,0.7236504409486477,77.0,776.0,0.0
R,U,"[5, 10]",1.0,7.0,0.2848079204559326,1.6349029541015625,0.3589660603995322,77.0,777.0,0.0
R,U,"[4, 10]",1.0,8.0,0.3639869689941406,1.745542049407959,0.3878220596121128,77.0,778.0,0.0
B,L,"[4, 9]",1.0,9.0,0.38777899742126465,1.6880171298980713,0.29276555735873955,77.0,779.0,0.0
R,U,"[3, 9]",1.0,10.0,0.47272706031799316,2.2149219512939453,0.740812547866567,77.0,780.0,0.0
,,"(6, 6)",,,,,,77.0,,
R,U,"[5, 6]",1.0,1.0,0.33169102668762207,2.7802658081054688,0.7210565312900425,,781.0,0.0
Y,R,"[5, 7]",1.0,2.0,0.32712888717651367,1.8884479999542236,0.5597429040390307,78.0,782.0,0.0
Y,R,"[5, 8]",1.0,3.0,0.332719087600708,1.9992210865020752,0.6588646963180181,78.0,783.0,0.0
G,D,"[6, 8]",1.0,4.0,0.30966901779174805,1.7358360290527344,0.4281705129837448,78.0,784.0,0.0
Y,R,"[6, 9]",1.0,5.0,0.2950608730316162,1.9225409030914307,0.6338365490621389,78.0,785.0,0.0
Y,R,"[6, 10]",1.0,6.0,0.4660451412200928,1.827686071395874,0.34519393203185916,78.0,786.0,0.0
R,U,"[5, 10]",1.0,7.0,0.39469313621520996,1.6589810848236084,0.2708425133049551,78.0,787.0,0.0
R,U,"[4, 10]",1.0,8.0,0.40048694610595703,2.0110220909118652,0.598480003672041,78.0,788.0,0.0
B,L,"[4, 9]",1.0,9.0,0.3214259147644043,1.6466341018676758,0.31218455680485585,78.0,789.0,0.0
R,U,"[3, 9]",1.0,10.0,0.49201107025146484,2.20210599899292,0.7138811408649854,78.0,790.0,0.0
,,"(6, 6)",,,,,,78.0,,
R,U,"[5, 6]",1.0,1.0,0.3364238739013672,2.5699779987335205,0.3342941924977013,,791.0,0.0
Y,R,"[5, 7]",1.0,2.0,0.36089396476745605,2.072956085205078,0.7068121825368809,79.0,792.0,0.0
Y,R,"[5, 8]",1.0,3.0,0.3314859867095947,1.6571741104125977,0.3144473991516253,79.0,793.0,0.0
G,D,"[6, 8]",1.0,4.0,0.49567699432373047,2.240880012512207,0.7385107342479116,79.0,794.0,0.0
Y,R,"[6, 9]",1.0,5.0,0.2864251136779785,1.7333741188049316,0.4390843046995592,79.0,795.0,0.0
Y,R,"[6, 10]",1.0,6.0,0.44011592864990234,2.007110118865967,0.5624333318194389,79.0,796.0,0.0
R,U,"[5, 10]",1.0,7.0,0.33754491806030273,1.6638569831848145,0.3265889020973417,79.0,797.0,0.0
R,U,"[4, 10]",1.0,8.0,0.442612886428833,1.7432289123535156,0.3030750573141339,79.0,798.0,0.0
B,L,"[4, 9]",1.0,9.0,0.4206578731536865,2.0357320308685303,0.6052215646244612,79.0,799.0,0.0
R,U,"[3, 9]",1.0,10.0,0.3803679943084717,2.0432069301605225,0.665306643122166,79.0,800.0,0.0
,,"(6, 6)",,,,,,79.0,,
R,U,"[5, 6]",1.0,1.0,0.3739790916442871,2.9860501289367676,0.7179162282497829,,801.0,0.0
Y,R,"[5, 7]",1.0,2.0,0.24734783172607422,1.796957015991211,0.5485590868463952,80.0,802.0,0.0
Y,R,"[5, 8]",1.0,3.0,0.29526686668395996,1.5608220100402832,0.25968076447801136,80.0,803.0,0.0
G,D,"[6, 8]",1.0,4.0,0.5522940158843994,1.9809870719909668,0.4237156661563418,80.0,804.0,0.0
Y,R,"[6, 9]",1.0,5.0,0.35321903228759766,1.856489896774292,0.4968646296710205,80.0,805.0,0.0
Y,R,"[6, 10]",1.0,6.0,0.2605750560760498,1.564812183380127,0.2951462965084066,80.0,806.0,0.0
R,U,"[5, 10]",1.0,7.0,0.31247615814208984,1.8177850246429443,0.5127534180898812,80.0,807.0,0.0
R,U,"[4, 10]",1.0,8.0,0.25419092178344727,2.000455141067505,0.7298192520303483,80.0,808.0,0.0
B,L,"[4, 9]",1.0,9.0,0.2574648857116699,1.5326170921325684,0.2627829740413248,80.0,809.0,0.0
R,U,"[3, 9]",1.0,10.0,0.47395896911621094,2.2190170288085938,0.7316925025676215,80.0,810.0,0.0
,,"(6, 6)",,,,,,80.0,,
R,U,"[5, 6]",1.0,1.0,0.2631969451904297,2.5142648220062256,0.2796426534569711,,811.0,0.0
Y,R,"[5, 7]",1.0,2.0,0.3358008861541748,1.8139469623565674,0.47678433969822565,81.0,812.0,0.0
Y,R,"[5, 8]",1.0,3.0,0.2968780994415283,1.540337085723877,0.25057464577831784,81.0,813.0,0.0
G,D,"[6, 8]",1.0,4.0,0.46990203857421875,1.9874122142791748,0.5211030015662756,81.0,814.0,0.0
Y,R,"[6, 9]",1.0,5.0,0.29462409019470215,1.9119560718536377,0.6163243003578422,81.0,815.0,0.0
Y,R,"[6, 10]",1.0,6.0,0.2741849422454834,1.7902729511260986,0.5069000283403797,81.0,816.0,0.0
R,U,"[5, 10]",1.0,7.0,0.27188801765441895,1.7900958061218262,0.5136566820054078,81.0,817.0,0.0
R,U,"[4, 10]",1.0,8.0,0.2949650287628174,2.0240578651428223,0.7208536858862604,81.0,818.0,0.0
B,L,"[4, 9]",1.0,9.0,0.35727500915527344,2.1010749340057373,0.7384675266389963,81.0,819.0,0.0
R,U,"[3, 9]",1.0,10.0,0.3793041706085205,1.653419017791748,0.2759962468652918,81.0,820.0,0.0
,,"(6, 6)",,,,,,81.0,,
R,U,"[5, 6]",1.0,1.0,0.29222798347473145,2.884105920791626,0.6096458497426299,,821.0,0.0
Y,R,"[5, 7]",1.0,2.0,0.29825711250305176,1.8542039394378662,0.5639187793665319,82.0,822.0,0.0
Y,R,"[5, 8]",1.0,3.0,0.3025519847869873,1.8663051128387451,0.5469418647461316,82.0,823.0,0.0
G,D,"[6, 8]",1.0,4.0,0.32495713233947754,2.017167091369629,0.6807703958213284,82.0,824.0,0.0
Y,R,"[6, 9]",1.0,5.0,0.3052961826324463,1.6070451736450195,0.2881817898533185,82.0,825.0,0.0
Y,R,"[6, 10]",1.0,6.0,0.3811509609222412,2.1342339515686035,0.7220127320076093,82.0,826.0,0.0
R,U,"[5, 10]",1.0,7.0,0.2800757884979248,1.6765999794006348,0.36565534549497314,82.0,827.0,0.0
R,U,"[4, 10]",1.0,8.0,0.3022589683532715,1.6984009742736816,0.38101912404119953,82.0,828.0,0.0
B,L,"[4, 9]",1.0,9.0,0.3779330253601074,1.7438530921936035,0.358169820078168,82.0,829.0,0.0
R,U,"[3, 9]",1.0,10.0,0.4746592044830322,1.8804221153259277,0.4050706767506611,82.0,830.0,0.0
,,"(6, 6)",,,,,,82.0,,
R,U,"[5, 6]",1.0,1.0,0.293842077255249,2.224200963973999,0.3961237266431727,,831.0,0.0
Y,R,"[5, 7]",1.0,2.0,0.2929670810699463,2.002978801727295,0.6987162467792233,83.0,832.0,0.0
Y,R,"[5, 8]",1.0,3.0,0.26297807693481445,1.7286159992218018,0.46100964716324316,83.0,833.0,0.0
G,D,"[6, 8]",1.0,4.0,0.35774803161621094,1.8877050876617432,0.532074091556447,83.0,834.0,0.0
Y,R,"[6, 9]",1.0,5.0,0.23455595970153809,1.8831250667572021,0.6318369146223985,83.0,835.0,0.0
Y,R,"[6, 10]",1.0,6.0,0.325455904006958,1.6679019927978516,0.3334779476899507,83.0,836.0,0.0
R,U,"[5, 10]",1.0,7.0,0.5227739810943604,2.2352590560913086,0.7017316021119311,83.0,837.0,0.0
R,U,"[4, 10]",1.0,8.0,0.22449302673339844,1.688359022140503,0.4566959544183678,83.0,838.0,0.0
B,L,"[4, 9]",1.0,9.0,0.36116790771484375,1.9571120738983154,0.5972137479495045,83.0,839.0,0.0
R,U,"[3, 9]",1.0,10.0,0.364030122756958,1.7149980068206787,0.3459701421863324,83.0,840.0,0.0
,,"(6, 6)",,,,,,83.0,,
R,U,"[5, 6]",1.0,1.0,0.36566805839538574,2.096410036087036,0.2924312229924064,,841.0,0.0
Y,R,"[5, 7]",1.0,2.0,0.25666308403015137,1.6719110012054443,0.41415823129546275,84.0,842.0,0.0
Y,R,"[5, 8]",1.0,3.0,0.3795309066772461,1.9530019760131836,0.5670952755663741,84.0,843.0,0.0
G,D,"[6, 8]",1.0,4.0,0.34644389152526855,1.8928370475769043,0.5431260816718765,84.0,844.0,0.0
Y,R,"[6, 9]",1.0,5.0,0.2904930114746094,1.5991649627685547,0.30938052912561087,84.0,845.0,0.0
Y,R,"[6, 10]",1.0,6.0,0.4683859348297119,1.709550142288208,0.2525044661721456,84.0,846.0,0.0
R,U,"[5, 10]",1.0,7.0,0.34753990173339844,2.0615310668945312,0.713366911222618,84.0,847.0,0.0
R,U,"[4, 10]",1.0,8.0,0.24506187438964844,1.691918134689331,0.4390064195344596,84.0,848.0,0.0
B,L,"[4, 9]",1.0,9.0,0.3987579345703125,1.9918420314788818,0.5974671791985844,84.0,849.0,0.0
R,U,"[3, 9]",1.0,10.0,0.26485586166381836,1.8185479640960693,0.5328160271782185,84.0,850.0,0.0
,,"(6, 6)",,,,,,84.0,,
R,U,"[5, 6]",1.0,1.0,0.2996039390563965,2.4502861499786377,0.6995747759840641,,851.0,0.0
Y,R,"[5, 7]",1.0,2.0,0.27475619316101074,2.0217881202697754,0.7379084222176968,85.0,852.0,0.0
Y,R,"[5, 8]",1.0,3.0,0.2480180263519287,1.6079959869384766,0.3630666787274847,85.0,853.0,0.0
G,D,"[6, 8]",1.0,4.0,0.3571200370788574,1.9043920040130615,0.5340019248671147,85.0,854.0,0.0
Y,R,"[6, 9]",1.0,5.0,0.29613304138183594,1.7829971313476562,0.4836597364878517,85.0,855.0,0.0
Y,R,"[6, 10]",1.0,6.0,0.41605091094970703,1.969141960144043,0.5362048041954286,85.0,856.0,0.0
R,U,"[5, 10]",1.0,7.0,0.2993788719177246,1.789473056793213,0.4756519846319063,85.0,857.0,0.0
R,U,"[4, 10]",1.0,8.0,0.27410387992858887,1.8424510955810547,0.5681444709242586,85.0,858.0,0.0
B,L,"[4, 9]",1.0,9.0,0.2882080078125,2.0071840286254883,0.7253348371581265,85.0,859.0,0.0
R,U,"[3, 9]",1.0,10.0,0.2601301670074463,1.8250088691711426,0.566991400790134,85.0,860.0,0.0
,,"(6, 6)",,,,,,85.0,,
R,U,"[5, 6]",1.0,1.0,0.22728896141052246,2.54107403755188,0.6080899371045885,,861.0,0.0
Y,R,"[5, 7]",1.0,2.0,0.25563597679138184,1.969085931777954,0.7105101203057247,86.0,862.0,0.0
Y,R,"[5, 8]",1.0,3.0,0.4019758701324463,2.1479151248931885,0.7417552644003393,86.0,863.0,0.0
G,D,"[6, 8]",1.0,4.0,0.35805392265319824,1.639807939529419,0.28229821267793165,86.0,864.0,0.0
Y,R,"[6, 9]",1.0,5.0,0.45410990715026855,1.965717077255249,0.49771399274550443,86.0,865.0,0.0
Y,R,"[6, 10]",1.0,6.0,0.5009939670562744,2.1125118732452393,0.5936135979905781,86.0,866.0,0.0
R,U,"[5, 10]",1.0,7.0,0.26578402519226074,1.733564853668213,0.4605906944650155,86.0,867.0,0.0
R,U,"[4, 10]",1.0,8.0,0.2944509983062744,1.7654390335083008,0.47598126415994163,86.0,868.0,0.0
B,L,"[4, 9]",1.0,9.0,0.38304591178894043,2.132446050643921,0.7414416515277347,86.0,869.0,0.0
R,U,"[3, 9]",1.0,10.0,0.36238718032836914,1.699803113937378,0.34163594298798666,86.0,870.0,0.0
,,"(6, 6)",,,,,,86.0,,
R,U,"[5, 6]",1.0,1.0,0.18967294692993164,3.05014705657959,0.5418774378080451,,871.0,0.0
Y,R,"[5, 7]",1.0,2.0,0.2156529426574707,1.8629019260406494,0.6380325597185499,87.0,872.0,0.0
Y,R,"[5, 8]",1.0,3.0,0.29342198371887207,1.8767521381378174,0.5814487124129608,87.0,873.0,0.0
G,D,"[6, 8]",1.0,4.0,0.2677161693572998,1.917565107345581,0.6324384186976861,87.0,874.0,0.0
Y,R,"[6, 9]",1.0,5.0,0.26314592361450195,1.9827730655670166,0.7151538859661881,87.0,875.0,0.0
Y,R,"[6, 10]",1.0,6.0,0.27780818939208984,1.6102471351623535,0.3255081391641266,87.0,876.0,0.0
R,U,"[5, 10]",1.0,7.0,0.2789180278778076,1.7584240436553955,0.4839183311377126,87.0,877.0,0.0
R,U,"[4, 10]",1.0,8.0,0.25122594833374023,1.5744199752807617,0.3084907367949608,87.0,878.0,0.0
B,L,"[4, 9]",1.0,9.0,0.2958531379699707,1.7074658870697021,0.4159963256402445,87.0,879.0,0.0
R,U,"[3, 9]",1.0,10.0,0.3329339027404785,1.9917879104614258,0.6407955011039728,87.0,880.0,0.0
,,"(6, 6)",,,,,,87.0,,
R,U,"[5, 6]",1.0,1.0,0.22872304916381836,2.695617914199829,0.7363780654859464,,881.0,0.0
Y,R,"[5, 7]",1.0,2.0,0.23388099670410156,1.785944938659668,0.5394581430641391,88.0,882.0,0.0
Y,R,"[5, 8]",1.0,3.0,0.3195619583129883,1.8569600582122803,0.5463500899242585,88.0,883.0,0.0
G,D,"[6, 8]",1.0,4.0,0.4478940963745117,1.8261640071868896,0.3561124501494297,88.0,884.0,0.0
Y,R,"[6, 9]",1.0,5.0,0.29958415031433105,1.6070640087127686,0.29656066483584986,88.0,885.0,0.0
Y,R,"[6, 10]",1.0,6.0,0.3048081398010254,1.8111391067504883,0.4908484232558599,88.0,886.0,0.0
R,U,"[5, 10]",1.0,7.0,0.23288798332214355,1.5462381839752197,0.3206479535001841,88.0,887.0,0.0
R,U,"[4, 10]",1.0,8.0,0.30663204193115234,1.626845121383667,0.3142183538426033,88.0,888.0,0.0
B,L,"[4, 9]",1.0,9.0,0.3616321086883545,2.0677649974823,0.698147128397573,88.0,889.0,0.0
R,U,"[3, 9]",1.0,10.0,0.28705286979675293,1.8960058689117432,0.5941564162026118,88.0,890.0,0.0
,,"(6, 6)",,,,,,88.0,,
R,U,"[5, 6]",1.0,1.0,0.24612808227539062,2.5115199089050293,0.6224604267539671,,891.0,0.0
Y,R,"[5, 7]",1.0,2.0,0.24965310096740723,1.959953784942627,0.6990944954671814,89.0,892.0,0.0
Y,R,"[5, 8]",1.0,3.0,0.21050310134887695,1.5843079090118408,0.36711624633658174,89.0,893.0,0.0
G,D,"[6, 8]",1.0,4.0,0.3153700828552246,1.605578899383545,0.28948207836627055,89.0,894.0,0.0
Y,R,"[6, 9]",1.0,5.0,0.38132214546203613,1.6769280433654785,0.28298910813726136,89.0,895.0,0.0
Y,R,"[6, 10]",1.0,6.0,0.37298583984375,1.8032689094543457,0.4196733760261173,89.0,896.0,0.0
R,U,"[5, 10]",1.0,7.0,0.32914090156555176,1.890254020690918,0.5599005884293193,89.0,897.0,0.0
R,U,"[4, 10]",1.0,8.0,0.20886516571044922,1.7682840824127197,0.561438748856762,89.0,898.0,0.0
B,L,"[4, 9]",1.0,9.0,0.3212411403656006,2.0451180934906006,0.7233057115298577,89.0,899.0,0.0
R,U,"[3, 9]",1.0,10.0,0.25631093978881836,1.7608509063720703,0.5008484209187963,89.0,900.0,0.0
,,"(6, 6)",,,,,,89.0,,
R,U,"[5, 6]",1.0,1.0,0.25324392318725586,2.3534188270568848,0.4042396192580768,,901.0,0.0
Y,R,"[5, 7]",1.0,2.0,0.28946709632873535,1.7250010967254639,0.4292477021577764,90.0,902.0,0.0
Y,R,"[5, 8]",1.0,3.0,0.37768006324768066,1.860821008682251,0.47337155826703375,90.0,903.0,0.0
G,D,"[6, 8]",1.0,4.0,0.3865091800689697,1.9611859321594238,0.5683254408930376,90.0,904.0,0.0
Y,R,"[6, 9]",1.0,5.0,0.3190000057220459,1.6292719841003418,0.29737606832435026,90.0,905.0,0.0
Y,R,"[6, 10]",1.0,6.0,0.3086268901824951,1.70723295211792,0.38808509900482,90.0,906.0,0.0
R,U,"[5, 10]",1.0,7.0,0.26749587059020996,1.81709885597229,0.5384173491953317,90.0,907.0,0.0
R,U,"[4, 10]",1.0,8.0,0.22710013389587402,1.4853878021240234,0.25745726096928495,90.0,908.0,0.0
B,L,"[4, 9]",1.0,9.0,0.3599979877471924,1.69091796875,0.3314390031634298,90.0,909.0,0.0
R,U,"[3, 9]",1.0,10.0,0.2768869400024414,1.990422010421753,0.7048587566173423,90.0,910.0,0.0
,,"(6, 6)",,,,,,90.0,,
R,U,"[5, 6]",1.0,1.0,0.3003981113433838,2.1491880416870117,0.3046254543928474,,911.0,0.0
Y,R,"[5, 7]",1.0,2.0,0.23984599113464355,1.7642381191253662,0.518804237119777,91.0,912.0,0.0
Y,R,"[5, 8]",1.0,3.0,0.2763049602508545,2.007681131362915,0.7261881910397245,91.0,913.0,0.0
G,D,"[6, 8]",1.0,4.0,0.2612791061401367,1.7595219612121582,0.5026304903903471,91.0,914.0,0.0
Y,R,"[6, 9]",1.0,5.0,0.31659507751464844,2.0528218746185303,0.7219640700883729,91.0,915.0,0.0
Y,R,"[6, 10]",1.0,6.0,0.24850201606750488,1.9908249378204346,0.746053541204519,91.0,916.0,0.0
R,U,"[5, 10]",1.0,7.0,0.25467801094055176,1.7177629470825195,0.44755421673932266,91.0,917.0,0.0
R,U,"[4, 10]",1.0,8.0,0.2460339069366455,1.6752171516418457,0.4227572941037307,91.0,918.0,0.0
B,L,"[4, 9]",1.0,9.0,0.37346386909484863,1.941014051437378,0.5637184676657347,91.0,919.0,0.0
R,U,"[3, 9]",1.0,10.0,0.3685638904571533,2.0013060569763184,0.6151410494620639,91.0,920.0,0.0
,,"(6, 6)",,,,,,91.0,,
R,U,"[5, 6]",1.0,1.0,0.26004695892333984,2.2264580726623535,0.37517823580477555,,921.0,0.0
Y,R,"[5, 7]",1.0,2.0,0.2719719409942627,2.0180249214172363,0.7427987063829429,92.0,922.0,0.0
Y,R,"[5, 8]",1.0,3.0,0.22964191436767578,1.6984319686889648,0.47473930155545935,92.0,923.0,0.0
G,D,"[6, 8]",1.0,4.0,0.32781219482421875,1.585664987564087,0.2605494030213167,92.0,924.0,0.0
Y,R,"[6, 9]",1.0,5.0,0.30234694480895996,1.9101672172546387,0.6037432489586467,92.0,925.0,0.0
Y,R,"[6, 10]",1.0,6.0,0.2762439250946045,1.902216911315918,0.6226560164829709,92.0,926.0,0.0
R,U,"[5, 10]",1.0,7.0,0.2207019329071045,1.7616548538208008,0.5344899477509646,92.0,927.0,0.0
R,U,"[4, 10]",1.0,8.0,0.23220491409301758,1.769078016281128,0.5368509452600518,92.0,928.0,0.0
B,L,"[4, 9]",1.0,9.0,0.25823402404785156,1.959846019744873,0.6965062730126077,92.0,929.0,0.0
R,U,"[3, 9]",1.0,10.0,0.2088320255279541,1.7916791439056396,0.5717679981058803,92.0,930.0,0.0
,,"(6, 6)",,,,,,92.0,,
R,U,"[5, 6]",1.0,1.0,0.24000215530395508,2.2209270000457764,0.47616949638070477,,931.0,0.0
Y,R,"[5, 7]",1.0,2.0,0.23514413833618164,1.6655118465423584,0.4417006370526133,93.0,932.0,0.0
Y,R,"[5, 8]",1.0,3.0,0.2604069709777832,1.846207857131958,0.5878015869050472,93.0,933.0,0.0
G,D,"[6, 8]",1.0,4.0,0.2635221481323242,1.9708359241485596,0.6917773608047582,93.0,934.0,0.0
Y,R,"[6, 9]",1.0,5.0,0.284060001373291,1.9776558876037598,0.6863302125244314,93.0,935.0,0.0
Y,R,"[6, 10]",1.0,6.0,0.2396390438079834,1.6014468669891357,0.3547336268240748,93.0,936.0,0.0
R,U,"[5, 10]",1.0,7.0,0.28128886222839355,1.9987568855285645,0.7032627323677004,93.0,937.0,0.0
R,U,"[4, 10]",1.0,8.0,0.2306220531463623,1.604640007019043,0.3748584177290911,93.0,938.0,0.0
B,L,"[4, 9]",1.0,9.0,0.3086111545562744,1.881397008895874,0.5726475759251574,93.0,939.0,0.0
R,U,"[3, 9]",1.0,10.0,0.19234514236450195,1.6078691482543945,0.41415523036508933,93.0,940.0,0.0
,,"(6, 6)",,,,,,93.0,,
R,U,"[5, 6]",1.0,1.0,0.24441814422607422,2.4882969856262207,0.5524207714957333,,941.0,0.0
Y,R,"[5, 7]",1.0,2.0,0.28258705139160156,1.8299078941345215,0.5322154258348876,94.0,942.0,0.0
Y,R,"[5, 8]",1.0,3.0,0.28916501998901367,1.6915380954742432,0.39066044219699025,94.0,943.0,0.0
G,D,"[6, 8]",1.0,4.0,0.2991371154785156,1.6815509796142578,0.37228793626885553,94.0,944.0,0.0
Y,R,"[6, 9]",1.0,5.0,0.3206779956817627,1.697566032409668,0.36982880925570566,94.0,945.0,0.0
Y,R,"[6, 10]",1.0,6.0,0.3607158660888672,1.8216209411621094,0.45812596761827673,94.0,946.0,0.0
R,U,"[5, 10]",1.0,7.0,0.24504303932189941,1.7005219459533691,0.45876517837600106,94.0,947.0,0.0
R,U,"[4, 10]",1.0,8.0,0.20644116401672363,1.9264421463012695,0.718078860563017,94.0,948.0,0.0
B,L,"[4, 9]",1.0,9.0,0.24213099479675293,1.8671000003814697,0.6188057862558625,94.0,949.0,0.0
R,U,"[3, 9]",1.0,10.0,0.27965402603149414,2.018630027770996,0.7373385595644241,94.0,950.0,0.0
,,"(6, 6)",,,,,,94.0,,
R,U,"[5, 6]",1.0,1.0,0.1442580223083496,2.7171058654785156,0.6879982832248928,,951.0,0.0
Y,R,"[5, 7]",1.0,2.0,0.20397186279296875,1.8295469284057617,0.6174797006223682,95.0,952.0,0.0
Y,R,"[5, 8]",1.0,3.0,0.26286888122558594,1.5660347938537598,0.30042984448165533,95.0,953.0,0.0
G,D,"[6, 8]",1.0,4.0,0.2634470462799072,1.5914819240570068,0.3254371168692833,95.0,954.0,0.0
Y,R,"[6, 9]",1.0,5.0,0.3760230541229248,1.798501968383789,0.42369136781806754,95.0,955.0,0.0
Y,R,"[6, 10]",1.0,6.0,0.396481990814209,1.7064270973205566,0.3136066367770553,95.0,956.0,0.0
R,U,"[5, 10]",1.0,7.0,0.24904203414916992,1.555722951889038,0.28614279560284195,95.0,957.0,0.0
R,U,"[4, 10]",1.0,8.0,0.27459001541137695,1.6944730281829834,0.4137518048433416,95.0,958.0,0.0
B,L,"[4, 9]",1.0,9.0,0.25768303871154785,1.7315700054168701,0.46202208965153474,95.0,959.0,0.0
R,U,"[3, 9]",1.0,10.0,0.29001688957214355,1.6246612071990967,0.3368955631164625,95.0,960.0,0.0
,,"(6, 6)",,,,,,95.0,,
R,U,"[5, 6]",1.0,1.0,0.25052499771118164,2.3842010498046875,0.33766262078567716,,961.0,0.0
Y,R,"[5, 7]",1.0,2.0,0.2394709587097168,1.7457289695739746,0.4998947251426168,96.0,962.0,0.0
Y,R,"[5, 8]",1.0,3.0,0.291424036026001,1.6387159824371338,0.33874568593180476,96.0,963.0,0.0
G,D,"[6, 8]",1.0,4.0,0.3231320381164551,1.774036169052124,0.44618105702759875,96.0,964.0,0.0
Y,R,"[6, 9]",1.0,5.0,0.2449169158935547,1.8401470184326172,0.586062138722325,96.0,965.0,0.0
Y,R,"[6, 10]",1.0,6.0,0.2336270809173584,1.7452061176300049,0.4981382864646314,96.0,966.0,0.0
R,U,"[5, 10]",1.0,7.0,0.23369693756103516,1.9488120079040527,0.6969589238240295,96.0,967.0,0.0
R,U,"[4, 10]",1.0,8.0,0.2037351131439209,1.6053218841552734,0.38594730781785436,96.0,968.0,0.0
B,L,"[4, 9]",1.0,9.0,0.29685091972351074,1.5883049964904785,0.2908303596924467,96.0,969.0,0.0
R,U,"[3, 9]",1.0,10.0,0.33155298233032227,2.025111198425293,0.6988548623560128,96.0,970.0,0.0
,,"(6, 6)",,,,,,96.0,,
R,U,"[5, 6]",1.0,1.0,0.23511910438537598,2.0820369720458984,0.34800431968337653,,971.0,0.0
Y,R,"[5, 7]",1.0,2.0,0.24287080764770508,1.9225010871887207,0.670430471399073,97.0,972.0,0.0
Y,R,"[5, 8]",1.0,3.0,0.27188682556152344,1.6491570472717285,0.3698894608295509,97.0,973.0,0.0
G,D,"[6, 8]",1.0,4.0,0.3419640064239502,1.9010050296783447,0.5539727749491818,97.0,974.0,0.0
Y,R,"[6, 9]",1.0,5.0,0.2451639175415039,1.8304169178009033,0.5841886327554121,97.0,975.0,0.0
Y,R,"[6, 10]",1.0,6.0,0.24802684783935547,1.7716090679168701,0.5059235505784228,97.0,976.0,0.0
R,U,"[5, 10]",1.0,7.0,0.20762920379638672,1.8181788921356201,0.6073984013962097,97.0,977.0,0.0
R,U,"[4, 10]",1.0,8.0,0.24498581886291504,1.9707839488983154,0.7279793043296912,97.0,978.0,0.0
B,L,"[4, 9]",1.0,9.0,0.32340288162231445,1.6809871196746826,0.3593674198500677,97.0,979.0,0.0
R,U,"[3, 9]",1.0,10.0,0.30209803581237793,1.7039411067962646,0.3966416632085739,97.0,980.0,0.0
,,"(6, 6)",,,,,,97.0,,
R,U,"[5, 6]",1.0,1.0,0.18200087547302246,2.4673240184783936,0.29737441097072836,,981.0,0.0
Y,R,"[5, 7]",1.0,2.0,0.2628941535949707,1.9037890434265137,0.6341807118267317,98.0,982.0,0.0
Y,R,"[5, 8]",1.0,3.0,0.23001790046691895,1.7762470245361328,0.5439086888689291,98.0,983.0,0.0
G,D,"[6, 8]",1.0,4.0,0.23435211181640625,1.6855080127716064,0.4461594553770762,98.0,984.0,0.0
Y,R,"[6, 9]",1.0,5.0,0.25940799713134766,1.741919994354248,0.47178269172040466,98.0,985.0,0.0
Y,R,"[6, 10]",1.0,6.0,0.26926708221435547,1.5574300289154053,0.2793599633180186,98.0,986.0,0.0
R,U,"[5, 10]",1.0,7.0,0.24778008460998535,1.6445441246032715,0.37381838169588055,98.0,987.0,0.0
R,U,"[4, 10]",1.0,8.0,0.24726390838623047,1.9765350818634033,0.7332577982834876,98.0,988.0,0.0
B,L,"[4, 9]",1.0,9.0,0.26700282096862793,1.8542070388793945,0.5709036676740309,98.0,989.0,0.0
R,U,"[3, 9]",1.0,10.0,0.24533390998840332,1.9056668281555176,0.6597714335463575,98.0,990.0,0.0
,,"(6, 6)",,,,,,98.0,,
R,U,"[5, 6]",1.0,1.0,0.21539902687072754,2.6486330032348633,0.6917671157809103,,991.0,0.0
Y,R,"[5, 7]",1.0,2.0,0.28125,1.6461670398712158,0.3550152505283154,99.0,992.0,0.0
Y,R,"[5, 8]",1.0,3.0,0.38020896911621094,1.9535541534423828,0.5749493121321452,99.0,993.0,0.0
G,D,"[6, 8]",1.0,4.0,0.23541498184204102,1.4920730590820312,0.250706389603158,99.0,994.0,0.0
Y,R,"[6, 9]",1.0,5.0,0.32137298583984375,1.861069917678833,0.5282882725954607,99.0,995.0,0.0
Y,R,"[6, 10]",1.0,6.0,0.3124229907989502,1.5568768978118896,0.2520750076089419,99.0,996.0,0.0
R,U,"[5, 10]",1.0,7.0,0.29099297523498535,1.8465440273284912,0.5482950945236249,99.0,997.0,0.0
R,U,"[4, 10]",1.0,8.0,0.2151050567626953,1.5512080192565918,0.33312250301681456,99.0,998.0,0.0
B,L,"[4, 9]",1.0,9.0,0.33031201362609863,1.7264940738677979,0.3932168999903813,99.0,999.0,0.0
R,U,"[3, 9]",1.0,10.0,0.24082303047180176,1.97707200050354,0.7364709144999386,99.0,1000.0,0.0
