button_choice,action_choice,coordinate_choice,reward,cumulative_reward,rt,total_trial_time,iti,block_n,trial_n,trial_type
Y,R,"[6, 7]",0.0,0.0,0.26512908935546875,1.9189040660858154,0.5558191553858753,0.0,1.0,0.0
G,D,"[7, 7]",-2.0,0.0,3.7574288845062256,5.496188163757324,0.72566168236028,0.0,2.0,0.0
G,D,"[8, 7]",0.0,0.0,0.3693971633911133,1.925173044204712,0.4692362274049193,0.0,3.0,0.0
Y,R,"[8, 8]",0.0,0.0,0.6767969131469727,2.381093978881836,0.6183368715202119,0.0,4.0,0.0
G,D,"[9, 8]",-2.0,0.0,3.1495630741119385,4.666494131088257,0.4869976882526965,0.0,5.0,0.0
R,U,"[8, 8]",-2.0,0.0,3.5373151302337646,5.28936505317688,0.7274037220686692,0.0,6.0,0.0
G,D,"[9, 8]",-1.0,0.0,0.08681011199951172,5.7603771686553955,0.5385318276550223,0.0,7.0,0.0
B,L,"[9, 7]",0.0,0.0,0.23593807220458984,1.7811648845672607,0.4534484645478375,0.0,8.0,0.0
Y,R,"[9, 8]",0.0,0.0,0.25619006156921387,1.7502708435058594,0.3874916532772924,0.0,9.0,0.0
Y,R,"[9, 9]",0.0,0.0,0.2652909755706787,1.8901770114898682,0.5278521517503174,0.0,10.0,0.0
,,"(6, 6)",,,,,,,,
R,U,"[5, 6]",1.0,1.0,0.7340939044952393,6.559437036514282,0.6378867381430269,1.0,11.0,0.0
G,D,"[6, 6]",0.0,1.0,0.2559049129486084,1.9799718856811523,0.6182690984061181,1.0,12.0,0.0
R,U,"[5, 6]",0.0,1.0,0.29362010955810547,2.0309290885925293,0.6326047825736878,1.0,13.0,0.0
Y,R,"[5, 7]",1.0,2.0,0.22031807899475098,1.9017250537872314,0.584985151394613,1.0,14.0,0.0
B,L,"[5, 6]",0.0,2.0,0.29418301582336426,1.7533562183380127,0.35529414799063214,1.0,15.0,0.0
Y,R,"[5, 7]",-2.0,2.0,3.367319107055664,4.8099329471588135,0.41578308778129697,1.0,16.0,0.0
B,L,"[5, 6]",0.0,2.0,0.25196194648742676,2.065500020980835,0.71431374088611,1.0,17.0,0.0
G,D,"[6, 6]",0.0,2.0,0.25728607177734375,1.9067950248718262,0.5380627741019127,1.0,18.0,0.0
R,U,"[5, 6]",0.0,2.0,0.2845301628112793,1.9926321506500244,0.6144462523301368,1.0,19.0,0.0
R,U,"[4, 6]",0.0,2.0,0.26383185386657715,1.77675199508667,0.4082213119868019,1.0,20.0,0.0
,,"(6, 6)",,,,,,,,
R,U,"[5, 6]",1.0,1.0,0.36913418769836426,4.1292150020599365,0.5377593369426578,2.0,21.0,0.0
G,D,"[6, 6]",0.0,1.0,0.4698178768157959,2.1020898818969727,0.5399034711045702,2.0,22.0,0.0
R,U,"[5, 6]",0.0,1.0,0.5809710025787354,2.229423999786377,0.5528282984025575,2.0,23.0,0.0
B,L,"[5, 5]",0.0,1.0,0.23154687881469727,1.675915002822876,0.34576750492777925,2.0,24.0,0.0
Y,R,"[5, 6]",0.0,1.0,0.2488410472869873,2.0857880115509033,0.7480692558051409,2.0,25.0,0.0
G,D,"[6, 6]",0.0,1.0,0.254378080368042,1.8681750297546387,0.5166530318850329,2.0,26.0,0.0
R,U,"[5, 6]",0.0,1.0,0.22719979286193848,1.8236827850341797,0.4904769510673737,2.0,27.0,0.0
G,D,"[6, 6]",0.0,1.0,0.10269284248352051,1.466723918914795,0.2742714146056203,2.0,28.0,0.0
B,L,"[6, 5]",0.0,1.0,0.2628309726715088,1.6396498680114746,0.2806467352304801,2.0,29.0,0.0
R,U,"[5, 5]",0.0,1.0,0.22800302505493164,1.794719934463501,0.4579423128896265,2.0,30.0,0.0
,,"(6, 6)",,,,,,,,
G,D,"[7, 6]",0.0,0.0,0.4512510299682617,3.102747917175293,0.36012511247199414,3.0,31.0,0.0
Y,R,"[7, 7]",0.0,0.0,0.11017704010009766,1.7657771110534668,0.5586486355741282,3.0,32.0,0.0
R,U,"[6, 7]",0.0,0.0,0.25550103187561035,1.621434211730957,0.26322541041789466,3.0,33.0,0.0
B,L,"[6, 6]",0.0,0.0,0.270582914352417,1.997654914855957,0.6268867014736317,3.0,34.0,0.0
G,D,"[7, 6]",0.0,0.0,0.27979302406311035,2.025481939315796,0.6519219965481117,3.0,35.0,0.0
Y,R,"[7, 7]",0.0,0.0,0.3317148685455322,1.9957780838012695,0.5640923902948718,3.0,36.0,0.0
Y,R,"[7, 8]",-1.0,0.0,0.0067369937896728516,5.608609914779663,0.47195147670847254,3.0,37.0,0.0
Y,R,"[7, 9]",0.0,0.0,0.23873209953308105,1.8390419483184814,0.4940334498670004,3.0,38.0,0.0
G,D,"[8, 9]",0.0,0.0,0.2624781131744385,1.9978830814361572,0.6416363454956266,3.0,39.0,0.0
R,U,"[7, 9]",0.0,0.0,0.3096778392791748,1.9153470993041992,0.5069010114448275,3.0,40.0,0.0
,,"(6, 6)",,,,,,,,
R,U,"[5, 6]",1.0,1.0,0.7047419548034668,5.980835914611816,0.7035604278029781,4.0,41.0,0.0
Y,R,"[5, 7]",1.0,2.0,0.24782991409301758,1.9423410892486572,0.5960759073867579,4.0,42.0,0.0
G,D,"[6, 7]",0.0,2.0,0.4109208583831787,2.065690040588379,0.544900605425754,4.0,43.0,0.0
B,L,"[6, 6]",0.0,2.0,0.34595394134521484,1.9203062057495117,0.4817473276035056,4.0,44.0,0.0
R,U,"[5, 6]",0.0,2.0,0.44868898391723633,2.1159980297088623,0.5642702451889381,4.0,45.0,0.0
Y,R,"[5, 7]",0.0,2.0,0.25128889083862305,2.0077550411224365,0.65530399913112,4.0,46.0,0.0
R,U,"[4, 7]",0.0,2.0,0.3720970153808594,1.9138679504394531,0.452586952863987,4.0,47.0,0.0
B,L,"[4, 6]",0.0,2.0,0.23464703559875488,1.716719150543213,0.3858676806905346,4.0,48.0,0.0
G,D,"[5, 6]",0.0,2.0,0.23782706260681152,1.581191062927246,0.2504119284938177,4.0,49.0,0.0
B,L,"[5, 5]",0.0,2.0,0.2945699691772461,2.0414018630981445,0.6415035432190781,4.0,50.0,0.0
,,"(6, 6)",,,,,,,,
R,U,"[5, 6]",1.0,1.0,0.6064920425415039,3.2031021118164062,0.27790820575424807,5.0,51.0,0.0
Y,R,"[5, 7]",1.0,2.0,0.3543858528137207,1.9874260425567627,0.5486225592449101,5.0,52.0,0.0
G,D,"[6, 7]",-2.0,2.0,2.4266819953918457,3.9411189556121826,0.4729732833875405,5.0,53.0,0.0
G,D,"[7, 7]",0.0,2.0,0.2573418617248535,2.0972189903259277,0.7366734684054366,5.0,54.0,0.0
G,D,"[8, 7]",-1.0,2.0,0.09937214851379395,5.831424951553345,0.6015210763198815,5.0,55.0,0.0
G,D,"[9, 7]",0.0,2.0,0.44147300720214844,1.8825891017913818,0.3345348983600741,5.0,56.0,0.0
G,D,"[10, 7]",-2.0,2.0,1.0599548816680908,2.4776318073272705,0.3785383915138266,5.0,57.0,0.0
G,D,"[11, 7]",0.0,2.0,0.3122990131378174,1.7432498931884766,0.33862667502067045,5.0,58.0,0.0
G,D,"[10, 7]",-3.0,2.0,0.4423520565032959,1.9486050605773926,0.40383897475349945,5.0,59.0,0.0
G,D,"[11, 7]",0.0,2.0,0.5534629821777344,2.3286900520324707,0.6823121185601384,5.0,60.0,0.0
,,"(6, 6)",,,,,,,,
R,U,"[5, 6]",1.0,1.0,0.4090418815612793,3.7422420978546143,0.6582871120579203,6.0,61.0,0.0
Y,R,"[5, 7]",1.0,2.0,0.4281961917877197,1.7940990924835205,0.26900183000044514,6.0,62.0,0.0
Y,R,"[5, 8]",-2.0,2.0,2.7350881099700928,4.477046012878418,0.7124327856940005,6.0,63.0,0.0
Y,R,"[5, 9]",-2.0,2.0,2.537832021713257,4.103224992752075,0.5326507069429578,6.0,64.0,0.0
Y,R,"[5, 10]",1.0,3.0,0.3499009609222412,1.8605468273162842,0.41000347507430246,6.0,65.0,0.0
Y,R,"[5, 11]",0.0,3.0,0.9792029857635498,2.67113995552063,0.5975600712503248,6.0,66.0,0.0
Y,R,"[5, 10]",-3.0,3.0,0.5377171039581299,2.1362361907958984,0.5007720373616654,6.0,67.0,0.0
Y,R,"[5, 11]",0.0,3.0,0.4257538318634033,1.8324029445648193,0.2998943017924855,6.0,68.0,0.0
Y,R,"[5, 10]",-3.0,3.0,0.40838003158569336,2.2540600299835205,0.7369891181063617,6.0,69.0,0.0
Y,R,"[5, 11]",0.0,3.0,0.2999880313873291,2.0964131355285645,0.7001581446705729,6.0,70.0,0.0
,,"(6, 6)",,,,,,,,
R,U,"[5, 6]",-2.0,0.0,1.7078039646148682,5.077549934387207,0.6777852656978762,7.0,71.0,0.0
Y,R,"[5, 7]",1.0,1.0,0.2768239974975586,1.7925708293914795,0.42083831278296496,7.0,72.0,0.0
R,U,"[4, 7]",0.0,1.0,0.2293379306793213,1.8495769500732422,0.5204039567994572,7.0,73.0,0.0
R,U,"[3, 7]",-2.0,1.0,2.0338048934936523,3.66640305519104,0.6035169306138868,7.0,74.0,0.0
R,U,"[2, 7]",-2.0,1.0,1.5241539478302002,3.138573169708252,0.5754111656527608,7.0,75.0,0.0
Y,R,"[2, 8]",0.0,1.0,0.2280738353729248,1.9580190181732178,0.6335141885816787,7.0,76.0,0.0
R,U,"[1, 8]",0.0,1.0,0.20340895652770996,1.7312438488006592,0.4315891261185683,7.0,77.0,0.0
R,U,"[2, 8]",-3.0,1.0,0.21726298332214355,1.6540420055389404,0.33566123257538977,7.0,78.0,0.0
R,U,"[1, 8]",0.0,1.0,0.2363438606262207,1.94380521774292,0.6127348351467532,7.0,79.0,0.0
R,U,"[2, 8]",-3.0,1.0,0.22257614135742188,1.904684066772461,0.5675938155879191,7.0,80.0,0.0
,,"(6, 6)",,,,,,,,
R,U,"[5, 6]",1.0,1.0,0.7788681983947754,3.5407609939575195,0.29180200713516763,8.0,81.0,0.0
Y,R,"[5, 7]",1.0,2.0,0.19724297523498535,2.0402328968048096,0.7483452075239909,8.0,82.0,0.0
G,D,"[6, 7]",0.0,2.0,0.49633288383483887,1.9305639266967773,0.32931693230391607,8.0,83.0,0.0
G,D,"[7, 7]",-2.0,2.0,1.0288429260253906,2.711905002593994,0.6573999783108027,8.0,84.0,0.0
R,U,"[6, 7]",0.0,2.0,0.5933859348297119,2.294167995452881,0.601464077260566,8.0,85.0,0.0
R,U,"[5, 7]",0.0,2.0,0.22124099731445312,1.632659912109375,0.30116682712364123,8.0,86.0,0.0
R,U,"[4, 7]",0.0,2.0,0.26783299446105957,1.7897729873657227,0.4241800907929357,8.0,87.0,0.0
R,U,"[3, 7]",0.0,2.0,0.21465516090393066,1.894637107849121,0.5852793370290078,8.0,88.0,0.0
R,U,"[2, 7]",0.0,2.0,0.22173619270324707,1.7971560955047607,0.4825094560775036,8.0,89.0,0.0
R,U,"[1, 7]",0.0,2.0,0.2029249668121338,1.6357481479644775,0.3350697037775689,8.0,90.0,0.0
,,"(6, 6)",,,,,,,,
R,U,"[5, 6]",1.0,1.0,0.5218770503997803,3.767975091934204,0.6361647990208377,9.0,91.0,0.0
Y,R,"[5, 7]",1.0,2.0,0.29117894172668457,2.048598051071167,0.6512394970056665,9.0,92.0,0.0
G,D,"[6, 7]",0.0,2.0,0.6270391941070557,2.145616054534912,0.4139738703445421,9.0,93.0,0.0
G,D,"[7, 7]",0.0,2.0,0.7221200466156006,2.477113962173462,0.640596244251933,9.0,94.0,0.0
R,U,"[6, 7]",0.0,2.0,0.2445540428161621,1.832427978515625,0.49007301860391633,9.0,95.0,0.0
Y,R,"[6, 8]",-2.0,2.0,1.2214019298553467,2.6346888542175293,0.3915366477259723,9.0,96.0,0.0
B,L,"[6, 7]",0.0,2.0,0.1759510040283203,1.7448430061340332,0.4696092522162855,9.0,97.0,0.0
B,L,"[6, 6]",0.0,2.0,0.3870210647583008,1.7851550579071045,0.30484984564497697,9.0,98.0,0.0
B,L,"[6, 5]",0.0,2.0,0.27735185623168945,1.8371968269348145,0.4586697763930378,9.0,99.0,0.0
B,L,"[6, 4]",0.0,2.0,0.326462984085083,1.7912609577178955,0.3665563324575418,9.0,100.0,0.0
,,"(6, 6)",,,,,,,,
R,U,"[5, 6]",1.0,1.0,0.6056869029998779,3.5025291442871094,0.40245030648388264,10.0,101.0,0.0
Y,R,"[5, 7]",1.0,2.0,0.33864498138427734,1.768362045288086,0.3204492522600606,10.0,102.0,0.0
B,L,"[5, 6]",0.0,2.0,0.942101001739502,2.3290348052978516,0.2834350275682704,10.0,103.0,0.0
B,L,"[5, 5]",0.0,2.0,0.467742919921875,2.018793821334839,0.45192027058544754,10.0,104.0,0.0
R,U,"[4, 5]",0.0,2.0,0.5952329635620117,2.1781320571899414,0.4802280055747151,10.0,105.0,0.0
R,U,"[3, 5]",0.0,2.0,0.41785192489624023,1.8204140663146973,0.3007227072243106,10.0,106.0,0.0
R,U,"[2, 5]",0.0,2.0,0.19943714141845703,1.7157940864562988,0.4163915789609279,10.0,107.0,0.0
R,U,"[1, 5]",0.0,2.0,0.20070695877075195,1.768665075302124,0.46817525475430266,10.0,108.0,0.0
R,U,"[2, 5]",-1.0,2.0,0.01912093162536621,5.699187994003296,0.5508404861809674,10.0,109.0,0.0
R,U,"[1, 5]",-1.0,2.0,0.03908801078796387,5.607364892959595,0.44181881859333105,10.0,110.0,0.0
,,"(6, 6)",,,,,,,,
R,U,"[5, 6]",1.0,1.0,0.8701999187469482,3.661937952041626,0.4700569746923629,11.0,111.0,0.0
Y,R,"[5, 7]",1.0,2.0,0.23891997337341309,1.9408650398254395,0.5945247276534877,11.0,112.0,0.0
B,L,"[5, 6]",0.0,2.0,0.4625389575958252,2.1398608684539795,0.5843672662011705,11.0,113.0,0.0
B,L,"[5, 5]",0.0,2.0,0.3272709846496582,1.9565529823303223,0.5242911328644401,11.0,114.0,0.0
Y,R,"[5, 6]",0.0,2.0,0.2297201156616211,1.745258092880249,0.4198679171032205,11.0,115.0,0.0
Y,R,"[5, 7]",0.0,2.0,0.21987009048461914,2.032503128051758,0.7186382421006458,11.0,116.0,0.0
Y,R,"[5, 8]",1.0,3.0,0.15943312644958496,1.7660489082336426,0.5017462391244226,11.0,117.0,0.0
Y,R,"[5, 9]",-2.0,3.0,1.0329580307006836,2.4958958625793457,0.4311027601541511,11.0,118.0,0.0
Y,R,"[5, 10]",1.0,4.0,0.4949769973754883,1.9812750816345215,0.3789870205484346,11.0,119.0,0.0
Y,R,"[5, 11]",0.0,4.0,0.34924817085266113,1.937978982925415,0.5003185423777072,11.0,120.0,0.0
,,"(6, 6)",,,,,,,,
R,U,"[5, 6]",1.0,1.0,0.6278419494628906,3.4376800060272217,0.3382404424894005,12.0,121.0,0.0
Y,R,"[5, 7]",1.0,2.0,0.39131808280944824,2.083972930908203,0.5887207603854953,12.0,122.0,0.0
Y,R,"[5, 8]",1.0,3.0,0.20798707008361816,1.607659101486206,0.29662578860303285,12.0,123.0,0.0
Y,R,"[5, 9]",0.0,3.0,0.24762701988220215,1.919896125793457,0.5665498642978968,12.0,124.0,0.0
B,L,"[5, 8]",0.0,3.0,0.48670387268066406,2.0899860858917236,0.5063903626232611,12.0,125.0,0.0
Y,R,"[5, 9]",0.0,3.0,0.20759201049804688,1.7844560146331787,0.47418690966850563,12.0,126.0,0.0
Y,R,"[5, 10]",1.0,4.0,0.2160789966583252,1.9662749767303467,0.6570500540581927,12.0,127.0,0.0
Y,R,"[5, 11]",0.0,4.0,0.3316349983215332,1.740839958190918,0.3151278031280207,12.0,128.0,0.0
Y,R,"[5, 10]",-3.0,4.0,0.3457930088043213,1.795274019241333,0.3436139044460553,12.0,129.0,0.0
G,D,"[6, 10]",1.0,5.0,0.6612370014190674,2.412182092666626,0.6554970833277654,12.0,130.0,0.0
,,"(6, 6)",,,,,,,,
R,U,"[5, 6]",1.0,1.0,0.5740571022033691,3.7626841068267822,0.6183606990447237,13.0,131.0,0.0
Y,R,"[5, 7]",1.0,2.0,0.3125321865081787,1.6807241439819336,0.2661215356647123,13.0,132.0,0.0
Y,R,"[5, 8]",1.0,3.0,0.724003791809082,2.2673020362854004,0.4333139398195066,13.0,133.0,0.0
Y,R,"[5, 9]",0.0,3.0,0.35036516189575195,2.0261940956115723,0.5760218848152625,13.0,134.0,0.0
R,U,"[4, 9]",1.0,4.0,0.6878259181976318,2.2798750400543213,0.4893905697666979,13.0,135.0,0.0
B,L,"[4, 8]",0.0,4.0,0.5125079154968262,2.011137008666992,0.40071313053453056,13.0,136.0,0.0
G,D,"[5, 8]",0.0,4.0,0.4443540573120117,1.9271650314331055,0.37808989881159566,13.0,137.0,0.0
R,U,"[4, 8]",0.0,4.0,0.43131494522094727,1.8981618881225586,0.37622832571776216,13.0,138.0,0.0
Y,R,"[4, 9]",0.0,4.0,0.27637791633605957,1.778681993484497,0.40487068913076063,13.0,139.0,0.0
Y,R,"[4, 10]",1.0,5.0,0.23456692695617676,1.6473898887634277,0.3190855395454158,13.0,140.0,0.0
,,"(6, 6)",,,,,,,,
R,U,"[5, 6]",1.0,1.0,0.8016459941864014,4.918843030929565,0.5544691356206728,14.0,141.0,0.0
Y,R,"[5, 7]",1.0,2.0,0.2749660015106201,2.034369945526123,0.6554247888059177,14.0,142.0,0.0
Y,R,"[5, 8]",1.0,3.0,0.39333200454711914,2.214571952819824,0.7198291682943311,14.0,143.0,0.0
G,D,"[6, 8]",1.0,4.0,0.24342918395996094,2.080408811569214,0.7338302387976087,14.0,144.0,0.0
B,L,"[6, 7]",0.0,4.0,0.36247801780700684,1.826301097869873,0.3604930322696712,14.0,145.0,0.0
Y,R,"[6, 8]",0.0,4.0,0.4978640079498291,2.2179698944091797,0.6282521370230825,14.0,146.0,0.0
Y,R,"[6, 9]",1.0,5.0,0.2574620246887207,1.8623099327087402,0.5073918716242916,14.0,147.0,0.0
Y,R,"[6, 10]",1.0,6.0,0.24679112434387207,1.9227428436279297,0.5801982433583843,14.0,148.0,0.0
R,U,"[5, 10]",1.0,7.0,0.43240785598754883,2.0735340118408203,0.5371061030167359,14.0,149.0,0.0
Y,R,"[5, 11]",0.0,7.0,0.49960994720458984,1.8655009269714355,0.26942543834259763,14.0,150.0,0.0
,,"(6, 6)",,,,,,,,
R,U,"[5, 6]",-2.0,0.0,1.130476951599121,5.779281854629517,0.44885373604757517,15.0,151.0,0.0
R,U,"[4, 6]",0.0,0.0,0.9090409278869629,2.279749870300293,0.2623138053835849,15.0,152.0,0.0
Y,R,"[4, 7]",0.0,0.0,0.69746994972229,2.406658887863159,0.6184885409060294,15.0,153.0,0.0
B,L,"[4, 6]",-2.0,0.0,1.8888988494873047,3.2285568714141846,0.2976105548347982,15.0,154.0,0.0
B,L,"[4, 5]",0.0,0.0,0.22069191932678223,1.6970009803771973,0.3778822628602132,15.0,155.0,0.0
G,D,"[5, 5]",0.0,0.0,0.5763421058654785,1.9329230785369873,0.26091889460278994,15.0,156.0,0.0
Y,R,"[5, 6]",0.0,0.0,0.26920604705810547,2.0390028953552246,0.6834143153923675,15.0,157.0,0.0
Y,R,"[5, 7]",1.0,1.0,0.24708795547485352,2.044658899307251,0.6942612927938592,15.0,158.0,0.0
Y,R,"[5, 8]",1.0,2.0,0.3088810443878174,2.0108020305633545,0.6051966070196904,15.0,159.0,0.0
Y,R,"[5, 9]",0.0,2.0,0.24629712104797363,1.7743589878082275,0.42985044681284945,15.0,160.0,0.0
,,"(6, 6)",,,,,,,,
R,U,"[5, 6]",1.0,1.0,0.5812489986419678,3.3419458866119385,0.5886518019319399,16.0,161.0,0.0
Y,R,"[5, 7]",1.0,2.0,0.25291895866394043,2.0061662197113037,0.6611732854706537,16.0,162.0,0.0
R,U,"[4, 7]",0.0,2.0,0.3057839870452881,1.9019420146942139,0.49665608384129817,16.0,163.0,0.0
Y,R,"[4, 8]",0.0,2.0,0.3353590965270996,1.7785930633544922,0.34210845665424744,16.0,164.0,0.0
B,L,"[4, 7]",0.0,2.0,0.6435799598693848,2.2585108280181885,0.5171896674795615,16.0,165.0,0.0
G,D,"[5, 7]",0.0,2.0,0.19300293922424316,1.6242458820343018,0.3251090145847787,16.0,166.0,0.0
R,U,"[4, 7]",0.0,2.0,0.2945230007171631,2.0592548847198486,0.6673084812804595,16.0,167.0,0.0
Y,R,"[4, 8]",-1.0,2.0,0.08874106407165527,5.518158197402954,0.302786475966593,16.0,168.0,0.0
Y,R,"[4, 9]",1.0,3.0,0.2563908100128174,2.025944948196411,0.6616367920330938,16.0,169.0,0.0
G,D,"[5, 9]",0.0,3.0,0.750709056854248,2.418604850769043,0.5803988820992267,16.0,170.0,0.0
,,"(6, 6)",,,,,,,,
R,U,"[5, 6]",1.0,1.0,0.7557339668273926,3.319769859313965,0.5667824029534039,17.0,171.0,0.0
Y,R,"[5, 7]",1.0,2.0,0.327800989151001,2.133286952972412,0.7002202244090205,17.0,172.0,0.0
Y,R,"[5, 8]",1.0,3.0,0.24147295951843262,2.074363946914673,0.7245685298660492,17.0,173.0,0.0
R,U,"[4, 8]",0.0,3.0,0.236860990524292,1.767090082168579,0.4420320542162421,17.0,174.0,0.0
G,D,"[5, 8]",0.0,3.0,0.8152828216552734,2.349950075149536,0.4420225137812268,17.0,175.0,0.0
Y,R,"[5, 9]",0.0,3.0,0.6744179725646973,2.0459330081939697,0.27157632817846,17.0,176.0,0.0
Y,R,"[5, 10]",1.0,4.0,0.2759060859680176,1.8647408485412598,0.48623877486509065,17.0,177.0,0.0
Y,R,"[5, 11]",0.0,4.0,0.571984052658081,2.232499122619629,0.5519829280789456,17.0,178.0,0.0
Y,R,"[5, 10]",-3.0,4.0,0.2076740264892578,1.6714990139007568,0.3570728162661623,17.0,179.0,0.0
Y,R,"[5, 11]",0.0,4.0,0.5110721588134766,1.9665141105651855,0.3569663899706123,17.0,180.0,0.0
,,"(6, 6)",,,,,,,,
R,U,"[5, 6]",-2.0,0.0,2.132308006286621,5.000915050506592,0.37482270866875644,18.0,181.0,0.0
Y,R,"[5, 7]",1.0,1.0,0.21087408065795898,1.728234052658081,0.41949343512480325,18.0,182.0,0.0
Y,R,"[5, 8]",1.0,2.0,0.5636999607086182,2.104962110519409,0.44126963090129756,18.0,183.0,0.0
G,D,"[6, 8]",1.0,3.0,0.3905181884765625,1.7860040664672852,0.2939552960360121,18.0,184.0,0.0
B,L,"[6, 7]",0.0,3.0,0.7451469898223877,2.570435047149658,0.7308412433562432,18.0,185.0,0.0
Y,R,"[6, 8]",0.0,3.0,0.38288402557373047,2.0368690490722656,0.5512357562825465,18.0,186.0,0.0
Y,R,"[6, 9]",1.0,4.0,0.32882189750671387,2.179744005203247,0.7476581405890642,18.0,187.0,0.0
Y,R,"[6, 10]",1.0,5.0,0.5183908939361572,2.0209648609161377,0.40238287201802625,18.0,188.0,0.0
R,U,"[5, 10]",1.0,6.0,0.2669639587402344,1.766953945159912,0.402657913229272,18.0,189.0,0.0
B,L,"[5, 9]",-2.0,6.0,1.3172528743743896,2.8341658115386963,0.48673756021176723,18.0,190.0,0.0
,,"(6, 6)",,,,,,,,
R,U,"[5, 6]",1.0,1.0,0.8521630764007568,3.6543619632720947,0.3747517135713406,19.0,191.0,0.0
Y,R,"[5, 7]",1.0,2.0,0.23697519302368164,1.9682831764221191,0.6426371886015011,19.0,192.0,0.0
Y,R,"[5, 8]",1.0,3.0,0.2584068775177002,1.6216199398040771,0.26475494122238086,19.0,193.0,0.0
B,L,"[5, 7]",0.0,3.0,0.7550020217895508,2.2389419078826904,0.3868065376859407,19.0,194.0,0.0
B,L,"[5, 6]",0.0,3.0,0.9618020057678223,2.3525490760803223,0.28946216424582727,19.0,195.0,0.0
Y,R,"[5, 7]",0.0,3.0,0.2909870147705078,1.8990070819854736,0.5048396677026981,19.0,196.0,0.0
Y,R,"[5, 8]",0.0,3.0,0.23819684982299805,1.9208130836486816,0.5755881411759394,19.0,197.0,0.0
Y,R,"[5, 9]",0.0,3.0,0.22641992568969727,2.016028881072998,0.6914903082928825,19.0,198.0,0.0
Y,R,"[5, 10]",1.0,4.0,0.21300697326660156,1.8675508499145508,0.5592769876250401,19.0,199.0,0.0
Y,R,"[5, 11]",0.0,4.0,0.2543208599090576,1.7542948722839355,0.3969584636178929,19.0,200.0,0.0
,,"(6, 6)",,,,,,,,
R,U,"[5, 6]",-2.0,0.0,1.1972110271453857,4.4213550090789795,0.40181439593823226,20.0,201.0,0.0
Y,R,"[5, 7]",1.0,1.0,0.25220394134521484,2.086833953857422,0.7381821973128102,20.0,202.0,0.0
Y,R,"[5, 8]",1.0,2.0,0.21683716773986816,1.7690510749816895,0.4574188242579897,20.0,203.0,0.0
G,D,"[6, 8]",1.0,3.0,0.35434508323669434,1.9475009441375732,0.48830819410266024,20.0,204.0,0.0
Y,R,"[6, 9]",1.0,4.0,0.22448205947875977,1.594444990158081,0.26627125065413415,20.0,205.0,0.0
Y,R,"[6, 10]",1.0,5.0,0.23741507530212402,2.0808041095733643,0.7465160239804782,20.0,206.0,0.0
R,U,"[5, 10]",1.0,6.0,0.24125099182128906,1.7617390155792236,0.4087767797887333,20.0,207.0,0.0
B,L,"[5, 9]",0.0,6.0,0.9401710033416748,2.3136208057403564,0.27249909259922944,20.0,208.0,0.0
Y,R,"[5, 10]",0.0,6.0,0.3067660331726074,1.6887199878692627,0.2777492355033705,20.0,209.0,0.0
Y,R,"[5, 11]",0.0,6.0,0.3553040027618408,1.8814880847930908,0.42596006868759656,20.0,210.0,0.0
,,"(6, 6)",,,,,,,,
R,U,"[5, 6]",1.0,1.0,0.6201040744781494,3.263244152069092,0.5058004610877128,21.0,211.0,0.0
Y,R,"[5, 7]",1.0,2.0,0.27744412422180176,1.768805980682373,0.39124391390594443,21.0,212.0,0.0
Y,R,"[5, 8]",1.0,3.0,0.2497110366821289,1.7191967964172363,0.37726575951802566,21.0,213.0,0.0
G,D,"[6, 8]",1.0,4.0,0.48413991928100586,2.1652109622955322,0.5921179939694278,21.0,214.0,0.0
B,L,"[6, 7]",0.0,4.0,0.21364498138427734,2.0377309322357178,0.7297803828039837,21.0,215.0,0.0
Y,R,"[6, 8]",0.0,4.0,0.18970394134521484,1.9813578128814697,0.6779132635073075,21.0,216.0,0.0
Y,R,"[6, 9]",1.0,5.0,0.2051219940185547,1.6955478191375732,0.40708182347857147,21.0,217.0,0.0
Y,R,"[6, 10]",1.0,6.0,0.2800619602203369,1.642214059829712,0.26608371221209726,21.0,218.0,0.0
G,D,"[7, 10]",0.0,6.0,0.24310588836669922,1.8757851123809814,0.5249661140311883,21.0,219.0,0.0
Y,R,"[7, 11]",0.0,6.0,0.19671201705932617,1.8882460594177246,0.5963536564877874,21.0,220.0,0.0
,,"(6, 6)",,,,,,,,
G,D,"[7, 6]",-2.0,0.0,1.1828668117523193,4.599073171615601,0.5290029800937683,22.0,221.0,0.0
R,U,"[6, 6]",0.0,0.0,0.21975398063659668,1.5587539672851562,0.25456746360307575,22.0,222.0,0.0
B,L,"[6, 5]",0.0,0.0,0.9968249797821045,2.625119924545288,0.5295758964436003,22.0,223.0,0.0
Y,R,"[6, 6]",0.0,0.0,0.15351295471191406,1.6978371143341064,0.44409119640384975,22.0,224.0,0.0
R,U,"[5, 6]",1.0,1.0,0.1792891025543213,1.8286020755767822,0.5559469220796391,22.0,225.0,0.0
Y,R,"[5, 7]",-1.0,1.0,0.04732489585876465,5.781821012496948,0.6043781104478746,22.0,226.0,0.0
Y,R,"[5, 8]",-1.0,1.0,0.06026816368103027,5.582411050796509,0.4035858742134433,22.0,227.0,0.0
Y,R,"[5, 9]",0.0,1.0,0.25242018699645996,1.7001349925994873,0.35401823792337406,22.0,228.0,0.0
Y,R,"[5, 10]",1.0,2.0,0.42940497398376465,1.9693498611450195,0.43997855479131387,22.0,229.0,0.0
Y,R,"[5, 11]",0.0,2.0,0.3962991237640381,2.1546318531036377,0.661014268525496,22.0,230.0,0.0
,,"(6, 6)",,,,,,,,
R,U,"[5, 6]",-2.0,0.0,1.1543140411376953,5.242095947265625,0.4369543526251464,23.0,231.0,0.0
Y,R,"[5, 7]",1.0,1.0,0.21246004104614258,2.0507240295410156,0.737286572146662,23.0,232.0,0.0
Y,R,"[5, 8]",-1.0,1.0,0.03366804122924805,5.729291915893555,0.5666898268360987,23.0,233.0,0.0
G,D,"[6, 8]",1.0,2.0,0.3042769432067871,2.1260881423950195,0.7259385684684003,23.0,234.0,0.0
Y,R,"[6, 9]",1.0,3.0,0.23072218894958496,2.0204200744628906,0.6963922977858339,23.0,235.0,0.0
Y,R,"[6, 10]",1.0,4.0,0.25829291343688965,1.6311020851135254,0.261290588490233,23.0,236.0,0.0
R,U,"[5, 10]",1.0,5.0,0.2879657745361328,2.000281810760498,0.6279137961712521,23.0,237.0,0.0
G,D,"[6, 10]",0.0,5.0,0.4299437999725342,2.1410160064697266,0.6189013651573918,23.0,238.0,0.0
Y,R,"[6, 11]",0.0,5.0,0.27798914909362793,2.1023519039154053,0.7212270714063443,23.0,239.0,0.0
Y,R,"[6, 10]",-3.0,5.0,0.2242751121520996,1.754317045211792,0.4258664890102464,23.0,240.0,0.0
,,"(6, 6)",,,,,,,,
R,U,"[5, 6]",1.0,1.0,0.49892592430114746,4.790476083755493,0.44997051926659465,24.0,241.0,0.0
Y,R,"[5, 7]",1.0,2.0,0.30652785301208496,2.082357883453369,0.6819156180783641,24.0,242.0,0.0
Y,R,"[5, 8]",1.0,3.0,0.23790597915649414,1.9009499549865723,0.5497310036939526,24.0,243.0,0.0
Y,R,"[5, 9]",0.0,3.0,0.48902201652526855,1.9848828315734863,0.3848023817411113,24.0,244.0,0.0
G,D,"[6, 9]",1.0,4.0,0.2129960060119629,1.6972568035125732,0.3821149111969576,24.0,245.0,0.0
Y,R,"[6, 10]",1.0,5.0,0.6388800144195557,2.408076047897339,0.6732672352060953,24.0,246.0,0.0
R,U,"[5, 10]",1.0,6.0,0.31368207931518555,1.8913547992706299,0.4815249178557028,24.0,247.0,0.0
Y,R,"[5, 11]",0.0,6.0,0.24182796478271484,2.0877389907836914,0.7361328297521312,24.0,248.0,0.0
R,U,"[4, 11]",0.0,6.0,0.47273683547973633,1.9305100440979004,0.3497846303309981,24.0,249.0,0.0
Y,R,"[5, 11]",-3.0,6.0,0.24940800666809082,1.8413081169128418,0.4910406110463623,24.0,250.0,0.0
,,"(6, 6)",,,,,,,,
R,U,"[5, 6]",1.0,1.0,0.7506871223449707,4.628205060958862,0.5859389300116408,25.0,251.0,0.0
Y,R,"[5, 7]",1.0,2.0,0.30817103385925293,1.705693006515503,0.29201609309173243,25.0,252.0,0.0
Y,R,"[5, 8]",1.0,3.0,0.3050529956817627,1.8027238845825195,0.41124505920467697,25.0,253.0,0.0
G,D,"[6, 8]",1.0,4.0,0.28928303718566895,2.005647897720337,0.616785758920702,25.0,254.0,0.0
R,U,"[5, 8]",0.0,4.0,0.14554405212402344,1.9672930240631104,0.717270922624972,25.0,255.0,0.0
Y,R,"[5, 9]",0.0,4.0,0.49498701095581055,1.872575044631958,0.2738194200134678,25.0,256.0,0.0
Y,R,"[5, 10]",1.0,5.0,0.5375759601593018,2.112274169921875,0.48584143646795397,25.0,257.0,0.0
Y,R,"[5, 11]",0.0,5.0,0.7200660705566406,2.5543999671936035,0.7399334075954788,25.0,258.0,0.0
Y,R,"[5, 10]",-3.0,5.0,0.27363085746765137,1.7207670211791992,0.36110394790568384,25.0,259.0,0.0
R,U,"[4, 10]",1.0,6.0,0.34709906578063965,1.7540290355682373,0.31530618569891256,25.0,260.0,0.0
,,"(6, 6)",,,,,,,,
R,U,"[5, 6]",1.0,1.0,0.5954728126525879,3.5333330631256104,0.5651319091354725,26.0,261.0,0.0
Y,R,"[5, 7]",1.0,2.0,0.3013420104980469,2.0680439472198486,0.6664330774298857,26.0,262.0,0.0
Y,R,"[5, 8]",1.0,3.0,0.352708101272583,1.8390638828277588,0.3891506888721535,26.0,263.0,0.0
B,L,"[5, 7]",0.0,3.0,0.20540785789489746,1.9976298809051514,0.6863996835203274,26.0,264.0,0.0
G,D,"[6, 7]",0.0,3.0,0.33149099349975586,1.988407850265503,0.558465416151471,26.0,265.0,0.0
Y,R,"[6, 8]",1.0,4.0,0.45421791076660156,2.253571033477783,0.7117789587662584,26.0,266.0,0.0
Y,R,"[6, 9]",1.0,5.0,0.2905700206756592,1.9133899211883545,0.5255007862734016,26.0,267.0,0.0
R,U,"[5, 9]",0.0,5.0,0.3366999626159668,1.6751530170440674,0.2509823630003398,26.0,268.0,0.0
Y,R,"[5, 10]",1.0,6.0,0.2926461696624756,1.7302970886230469,0.33111557120347934,26.0,269.0,0.0
R,U,"[4, 10]",-2.0,6.0,1.376162052154541,2.803056001663208,0.38419984834813575,26.0,270.0,0.0
,,"(6, 6)",,,,,,,,
R,U,"[5, 6]",-2.0,0.0,1.0082390308380127,3.7140557765960693,0.7480814166217704,27.0,271.0,0.0
Y,R,"[5, 7]",1.0,1.0,0.19970917701721191,1.665766954421997,0.3640752535466907,27.0,272.0,0.0
Y,R,"[5, 8]",1.0,2.0,0.22310495376586914,1.7889800071716309,0.4532046355775648,27.0,273.0,0.0
Y,R,"[5, 9]",0.0,2.0,0.20880699157714844,1.7109239101409912,0.3974785795803682,27.0,274.0,0.0
G,D,"[6, 9]",1.0,3.0,0.4943718910217285,2.0969009399414062,0.4940886790853702,27.0,275.0,0.0
Y,R,"[6, 10]",1.0,4.0,0.29183006286621094,1.732928991317749,0.3441075412853553,27.0,276.0,0.0
R,U,"[5, 10]",1.0,5.0,0.5396599769592285,2.2710139751434326,0.6313953925689966,27.0,277.0,0.0
Y,R,"[5, 11]",0.0,5.0,0.3214378356933594,1.9921691417694092,0.5571697026379542,27.0,278.0,0.0
Y,R,"[5, 10]",-3.0,5.0,0.20908308029174805,1.9925150871276855,0.6828656046386399,27.0,279.0,0.0
R,U,"[4, 10]",1.0,6.0,0.21220993995666504,1.8209891319274902,0.5039780383972132,27.0,280.0,0.0
,,"(6, 6)",,,,,,,,
R,U,"[5, 6]",1.0,1.0,0.7508590221405029,3.2317121028900146,0.5355572060147761,28.0,281.0,0.0
Y,R,"[5, 7]",1.0,2.0,0.2553868293762207,1.9319500923156738,0.5677385262198096,28.0,282.0,0.0
Y,R,"[5, 8]",1.0,3.0,0.2921111583709717,1.7687668800354004,0.3701141648535942,28.0,283.0,0.0
G,D,"[6, 8]",1.0,4.0,0.42337584495544434,1.9783060550689697,0.4484550021894186,28.0,284.0,0.0
R,U,"[5, 8]",0.0,4.0,0.23883819580078125,1.6697537899017334,0.3349461465021278,28.0,285.0,0.0
Y,R,"[5, 9]",0.0,4.0,0.6496100425720215,2.3570549488067627,0.6085230588420663,28.0,286.0,0.0
Y,R,"[5, 10]",1.0,5.0,0.24368596076965332,1.9910202026367188,0.6495378282268736,28.0,287.0,0.0
Y,R,"[5, 11]",0.0,5.0,0.28193211555480957,1.8163809776306152,0.43273615611146915,28.0,288.0,0.0
G,D,"[6, 11]",0.0,5.0,0.21408700942993164,1.8167040348052979,0.49944021567936336,28.0,289.0,0.0
R,U,"[5, 11]",0.0,5.0,0.20166015625,1.6496338844299316,0.3493733457752112,28.0,290.0,0.0
,,"(6, 6)",,,,,,,,
Y,R,"[6, 7]",0.0,0.0,0.7782070636749268,4.255924940109253,0.3219121265140187,29.0,291.0,0.0
Y,R,"[6, 8]",1.0,1.0,0.21877288818359375,1.6568751335144043,0.34554982269733114,29.0,292.0,0.0
Y,R,"[6, 9]",1.0,2.0,0.2689499855041504,1.8514330387115479,0.49697134227476353,29.0,293.0,0.0
Y,R,"[6, 10]",1.0,3.0,0.22826004028320312,1.886707067489624,0.5503393065682548,29.0,294.0,0.0
Y,R,"[6, 11]",0.0,3.0,0.36538195610046387,2.1295108795166016,0.6629752056726865,29.0,295.0,0.0
Y,R,"[6, 10]",-3.0,3.0,0.22450900077819824,1.7441341876983643,0.4072171369707765,29.0,296.0,0.0
Y,R,"[6, 11]",0.0,3.0,0.21941900253295898,2.041111946105957,0.7316012355653316,29.0,297.0,0.0
Y,R,"[6, 10]",-1.0,3.0,0.04972100257873535,5.879849910736084,0.6948692095377828,29.0,298.0,0.0
Y,R,"[6, 11]",0.0,3.0,0.2501211166381836,2.006169080734253,0.6678735966646048,29.0,299.0,0.0
Y,R,"[6, 10]",-3.0,3.0,0.22371482849121094,1.837702989578247,0.5058616108979304,29.0,300.0,0.0
,,"(6, 6)",,,,,,,,
R,U,"[5, 6]",-2.0,0.0,1.1762409210205078,4.198365926742554,0.6873207489232436,30.0,301.0,0.0
Y,R,"[5, 7]",1.0,1.0,0.28075504302978516,2.10378098487854,0.7244608269752657,30.0,302.0,0.0
Y,R,"[5, 8]",1.0,2.0,0.1392979621887207,1.874859094619751,0.6328226858813573,30.0,303.0,0.0
G,D,"[6, 8]",1.0,3.0,0.21084213256835938,1.602973222732544,0.2861658468135625,30.0,304.0,0.0
B,L,"[6, 7]",0.0,3.0,0.2532930374145508,1.6098549365997314,0.2627606430578911,30.0,305.0,0.0
R,U,"[5, 7]",0.0,3.0,0.5396440029144287,2.2976160049438477,0.6434208734374729,30.0,306.0,0.0
Y,R,"[5, 8]",0.0,3.0,0.24419593811035156,1.8260529041290283,0.4863469673973682,30.0,307.0,0.0
Y,R,"[5, 9]",0.0,3.0,0.21691417694091797,1.9227190017700195,0.6090231864311824,30.0,308.0,0.0
Y,R,"[5, 10]",1.0,4.0,0.20527195930480957,1.7937231063842773,0.4861821063092352,30.0,309.0,0.0
Y,R,"[5, 11]",0.0,4.0,0.25937795639038086,1.9909911155700684,0.6269598866500128,30.0,310.0,0.0
,,"(6, 6)",,,,,,,,
R,U,"[5, 6]",1.0,1.0,0.8117790222167969,3.150726079940796,0.6112498656126419,31.0,311.0,0.0
Y,R,"[5, 7]",1.0,2.0,0.24717497825622559,1.6981890201568604,0.35979087615873373,31.0,312.0,0.0
Y,R,"[5, 8]",1.0,3.0,0.36728501319885254,2.0219790935516357,0.5647135714213798,31.0,313.0,0.0
G,D,"[6, 8]",1.0,4.0,0.1961040496826172,2.0250730514526367,0.7231083750166339,31.0,314.0,0.0
R,U,"[5, 8]",0.0,4.0,0.21645188331604004,1.8008768558502197,0.491034182027488,31.0,315.0,0.0
Y,R,"[5, 9]",0.0,4.0,0.2820591926574707,1.724586009979248,0.3487866856195991,31.0,316.0,0.0
Y,R,"[5, 10]",1.0,5.0,0.26523613929748535,1.9565041065216064,0.5887628924977658,31.0,317.0,0.0
Y,R,"[5, 11]",0.0,5.0,0.2203350067138672,1.5873000621795654,0.27648044274735256,31.0,318.0,0.0
R,U,"[4, 11]",0.0,5.0,0.2560758590698242,1.9718890190124512,0.6145580256570015,31.0,319.0,0.0
Y,R,"[5, 11]",-3.0,5.0,0.20271992683410645,1.8679308891296387,0.5659671101934578,31.0,320.0,0.0
,,"(6, 6)",,,,,,,,
R,U,"[5, 6]",1.0,1.0,0.7235081195831299,3.765770196914673,0.5985435164976345,32.0,321.0,0.0
Y,R,"[5, 7]",1.0,2.0,0.2586650848388672,1.8353090286254883,0.46726541669828153,32.0,322.0,0.0
Y,R,"[5, 8]",1.0,3.0,0.23145699501037598,1.6285080909729004,0.2959767503265796,32.0,323.0,0.0
G,D,"[6, 8]",1.0,4.0,0.27401208877563477,1.7274720668792725,0.32364283610955885,32.0,324.0,0.0
Y,R,"[6, 9]",-1.0,4.0,0.08687901496887207,5.726218938827515,0.5163510933448077,32.0,325.0,0.0
Y,R,"[6, 10]",1.0,5.0,0.379364013671875,1.833357810974121,0.34988319608262064,32.0,326.0,0.0
Y,R,"[6, 11]",0.0,5.0,0.29204297065734863,1.6791789531707764,0.2792774872600649,32.0,327.0,0.0
R,U,"[5, 11]",0.0,5.0,0.23236799240112305,1.5846359729766846,0.26389758892620885,32.0,328.0,0.0
B,L,"[5, 10]",1.0,6.0,0.299346923828125,1.865997076034546,0.46310014251564435,32.0,329.0,0.0
Y,R,"[5, 11]",0.0,6.0,0.28777503967285156,1.6782209873199463,0.27484422260849756,32.0,330.0,0.0
,,"(6, 6)",,,,,,,,
R,U,"[5, 6]",1.0,1.0,0.7028849124908447,3.206934928894043,0.34850735680340456,33.0,331.0,0.0
Y,R,"[5, 7]",1.0,2.0,0.2605891227722168,1.8759548664093018,0.5076642145046845,33.0,332.0,0.0
Y,R,"[5, 8]",1.0,3.0,0.23821806907653809,1.7629249095916748,0.437415793551122,33.0,333.0,0.0
G,D,"[6, 8]",1.0,4.0,0.21429181098937988,1.884943962097168,0.5722111446463483,33.0,334.0,0.0
Y,R,"[6, 9]",1.0,5.0,0.20192885398864746,1.9246821403503418,0.6302561612952604,33.0,335.0,0.0
Y,R,"[6, 10]",1.0,6.0,0.21266794204711914,1.9114019870758057,0.5916905459504112,33.0,336.0,0.0
B,L,"[6, 9]",0.0,6.0,0.22499585151672363,1.8285558223724365,0.5037138415087304,33.0,337.0,0.0
G,D,"[7, 9]",0.0,6.0,0.36225080490112305,1.7830078601837158,0.3203286262414474,33.0,338.0,0.0
R,U,"[6, 9]",0.0,6.0,0.40413498878479004,2.1945250034332275,0.68115142415954,33.0,339.0,0.0
R,U,"[5, 9]",0.0,6.0,0.21425604820251465,1.9322350025177002,0.6134607471844006,33.0,340.0,0.0
,,"(6, 6)",,,,,,,,
Y,R,"[6, 7]",0.0,0.0,0.6363890171051025,2.645242929458618,0.34253398289875503,34.0,341.0,0.0
Y,R,"[6, 8]",1.0,1.0,0.5620059967041016,2.3009140491485596,0.6432076691021611,34.0,342.0,0.0
Y,R,"[6, 9]",1.0,2.0,0.19498300552368164,2.013986110687256,0.7236862886520632,34.0,343.0,0.0
G,D,"[7, 9]",0.0,2.0,0.22845697402954102,1.9404220581054688,0.6143971272346002,34.0,344.0,0.0
Y,R,"[7, 10]",-1.0,2.0,0.08862805366516113,5.7696638107299805,0.5342064395497594,34.0,345.0,0.0
Y,R,"[7, 11]",0.0,2.0,0.5837850570678711,2.112839937210083,0.4305424422367301,34.0,346.0,0.0
G,D,"[8, 11]",-2.0,2.0,1.3232190608978271,2.9247148036956787,0.5719509451997249,34.0,347.0,0.0
B,L,"[8, 10]",0.0,2.0,0.23376202583312988,1.9685609340667725,0.6402981620391768,34.0,348.0,0.0
B,L,"[8, 9]",-1.0,2.0,0.06916594505310059,5.619430065155029,0.42690852346504504,34.0,349.0,0.0
Y,R,"[8, 10]",0.0,2.0,0.2389850616455078,1.8619768619537354,0.5388299793234563,34.0,350.0,0.0
,,"(6, 6)",,,,,,,,
R,U,"[5, 6]",1.0,1.0,0.5870978832244873,3.769899845123291,0.5586940734068302,35.0,351.0,0.0
Y,R,"[5, 7]",1.0,2.0,0.39839911460876465,1.7515108585357666,0.26061682541894676,35.0,352.0,0.0
Y,R,"[5, 8]",1.0,3.0,0.41945695877075195,1.9234919548034668,0.41729861681674973,35.0,353.0,0.0
G,D,"[6, 8]",1.0,4.0,0.2583000659942627,1.6453111171722412,0.27956347639164153,35.0,354.0,0.0
Y,R,"[6, 9]",1.0,5.0,0.9952781200408936,2.6710100173950195,0.5669256842524595,35.0,355.0,0.0
Y,R,"[6, 10]",1.0,6.0,0.27979493141174316,1.7708590030670166,0.38798048404238095,35.0,356.0,0.0
B,L,"[6, 9]",0.0,6.0,0.3126368522644043,2.0147671699523926,0.6026896107311903,35.0,357.0,0.0
Y,R,"[6, 10]",-2.0,6.0,1.0666110515594482,2.805655002593994,0.708230134776591,35.0,358.0,0.0
R,U,"[5, 10]",1.0,7.0,0.2027139663696289,1.7231471538543701,0.4318150228544973,35.0,359.0,0.0
B,L,"[5, 9]",0.0,7.0,0.3163771629333496,1.9462690353393555,0.527976651053072,35.0,360.0,0.0
,,"(6, 6)",,,,,,,,
R,U,"[5, 6]",1.0,1.0,0.7075848579406738,2.7269468307495117,0.5716095820613104,36.0,361.0,0.0
Y,R,"[5, 7]",1.0,2.0,0.39981508255004883,1.8610939979553223,0.3662577754005361,36.0,362.0,0.0
Y,R,"[5, 8]",1.0,3.0,0.3945491313934326,2.0806632041931152,0.5800603540608376,36.0,363.0,0.0
G,D,"[6, 8]",1.0,4.0,0.22702693939208984,1.6411080360412598,0.3049624832782714,36.0,364.0,0.0
Y,R,"[6, 9]",1.0,5.0,0.2822589874267578,1.809844970703125,0.431385593470172,36.0,365.0,0.0
Y,R,"[6, 10]",1.0,6.0,0.17716693878173828,1.7274649143218994,0.4421009674657533,36.0,366.0,0.0
R,U,"[5, 10]",1.0,7.0,0.2065877914428711,1.7978110313415527,0.4899037903065638,36.0,367.0,0.0
B,L,"[5, 9]",0.0,7.0,0.39957308769226074,1.844243049621582,0.3511356187048119,36.0,368.0,0.0
B,L,"[5, 8]",0.0,7.0,0.3488919734954834,1.9372382164001465,0.48812484569357173,36.0,369.0,0.0
B,L,"[5, 7]",0.0,7.0,0.21074295043945312,1.8520569801330566,0.5401698427231045,36.0,370.0,0.0
,,"(6, 6)",,,,,,,,
Y,R,"[6, 7]",0.0,0.0,0.6442430019378662,2.861830949783325,0.535595615129204,37.0,371.0,0.0
Y,R,"[6, 8]",1.0,1.0,0.19586491584777832,1.872244119644165,0.5744833552181488,37.0,372.0,0.0
Y,R,"[6, 9]",1.0,2.0,0.16934895515441895,1.5748729705810547,0.31622577510887817,37.0,373.0,0.0
G,D,"[7, 9]",0.0,2.0,0.2062079906463623,1.7086288928985596,0.39150069323090997,37.0,374.0,0.0
B,L,"[7, 8]",0.0,2.0,0.29701995849609375,1.7172558307647705,0.32570452398323757,37.0,375.0,0.0
B,L,"[7, 7]",0.0,2.0,0.20241689682006836,1.8896629810333252,0.598266993068674,37.0,376.0,0.0
B,L,"[7, 6]",0.0,2.0,0.1844620704650879,1.6555521488189697,0.37080456935925254,37.0,377.0,0.0
B,L,"[7, 5]",0.0,2.0,0.21730899810791016,2.020310878753662,0.707597483343194,37.0,378.0,0.0
B,L,"[7, 4]",0.0,2.0,0.17898797988891602,1.5344429016113281,0.25924649747311623,37.0,379.0,0.0
B,L,"[7, 3]",0.0,2.0,0.28267598152160645,1.869732141494751,0.4953475807493311,37.0,380.0,0.0
,,"(6, 6)",,,,,,,,
R,U,"[5, 6]",1.0,1.0,0.8777310848236084,2.7757930755615234,0.3216544760794499,38.0,381.0,0.0
Y,R,"[5, 7]",1.0,2.0,0.30861401557922363,2.0624170303344727,0.6501628935830044,38.0,382.0,0.0
Y,R,"[5, 8]",1.0,3.0,0.23171305656433105,1.7939269542694092,0.4611498925006164,38.0,383.0,0.0
G,D,"[6, 8]",1.0,4.0,0.16800594329833984,1.5398828983306885,0.28453045691067125,38.0,384.0,0.0
Y,R,"[6, 9]",1.0,5.0,0.23195695877075195,1.8818819522857666,0.5494152318283325,38.0,385.0,0.0
Y,R,"[6, 10]",-1.0,5.0,0.055032968521118164,5.767373085021973,0.583569585193962,38.0,386.0,0.0
G,D,"[7, 10]",0.0,5.0,0.24288392066955566,1.9015378952026367,0.5519837101455287,38.0,387.0,0.0
Y,R,"[7, 11]",0.0,5.0,0.5142669677734375,2.20798397064209,0.5932005945019047,38.0,388.0,0.0
R,U,"[6, 11]",0.0,5.0,0.23734498023986816,1.7935969829559326,0.4703320982342762,38.0,389.0,0.0
R,U,"[5, 11]",0.0,5.0,0.500438928604126,2.131586790084839,0.5352181202158697,38.0,390.0,0.0
,,"(6, 6)",,,,,,,,
R,U,"[5, 6]",1.0,1.0,0.8125228881835938,2.9093449115753174,0.5779743561979842,39.0,391.0,0.0
Y,R,"[5, 7]",1.0,2.0,0.2522120475769043,1.9355709552764893,0.5968409067852172,39.0,392.0,0.0
Y,R,"[5, 8]",1.0,3.0,0.24816203117370605,1.7707669734954834,0.4178536617071364,39.0,393.0,0.0
G,D,"[6, 8]",1.0,4.0,0.22187590599060059,1.7709629535675049,0.4388501619734871,39.0,394.0,0.0
Y,R,"[6, 9]",-1.0,4.0,0.053388118743896484,5.511976957321167,0.3344263661194181,39.0,395.0,0.0
Y,R,"[6, 10]",1.0,5.0,0.24244093894958496,1.7419700622558594,0.3931329326657881,39.0,396.0,0.0
B,L,"[6, 9]",0.0,5.0,0.26252198219299316,1.7992489337921143,0.44230965627490765,39.0,397.0,0.0
B,L,"[6, 8]",0.0,5.0,0.1943519115447998,1.6673979759216309,0.3765057968290149,39.0,398.0,0.0
R,U,"[5, 8]",0.0,5.0,0.24477291107177734,1.8501369953155518,0.5098329892773085,39.0,399.0,0.0
R,U,"[4, 8]",0.0,5.0,0.1817948818206787,1.8151578903198242,0.5417780120625497,39.0,400.0,0.0
,,"(6, 6)",,,,,,,,
R,U,"[5, 6]",1.0,1.0,0.56644606590271,2.6553049087524414,0.6802964966809806,40.0,401.0,0.0
Y,R,"[5, 7]",1.0,2.0,0.21456217765808105,1.897848129272461,0.5782688980136585,40.0,402.0,0.0
Y,R,"[5, 8]",1.0,3.0,0.3833467960357666,1.9623491764068604,0.49089450249213473,40.0,403.0,0.0
G,D,"[6, 8]",1.0,4.0,0.25589799880981445,1.6478369235992432,0.28888976803946825,40.0,404.0,0.0
Y,R,"[6, 9]",1.0,5.0,0.1350109577178955,1.7340428829193115,0.5060830307586458,40.0,405.0,0.0
Y,R,"[6, 10]",-1.0,5.0,0.05288410186767578,5.837641954421997,0.660357380892161,40.0,406.0,0.0
Y,R,"[6, 11]",0.0,5.0,0.5424048900604248,2.3247439861297607,0.6852553112810891,40.0,407.0,0.0
G,D,"[7, 11]",0.0,5.0,0.5754261016845703,2.0736310482025146,0.3924967682664634,40.0,408.0,0.0
G,D,"[8, 11]",0.0,5.0,0.9275689125061035,2.6017651557922363,0.5775447245670486,40.0,409.0,0.0
G,D,"[9, 11]",0.0,5.0,0.2916851043701172,1.6740050315856934,0.28516204344148416,40.0,410.0,0.0
,,"(6, 6)",,,,,,,,
R,U,"[5, 6]",1.0,1.0,0.5180480480194092,4.220022201538086,0.5217700040902171,41.0,411.0,0.0
Y,R,"[5, 7]",1.0,2.0,0.3030998706817627,1.6573748588562012,0.2627127914300557,41.0,412.0,0.0
Y,R,"[5, 8]",1.0,3.0,0.28174591064453125,1.9297740459442139,0.5589440995545869,41.0,413.0,0.0
G,D,"[6, 8]",1.0,4.0,0.1438131332397461,1.5173521041870117,0.27658004104136186,41.0,414.0,0.0
Y,R,"[6, 9]",1.0,5.0,0.23584794998168945,2.037213087081909,0.7135912434841032,41.0,415.0,0.0
Y,R,"[6, 10]",1.0,6.0,0.3615710735321045,2.1775670051574707,0.7078327475902432,41.0,416.0,0.0
G,D,"[7, 10]",0.0,6.0,0.21354103088378906,1.6458799839019775,0.33751746306165786,41.0,417.0,0.0
Y,R,"[7, 11]",0.0,6.0,0.38438892364501953,2.1311089992523193,0.6518273047716593,41.0,418.0,0.0
R,U,"[6, 11]",-1.0,6.0,0.03282785415649414,5.566504001617432,0.40175922733525626,41.0,419.0,0.0
R,U,"[5, 11]",0.0,6.0,0.19280719757080078,1.9256479740142822,0.6273124992727578,41.0,420.0,0.0
,,"(6, 6)",,,,,,,,
R,U,"[5, 6]",1.0,1.0,0.8037400245666504,5.040453910827637,0.5845809778490603,42.0,421.0,0.0
Y,R,"[5, 7]",1.0,2.0,0.27734899520874023,2.0863749980926514,0.7041577192398226,42.0,422.0,0.0
Y,R,"[5, 8]",1.0,3.0,0.4164009094238281,1.8705050945281982,0.3585086761654195,42.0,423.0,0.0
G,D,"[6, 8]",1.0,4.0,0.26569604873657227,1.8933770656585693,0.5350323879377352,42.0,424.0,0.0
Y,R,"[6, 9]",1.0,5.0,0.2865409851074219,1.944549798965454,0.5628405575647224,42.0,425.0,0.0
Y,R,"[6, 10]",1.0,6.0,0.2505619525909424,2.020432949066162,0.6666348366714168,42.0,426.0,0.0
B,L,"[6, 9]",0.0,6.0,0.2602682113647461,2.09784197807312,0.731049923978083,42.0,427.0,0.0
R,U,"[5, 9]",0.0,6.0,0.28426599502563477,1.82047700881958,0.43537787816560375,42.0,428.0,0.0
R,U,"[4, 9]",1.0,7.0,0.28152012825012207,2.084038019180298,0.7024332460407898,42.0,429.0,0.0
Y,R,"[4, 10]",1.0,8.0,0.19954991340637207,1.9959430694580078,0.6984311860169878,42.0,430.0,0.0
,,"(6, 6)",,,,,,,,
R,U,"[5, 6]",1.0,1.0,0.583137035369873,2.8002309799194336,0.5822844189644367,43.0,431.0,0.0
Y,R,"[5, 7]",1.0,2.0,0.5786259174346924,2.2824349403381348,0.5979771099144155,43.0,432.0,0.0
Y,R,"[5, 8]",1.0,3.0,0.3428938388824463,1.9112157821655273,0.4594255043662876,43.0,433.0,0.0
G,D,"[6, 8]",1.0,4.0,0.2312760353088379,1.8843650817871094,0.5603170050214761,43.0,434.0,0.0
Y,R,"[6, 9]",1.0,5.0,0.25381994247436523,1.9905779361724854,0.6510280187665535,43.0,435.0,0.0
Y,R,"[6, 10]",1.0,6.0,0.3937849998474121,1.9953899383544922,0.49651396296824046,43.0,436.0,0.0
R,U,"[5, 10]",1.0,7.0,0.21592998504638672,1.7846941947937012,0.46466758625070725,43.0,437.0,0.0
R,U,"[4, 10]",1.0,8.0,0.31595802307128906,1.7706968784332275,0.35221862149911876,43.0,438.0,0.0
Y,R,"[4, 11]",0.0,8.0,0.9771230220794678,2.441027879714966,0.35993199585612556,43.0,439.0,0.0
Y,R,"[4, 10]",-3.0,8.0,0.5618360042572021,2.4044430255889893,0.7473113180522362,43.0,440.0,0.0
,,"(6, 6)",,,,,,,,
R,U,"[5, 6]",1.0,1.0,0.4635770320892334,3.1800310611724854,0.6110316600226323,44.0,441.0,0.0
R,U,"[4, 6]",0.0,1.0,0.19879889488220215,1.9610190391540527,0.6720259629581029,44.0,442.0,0.0
Y,R,"[4, 7]",0.0,1.0,0.4015800952911377,2.046552896499634,0.5521538510209265,44.0,443.0,0.0
R,U,"[3, 7]",0.0,1.0,0.4341890811920166,1.9933178424835205,0.46213725146703427,44.0,444.0,0.0
G,D,"[4, 7]",-2.0,1.0,1.4039030075073242,2.718183994293213,0.2972728329061391,44.0,445.0,0.0
B,L,"[4, 6]",0.0,1.0,0.2857639789581299,2.0775060653686523,0.6909778294063001,44.0,446.0,0.0
Y,R,"[4, 7]",0.0,1.0,0.3373599052429199,2.0990991592407227,0.6736255543033779,44.0,447.0,0.0
R,U,"[3, 7]",0.0,1.0,0.1915419101715088,1.9712340831756592,0.6781613629129376,44.0,448.0,0.0
R,U,"[2, 7]",0.0,1.0,0.1936500072479248,1.7718610763549805,0.483681958451073,44.0,449.0,0.0
R,U,"[1, 7]",0.0,1.0,0.19830799102783203,1.6095898151397705,0.31012484420311864,44.0,450.0,0.0
,,"(6, 6)",,,,,,,,
R,U,"[5, 6]",1.0,1.0,0.978356122970581,2.81021785736084,0.3701758219339918,45.0,451.0,0.0
Y,R,"[5, 7]",1.0,2.0,0.30558013916015625,1.8470878601074219,0.4340913786182154,45.0,452.0,0.0
Y,R,"[5, 8]",1.0,3.0,0.2757091522216797,1.686758041381836,0.304211235876993,45.0,453.0,0.0
G,D,"[6, 8]",1.0,4.0,0.28688812255859375,1.94559907913208,0.566525744700138,45.0,454.0,0.0
Y,R,"[6, 9]",1.0,5.0,0.2167952060699463,1.7044260501861572,0.38775888959456317,45.0,455.0,0.0
Y,R,"[6, 10]",1.0,6.0,0.22736787796020508,1.882676124572754,0.5535823058752531,45.0,456.0,0.0
R,U,"[5, 10]",1.0,7.0,0.24218106269836426,1.758208990097046,0.41202278430854455,45.0,457.0,0.0
R,U,"[4, 10]",1.0,8.0,0.1954050064086914,1.5973360538482666,0.3095039603933344,45.0,458.0,0.0
Y,R,"[4, 11]",0.0,8.0,0.2723960876464844,2.0327420234680176,0.6752971627351465,45.0,459.0,0.0
Y,R,"[4, 10]",-3.0,8.0,0.25914502143859863,1.9692931175231934,0.6113717216428642,45.0,460.0,0.0
,,"(6, 6)",,,,,,,,
R,U,"[5, 6]",1.0,1.0,0.4711270332336426,2.5425891876220703,0.6372982761692227,46.0,461.0,0.0
Y,R,"[5, 7]",1.0,2.0,0.20505285263061523,2.035928964614868,0.7233085162393615,46.0,462.0,0.0
Y,R,"[5, 8]",1.0,3.0,0.25539398193359375,1.9194579124450684,0.5597244399279444,46.0,463.0,0.0
G,D,"[6, 8]",1.0,4.0,0.19286704063415527,1.5931661128997803,0.30306486466750654,46.0,464.0,0.0
Y,R,"[6, 9]",1.0,5.0,0.3128480911254883,1.6919410228729248,0.2784081283317537,46.0,465.0,0.0
Y,R,"[6, 10]",1.0,6.0,0.36368799209594727,1.9339799880981445,0.4788359238414787,46.0,466.0,0.0
R,U,"[5, 10]",1.0,7.0,0.22852301597595215,1.9480960369110107,0.6269657387418601,46.0,467.0,0.0
R,U,"[4, 10]",-1.0,7.0,0.0303189754486084,5.531904935836792,0.3759794711063049,46.0,468.0,0.0
R,U,"[3, 10]",0.0,7.0,0.2971980571746826,1.8333351612091064,0.4425911049909927,46.0,469.0,0.0
Y,R,"[3, 11]",0.0,7.0,0.20517706871032715,1.7757000923156738,0.4682548055268444,46.0,470.0,0.0
,,"(6, 6)",,,,,,,,
R,U,"[5, 6]",1.0,1.0,0.7145490646362305,2.448615074157715,0.4170149060696213,47.0,471.0,0.0
Y,R,"[5, 7]",1.0,2.0,0.23467803001403809,1.7196950912475586,0.3867648913176413,47.0,472.0,0.0
Y,R,"[5, 8]",1.0,3.0,0.28897595405578613,1.98848295211792,0.5918659201305614,47.0,473.0,0.0
G,D,"[6, 8]",1.0,4.0,0.25290417671203613,1.6745178699493408,0.33323298267927853,47.0,474.0,0.0
Y,R,"[6, 9]",1.0,5.0,0.39965200424194336,1.9075348377227783,0.4074450867005889,47.0,475.0,0.0
R,U,"[5, 9]",0.0,5.0,0.21661114692687988,1.5719578266143799,0.2630233979235905,47.0,476.0,0.0
R,U,"[4, 9]",1.0,6.0,0.4393460750579834,1.8166990280151367,0.26297328369150114,47.0,477.0,0.0
R,U,"[3, 9]",1.0,7.0,0.2527809143066406,1.8852999210357666,0.5315703407480888,47.0,478.0,0.0
Y,R,"[3, 10]",0.0,7.0,0.2057478427886963,1.890125036239624,0.5714962236561687,47.0,479.0,0.0
R,U,"[2, 10]",-1.0,7.0,0.09355497360229492,5.485258102416992,0.25733774236831086,47.0,480.0,0.0
,,"(6, 6)",,,,,,,,
R,U,"[5, 6]",1.0,1.0,0.3977069854736328,3.290609121322632,0.6643500280623155,48.0,481.0,0.0
Y,R,"[5, 7]",1.0,2.0,0.5073010921478271,1.998344898223877,0.37959701969427767,48.0,482.0,0.0
Y,R,"[5, 8]",-2.0,2.0,1.0042059421539307,2.384458065032959,0.3309491088927355,48.0,483.0,0.0
G,D,"[6, 8]",1.0,3.0,0.715116024017334,2.4944701194763184,0.6749746120703222,48.0,484.0,0.0
Y,R,"[6, 9]",1.0,4.0,0.22597098350524902,1.8972067832946777,0.5723118064526227,48.0,485.0,0.0
Y,R,"[6, 10]",1.0,5.0,0.2739720344543457,1.969404935836792,0.60888090064855,48.0,486.0,0.0
R,U,"[5, 10]",1.0,6.0,0.45340895652770996,2.014702796936035,0.47328915447066544,48.0,487.0,0.0
R,U,"[4, 10]",1.0,7.0,0.22980999946594238,1.7352080345153809,0.4086461238815811,48.0,488.0,0.0
G,D,"[5, 10]",0.0,7.0,0.18742680549621582,1.7918179035186768,0.5171035217781776,48.0,489.0,0.0
Y,R,"[5, 11]",0.0,7.0,0.18458008766174316,1.7657318115234375,0.4829155056819501,48.0,490.0,0.0
,,"(6, 6)",,,,,,,,
R,U,"[5, 6]",1.0,1.0,0.7416439056396484,2.643220901489258,0.4596451904076452,49.0,491.0,0.0
Y,R,"[5, 7]",1.0,2.0,0.26990294456481934,1.6073129177093506,0.25045366588651313,49.0,492.0,0.0
Y,R,"[5, 8]",1.0,3.0,0.26404595375061035,1.7304930686950684,0.3643070696467667,49.0,493.0,0.0
G,D,"[6, 8]",1.0,4.0,0.23376893997192383,1.9285178184509277,0.5925619489130216,49.0,494.0,0.0
Y,R,"[6, 9]",1.0,5.0,0.23396086692810059,1.6663239002227783,0.34252388866484645,49.0,495.0,0.0
Y,R,"[6, 10]",1.0,6.0,0.2035369873046875,1.6121530532836914,0.3215089947176531,49.0,496.0,0.0
R,U,"[5, 10]",1.0,7.0,0.18649792671203613,2.035573959350586,0.7233927653733248,49.0,497.0,0.0
R,U,"[4, 10]",-1.0,7.0,0.011513948440551758,5.482825994491577,0.35660907700098743,49.0,498.0,0.0
Y,R,"[4, 11]",0.0,7.0,0.3193991184234619,1.9525718688964844,0.5423848299075944,49.0,499.0,0.0
Y,R,"[4, 10]",-3.0,7.0,0.2994101047515869,1.6889569759368896,0.2983231738591063,49.0,500.0,0.0
,,"(6, 6)",,,,,,,,
R,U,"[5, 6]",1.0,1.0,0.4390740394592285,2.7600719928741455,0.5416807144795354,50.0,501.0,0.0
Y,R,"[5, 7]",1.0,2.0,0.23452091217041016,1.860672950744629,0.5356455855943936,50.0,502.0,0.0
Y,R,"[5, 8]",1.0,3.0,0.22994589805603027,1.8154449462890625,0.4845871180453174,50.0,503.0,0.0
G,D,"[6, 8]",1.0,4.0,0.26138806343078613,1.9762401580810547,0.6107433961527395,50.0,504.0,0.0
Y,R,"[6, 9]",1.0,5.0,0.5008420944213867,2.048431873321533,0.4593270558397121,50.0,505.0,0.0
R,U,"[5, 9]",0.0,5.0,0.26189517974853516,1.713083028793335,0.3559269282316916,50.0,506.0,0.0
R,U,"[4, 9]",1.0,6.0,0.6741979122161865,2.3962700366973877,0.6186108299186679,50.0,507.0,0.0
R,U,"[3, 9]",1.0,7.0,0.1874220371246338,1.8215479850769043,0.5403776486067845,50.0,508.0,0.0
R,U,"[2, 9]",0.0,7.0,0.23369097709655762,1.8100249767303467,0.48389705070951833,50.0,509.0,0.0
Y,R,"[2, 10]",0.0,7.0,0.513031005859375,2.3480658531188965,0.7316653502666988,50.0,510.0,0.0
,,"(6, 6)",,,,,,,,
R,U,"[5, 6]",-2.0,0.0,1.5524649620056152,3.469161033630371,0.5844242397807886,51.0,511.0,0.0
Y,R,"[5, 7]",1.0,1.0,0.2396860122680664,1.9905409812927246,0.6416280146558913,51.0,512.0,0.0
Y,R,"[5, 8]",1.0,2.0,0.14564108848571777,1.7800328731536865,0.5384846918145514,51.0,513.0,0.0
G,D,"[6, 8]",1.0,3.0,0.21849608421325684,1.6626300811767578,0.35125708038875025,51.0,514.0,0.0
Y,R,"[6, 9]",1.0,4.0,0.2784428596496582,1.8418378829956055,0.45954183852978464,51.0,515.0,0.0
Y,R,"[6, 10]",-1.0,4.0,0.07270693778991699,5.823326826095581,0.6331118310035362,51.0,516.0,0.0
R,U,"[5, 10]",1.0,5.0,0.41098499298095703,2.0114119052886963,0.49470271492896967,51.0,517.0,0.0
R,U,"[4, 10]",1.0,6.0,0.21403288841247559,1.6890339851379395,0.38385611057396796,51.0,518.0,0.0
R,U,"[3, 10]",0.0,6.0,0.2351398468017578,1.7381150722503662,0.40532146205794345,51.0,519.0,0.0
R,U,"[2, 10]",0.0,6.0,0.21483898162841797,1.8543131351470947,0.5429343603836609,51.0,520.0,0.0
,,"(6, 6)",,,,,,,,
R,U,"[5, 6]",1.0,1.0,0.46207189559936523,2.450129985809326,0.5765290235220335,52.0,521.0,0.0
Y,R,"[5, 7]",1.0,2.0,0.3710439205169678,1.890401840209961,0.43363377491064814,52.0,522.0,0.0
Y,R,"[5, 8]",1.0,3.0,0.30121493339538574,1.9135138988494873,0.5139046387252558,52.0,523.0,0.0
G,D,"[6, 8]",1.0,4.0,0.25043296813964844,2.045447826385498,0.6924965104168352,52.0,524.0,0.0
Y,R,"[6, 9]",1.0,5.0,0.21718406677246094,1.696768045425415,0.38972579970231835,52.0,525.0,0.0
Y,R,"[6, 10]",1.0,6.0,0.25618910789489746,1.965285062789917,0.6047033055452504,52.0,526.0,0.0
R,U,"[5, 10]",1.0,7.0,0.19409489631652832,1.8076939582824707,0.5125778131916634,52.0,527.0,0.0
R,U,"[4, 10]",1.0,8.0,0.19201207160949707,1.5653269290924072,0.26148576952549685,52.0,528.0,0.0
Y,R,"[4, 11]",0.0,8.0,0.2861039638519287,2.0657739639282227,0.693558786341629,52.0,529.0,0.0
R,U,"[3, 11]",0.0,8.0,0.3806431293487549,1.884458065032959,0.41170201067643714,52.0,530.0,0.0
,,"(6, 6)",,,,,,,,
Y,R,"[6, 7]",-2.0,0.0,1.1260030269622803,3.0144999027252197,0.7260918601678521,53.0,531.0,0.0
Y,R,"[6, 8]",1.0,1.0,0.258634090423584,1.9485821723937988,0.5914404646795965,53.0,532.0,0.0
Y,R,"[6, 9]",1.0,2.0,0.24081110954284668,1.9450900554656982,0.603199933239782,53.0,533.0,0.0
G,D,"[7, 9]",0.0,2.0,0.46776914596557617,1.8190109729766846,0.2559996942491026,53.0,534.0,0.0
Y,R,"[7, 10]",0.0,2.0,0.5735189914703369,1.965998888015747,0.3052658520833774,53.0,535.0,0.0
Y,R,"[7, 11]",0.0,2.0,0.29552507400512695,1.7235078811645508,0.3286483081736819,53.0,536.0,0.0
R,U,"[6, 11]",0.0,2.0,0.9369761943817139,2.654935836791992,0.6335570280834375,53.0,537.0,0.0
R,U,"[5, 11]",0.0,2.0,0.20435500144958496,1.8845820426940918,0.5849341861550472,53.0,538.0,0.0
R,U,"[4, 11]",0.0,2.0,0.20705819129943848,1.8110649585723877,0.4961773829623621,53.0,539.0,0.0
R,U,"[3, 11]",0.0,2.0,0.21646690368652344,1.7174530029296875,0.396979106641737,53.0,540.0,0.0
,,"(6, 6)",,,,,,,,
R,U,"[5, 6]",1.0,1.0,0.571537971496582,3.817795991897583,0.5481812817196354,54.0,541.0,0.0
Y,R,"[5, 7]",1.0,2.0,0.25543785095214844,2.033681869506836,0.6817722597852798,54.0,542.0,0.0
Y,R,"[5, 8]",1.0,3.0,0.25107598304748535,2.0167548656463623,0.665205340006941,54.0,543.0,0.0
G,D,"[6, 8]",1.0,4.0,0.2063000202178955,1.6399261951446533,0.3222015964691563,54.0,544.0,0.0
Y,R,"[6, 9]",1.0,5.0,0.3960599899291992,2.1513030529022217,0.6565544992172221,54.0,545.0,0.0
Y,R,"[6, 10]",1.0,6.0,0.22518706321716309,1.9926269054412842,0.6659655684319239,54.0,546.0,0.0
R,U,"[5, 10]",1.0,7.0,0.29927802085876465,2.070807933807373,0.6701473335693973,54.0,547.0,0.0
R,U,"[4, 10]",1.0,8.0,0.22042393684387207,1.8448171615600586,0.5318180480382109,54.0,548.0,0.0
G,D,"[5, 10]",0.0,8.0,0.21397805213928223,1.78916597366333,0.47099720719499094,54.0,549.0,0.0
Y,R,"[5, 11]",-1.0,8.0,0.0019328594207763672,5.674870014190674,0.5460381269383356,54.0,550.0,0.0
,,"(6, 6)",,,,,,,,
R,U,"[5, 6]",1.0,1.0,0.46572184562683105,2.6077721118927,0.42062973506686013,55.0,551.0,0.0
Y,R,"[5, 7]",1.0,2.0,0.20000195503234863,1.8264751434326172,0.5304732470305928,55.0,552.0,0.0
Y,R,"[5, 8]",1.0,3.0,0.416140079498291,2.024764060974121,0.5052836428382967,55.0,553.0,0.0
G,D,"[6, 8]",1.0,4.0,0.24056291580200195,1.7959730625152588,0.4512373049663892,55.0,554.0,0.0
Y,R,"[6, 9]",1.0,5.0,0.29066896438598633,1.9989190101623535,0.6004590473408249,55.0,555.0,0.0
Y,R,"[6, 10]",1.0,6.0,0.2516319751739502,1.7998180389404297,0.4501029262687202,55.0,556.0,0.0
R,U,"[5, 10]",1.0,7.0,0.31272196769714355,1.846703052520752,0.43019671791148983,55.0,557.0,0.0
R,U,"[4, 10]",1.0,8.0,0.24316906929016113,1.8064069747924805,0.45333939443002585,55.0,558.0,0.0
Y,R,"[4, 11]",0.0,8.0,0.22688508033752441,1.7634129524230957,0.4334847741273995,55.0,559.0,0.0
R,U,"[3, 11]",0.0,8.0,0.216325044631958,2.02140212059021,0.704764334238733,55.0,560.0,0.0
,,"(6, 6)",,,,,,,,
R,U,"[5, 6]",1.0,1.0,0.5335819721221924,2.45822811126709,0.4965059822276367,56.0,561.0,0.0
Y,R,"[5, 7]",1.0,2.0,0.4010159969329834,1.977247953414917,0.4738376866955712,56.0,562.0,0.0
Y,R,"[5, 8]",1.0,3.0,0.2435920238494873,1.892547845840454,0.549635277926737,56.0,563.0,0.0
G,D,"[6, 8]",1.0,4.0,0.2165820598602295,1.989408016204834,0.6722925928263074,56.0,564.0,0.0
Y,R,"[6, 9]",1.0,5.0,0.15058398246765137,1.8834071159362793,0.6391665718726263,56.0,565.0,0.0
Y,R,"[6, 10]",1.0,6.0,0.16330695152282715,1.587805986404419,0.3274072711668643,56.0,566.0,0.0
B,L,"[6, 9]",0.0,6.0,0.2697608470916748,2.072192907333374,0.7159014599204956,56.0,567.0,0.0
B,L,"[6, 8]",0.0,6.0,0.19865202903747559,2.025956869125366,0.7251938188479089,56.0,568.0,0.0
B,L,"[6, 7]",0.0,6.0,0.5791211128234863,2.0378758907318115,0.36326626710588517,56.0,569.0,0.0
B,L,"[6, 6]",0.0,6.0,0.3190290927886963,2.024168014526367,0.6042347247758783,56.0,570.0,0.0
,,"(6, 6)",,,,,,,,
R,U,"[5, 6]",1.0,1.0,0.40972900390625,2.4074509143829346,0.4784778207910105,57.0,571.0,0.0
Y,R,"[5, 7]",1.0,2.0,0.2928440570831299,1.9483778476715088,0.5601715985359876,57.0,572.0,0.0
Y,R,"[5, 8]",1.0,3.0,0.5826010704040527,2.29790997505188,0.6247416676153665,57.0,573.0,0.0
G,D,"[6, 8]",1.0,4.0,0.20558786392211914,1.5901751518249512,0.28204599495836585,57.0,574.0,0.0
Y,R,"[6, 9]",1.0,5.0,0.3025782108306885,2.0781280994415283,0.6763897263344154,57.0,575.0,0.0
Y,R,"[6, 10]",1.0,6.0,0.20415115356445312,1.7310700416564941,0.44112469315606345,57.0,576.0,0.0
R,U,"[5, 10]",1.0,7.0,0.21365118026733398,2.017827033996582,0.7087383794856255,57.0,577.0,0.0
R,U,"[4, 10]",1.0,8.0,0.45313191413879395,2.2525248527526855,0.7113770515508077,57.0,578.0,0.0
B,L,"[4, 9]",1.0,9.0,0.32320094108581543,2.0351428985595703,0.6132403437215652,57.0,579.0,0.0
R,U,"[3, 9]",1.0,10.0,0.22736215591430664,2.0073180198669434,0.6705984916598968,57.0,580.0,0.0
,,"(6, 6)",,,,,,,,
R,U,"[5, 6]",1.0,1.0,0.6231679916381836,3.6117849349975586,0.5160056916761061,58.0,581.0,0.0
Y,R,"[5, 7]",1.0,2.0,0.24266481399536133,1.7725508213043213,0.42196461664651574,58.0,582.0,0.0
Y,R,"[5, 8]",1.0,3.0,0.16624116897583008,1.6450529098510742,0.3838516046404721,58.0,583.0,0.0
G,D,"[6, 8]",1.0,4.0,0.23412203788757324,1.7933769226074219,0.46051468056282774,58.0,584.0,0.0
Y,R,"[6, 9]",1.0,5.0,0.4451131820678711,2.031430959701538,0.4919076686351367,58.0,585.0,0.0
Y,R,"[6, 10]",1.0,6.0,0.23585987091064453,1.5887110233306885,0.26421620684180086,58.0,586.0,0.0
R,U,"[5, 10]",1.0,7.0,0.29265880584716797,1.711432933807373,0.308484592565247,58.0,587.0,0.0
B,L,"[5, 9]",0.0,7.0,0.34404706954956055,2.1028690338134766,0.6616775341969281,58.0,588.0,0.0
B,L,"[5, 8]",0.0,7.0,0.20280814170837402,2.0268499851226807,0.7385267048806093,58.0,589.0,0.0
R,U,"[4, 8]",0.0,7.0,0.18450284004211426,1.825127124786377,0.5471438556854791,58.0,590.0,0.0
,,"(6, 6)",,,,,,,,
R,U,"[5, 6]",1.0,1.0,0.6183598041534424,2.5428919792175293,0.540178490652218,59.0,591.0,0.0
Y,R,"[5, 7]",1.0,2.0,0.14224481582641602,1.8080759048461914,0.5647879110546092,59.0,592.0,0.0
Y,R,"[5, 8]",1.0,3.0,0.23171591758728027,1.8265290260314941,0.4915256712187621,59.0,593.0,0.0
G,D,"[6, 8]",1.0,4.0,0.2731449604034424,1.6375761032104492,0.26272249352074156,59.0,594.0,0.0
Y,R,"[6, 9]",1.0,5.0,0.3445918560028076,1.891597032546997,0.45413360413414317,59.0,595.0,0.0
Y,R,"[6, 10]",1.0,6.0,0.1954059600830078,1.6017651557922363,0.30610009738067284,59.0,596.0,0.0
R,U,"[5, 10]",1.0,7.0,0.27460598945617676,2.023350954055786,0.6458411908980304,59.0,597.0,0.0
R,U,"[4, 10]",1.0,8.0,0.19335484504699707,1.9391000270843506,0.6349733024462929,59.0,598.0,0.0
B,L,"[4, 9]",1.0,9.0,0.20426607131958008,1.969299077987671,0.6710027616493774,59.0,599.0,0.0
R,U,"[3, 9]",1.0,10.0,0.17729902267456055,1.9367690086364746,0.6579419239381104,59.0,600.0,0.0
,,"(6, 6)",,,,,,,,
R,U,"[5, 6]",1.0,1.0,0.544870138168335,2.697492837905884,0.43893684748228,60.0,601.0,0.0
Y,R,"[5, 7]",1.0,2.0,0.22861099243164062,1.8868188858032227,0.5593803578663198,60.0,602.0,0.0
Y,R,"[5, 8]",1.0,3.0,0.2370312213897705,1.7112321853637695,0.38727144376154216,60.0,603.0,0.0
G,D,"[6, 8]",1.0,4.0,0.19726800918579102,1.8797459602355957,0.5834482390026241,60.0,604.0,0.0
Y,R,"[6, 9]",1.0,5.0,0.3071889877319336,1.6943519115447998,0.2780684857485457,60.0,605.0,0.0
Y,R,"[6, 10]",1.0,6.0,0.2449049949645996,1.7715568542480469,0.43293344502365294,60.0,606.0,0.0
R,U,"[5, 10]",1.0,7.0,0.19662690162658691,1.7211759090423584,0.4208660015440612,60.0,607.0,0.0
R,U,"[4, 10]",1.0,8.0,0.18774795532226562,1.550156831741333,0.2544953588335171,60.0,608.0,0.0
B,L,"[4, 9]",1.0,9.0,0.23735594749450684,1.618175983428955,0.28936920318748083,60.0,609.0,0.0
R,U,"[3, 9]",1.0,10.0,0.17941784858703613,1.811122179031372,0.5336710054638455,60.0,610.0,0.0
,,"(6, 6)",,,,,,,,
R,U,"[5, 6]",1.0,1.0,0.43872499465942383,2.094835042953491,0.2957313337822616,61.0,611.0,0.0
Y,R,"[5, 7]",1.0,2.0,0.4905691146850586,1.9472179412841797,0.3592549238756405,61.0,612.0,0.0
Y,R,"[5, 8]",1.0,3.0,0.2457430362701416,1.9312090873718262,0.590223462784754,61.0,613.0,0.0
G,D,"[6, 8]",1.0,4.0,0.2283620834350586,1.81339693069458,0.486942185247953,61.0,614.0,0.0
Y,R,"[6, 9]",1.0,5.0,0.21841788291931152,1.7335259914398193,0.4209647079184245,61.0,615.0,0.0
Y,R,"[6, 10]",1.0,6.0,0.2570960521697998,2.008152961730957,0.6456300987609376,61.0,616.0,0.0
R,U,"[5, 10]",1.0,7.0,0.10472798347473145,1.8402950763702393,0.6357940922198277,61.0,617.0,0.0
R,U,"[4, 10]",1.0,8.0,0.16578078269958496,1.5336761474609375,0.26992874502962716,61.0,618.0,0.0
B,L,"[4, 9]",1.0,9.0,0.24149703979492188,2.0181350708007812,0.671077736875538,61.0,619.0,0.0
R,U,"[3, 9]",1.0,10.0,0.2079181671142578,2.043093204498291,0.7307737160357521,61.0,620.0,0.0
,,"(6, 6)",,,,,,,,
R,U,"[5, 6]",1.0,1.0,0.574592113494873,2.884423017501831,0.632030352753197,62.0,621.0,0.0
Y,R,"[5, 7]",1.0,2.0,0.24443888664245605,2.0444071292877197,0.6930739395473509,62.0,622.0,0.0
Y,R,"[5, 8]",-1.0,2.0,0.036622047424316406,5.87626314163208,0.7195167966049523,62.0,623.0,0.0
G,D,"[6, 8]",1.0,3.0,0.3491251468658447,2.0254909992218018,0.5781099188125816,62.0,624.0,0.0
Y,R,"[6, 9]",1.0,4.0,0.23171401023864746,1.5962629318237305,0.27516914852953095,62.0,625.0,0.0
Y,R,"[6, 10]",1.0,5.0,0.2645609378814697,1.8580601215362549,0.499771951019026,62.0,626.0,0.0
R,U,"[5, 10]",1.0,6.0,0.13648009300231934,1.7352831363677979,0.5018352114998716,62.0,627.0,0.0
R,U,"[4, 10]",1.0,7.0,0.21886682510375977,1.9095559120178223,0.5945834672438948,62.0,628.0,0.0
Y,R,"[4, 11]",0.0,7.0,0.31073498725891113,1.9084508419036865,0.5031552649163107,62.0,629.0,0.0
R,U,"[3, 11]",-2.0,7.0,1.2859339714050293,2.6927669048309326,0.37949974547027837,62.0,630.0,0.0
,,"(6, 6)",,,,,,,,
R,U,"[5, 6]",-2.0,0.0,1.1071507930755615,4.381167888641357,0.3441911275527271,63.0,631.0,0.0
Y,R,"[5, 7]",1.0,1.0,0.3607289791107178,1.7752201557159424,0.31946889584203053,63.0,632.0,0.0
Y,R,"[5, 8]",1.0,2.0,0.22654199600219727,1.5884361267089844,0.2579882888599491,63.0,633.0,0.0
G,D,"[6, 8]",1.0,3.0,0.14862394332885742,1.7703981399536133,0.5280686420043692,63.0,634.0,0.0
Y,R,"[6, 9]",1.0,4.0,0.8067259788513184,2.4413349628448486,0.5362975742938605,63.0,635.0,0.0
Y,R,"[6, 10]",1.0,5.0,0.24771714210510254,1.758436918258667,0.41158423163610336,63.0,636.0,0.0
R,U,"[5, 10]",-2.0,5.0,1.0987629890441895,2.571120023727417,0.44917886993337425,63.0,637.0,0.0
R,U,"[4, 10]",1.0,6.0,0.4497339725494385,2.1102800369262695,0.5595641576490804,63.0,638.0,0.0
B,L,"[4, 9]",1.0,7.0,0.2965431213378906,1.704935073852539,0.31470999577438524,63.0,639.0,0.0
R,U,"[3, 9]",1.0,8.0,0.6579251289367676,2.058587074279785,0.2900977459752118,63.0,640.0,0.0
,,"(6, 6)",,,,,,,,
R,U,"[5, 6]",1.0,1.0,0.6515350341796875,2.9724910259246826,0.6624011090284752,64.0,641.0,0.0
R,U,"[4, 6]",0.0,1.0,0.2852189540863037,1.744246006011963,0.37360608319011135,64.0,642.0,0.0
Y,R,"[4, 7]",0.0,1.0,0.6512877941131592,2.4406089782714844,0.6972353061743162,64.0,643.0,0.0
Y,R,"[4, 8]",0.0,1.0,0.2795119285583496,1.6865949630737305,0.3008756060057972,64.0,644.0,0.0
Y,R,"[4, 9]",1.0,2.0,0.17422890663146973,1.5736420154571533,0.2911337635182459,64.0,645.0,0.0
Y,R,"[4, 10]",1.0,3.0,0.4175899028778076,2.0179851055145264,0.5091248764390082,64.0,646.0,0.0
R,U,"[3, 10]",0.0,3.0,0.125,1.5543231964111328,0.33042143755687053,64.0,647.0,0.0
R,U,"[2, 10]",0.0,3.0,0.4672560691833496,2.16668701171875,0.5964776123866546,64.0,648.0,0.0
B,L,"[2, 9]",0.0,3.0,0.22381305694580078,1.597168207168579,0.26116609471163876,64.0,649.0,0.0
R,U,"[1, 9]",0.0,3.0,0.21287894248962402,1.7214689254760742,0.4157602843666041,64.0,650.0,0.0
,,"(6, 6)",,,,,,,,
R,U,"[5, 6]",1.0,1.0,0.8061389923095703,3.0361340045928955,0.4020171529996035,65.0,651.0,0.0
Y,R,"[5, 7]",1.0,2.0,0.2501089572906494,1.7237420082092285,0.3757990109500807,65.0,652.0,0.0
Y,R,"[5, 8]",1.0,3.0,0.1823890209197998,1.8001899719238281,0.5260122912071059,65.0,653.0,0.0
G,D,"[6, 8]",1.0,4.0,0.2523629665374756,2.0046961307525635,0.6638087277945817,65.0,654.0,0.0
R,U,"[5, 8]",0.0,4.0,0.48374509811401367,1.8930490016937256,0.307409935145096,65.0,655.0,0.0
Y,R,"[5, 9]",0.0,4.0,0.24547481536865234,1.6716768741607666,0.32905142720598385,65.0,656.0,0.0
R,U,"[4, 9]",1.0,5.0,0.16085600852966309,1.7533271312713623,0.4988669394045665,65.0,657.0,0.0
R,U,"[3, 9]",-1.0,5.0,0.09545397758483887,5.535443067550659,0.30133770944941524,65.0,658.0,0.0
R,U,"[2, 9]",0.0,5.0,0.56209397315979,2.2543060779571533,0.5886663301604413,65.0,659.0,0.0
Y,R,"[2, 10]",-2.0,5.0,1.1611781120300293,2.6008460521698,0.40666151827873015,65.0,660.0,0.0
,,"(6, 6)",,,,,,,,
R,U,"[5, 6]",1.0,1.0,0.3951690196990967,3.4108529090881348,0.7005041199630075,66.0,661.0,0.0
Y,R,"[5, 7]",1.0,2.0,0.3088719844818115,1.758457899093628,0.34274117097086215,66.0,662.0,0.0
Y,R,"[5, 8]",1.0,3.0,0.300091028213501,1.8684930801391602,0.4778245430892175,66.0,663.0,0.0
G,D,"[6, 8]",1.0,4.0,0.294281005859375,1.6876220703125,0.29896923860476765,66.0,664.0,0.0
Y,R,"[6, 9]",1.0,5.0,0.2973361015319824,1.958258867263794,0.557032767220433,66.0,665.0,0.0
Y,R,"[6, 10]",1.0,6.0,0.2056288719177246,2.057194948196411,0.7473523283296734,66.0,666.0,0.0
R,U,"[5, 10]",1.0,7.0,0.22543811798095703,2.0806920528411865,0.7448881154854416,66.0,667.0,0.0
R,U,"[4, 10]",1.0,8.0,0.3512129783630371,2.1488568782806396,0.7104848930125484,66.0,668.0,0.0
B,L,"[4, 9]",1.0,9.0,0.2543010711669922,2.0429298877716064,0.703503568728189,66.0,669.0,0.0
R,U,"[3, 9]",1.0,10.0,0.24506092071533203,1.810467004776001,0.4641748972539915,66.0,670.0,0.0
,,"(6, 6)",,,,,,,,
R,U,"[5, 6]",1.0,1.0,0.6053102016448975,2.6634328365325928,0.39417854626465215,67.0,671.0,0.0
Y,R,"[5, 7]",1.0,2.0,0.1967790126800537,1.754607915878296,0.4657792729538023,67.0,672.0,0.0
Y,R,"[5, 8]",1.0,3.0,0.22420406341552734,2.0458409786224365,0.7113210071550076,67.0,673.0,0.0
G,D,"[6, 8]",1.0,4.0,0.18893194198608398,1.6063101291656494,0.3180632993370126,67.0,674.0,0.0
Y,R,"[6, 9]",1.0,5.0,0.41360902786254883,2.129610061645508,0.614179234074671,67.0,675.0,0.0
Y,R,"[6, 10]",1.0,6.0,0.23807811737060547,1.6902740001678467,0.35468152605365266,67.0,676.0,0.0
R,U,"[5, 10]",1.0,7.0,0.25806307792663574,1.8139679431915283,0.45197777091026203,67.0,677.0,0.0
B,L,"[5, 9]",0.0,7.0,0.3162829875946045,1.9519939422607422,0.5373567125055381,67.0,678.0,0.0
R,U,"[4, 9]",1.0,8.0,0.40685391426086426,2.1713321208953857,0.6584932805846015,67.0,679.0,0.0
R,U,"[3, 9]",-2.0,8.0,1.981679916381836,3.422184944152832,0.4144303894729895,67.0,680.0,0.0
,,"(6, 6)",,,,,,,,
R,U,"[5, 6]",1.0,1.0,0.431318998336792,3.037147045135498,0.4182118907085827,68.0,681.0,0.0
Y,R,"[5, 7]",1.0,2.0,0.3442239761352539,2.1757280826568604,0.7271080612519489,68.0,682.0,0.0
Y,R,"[5, 8]",1.0,3.0,0.22957420349121094,1.787580966949463,0.4648688555629176,68.0,683.0,0.0
G,D,"[6, 8]",1.0,4.0,0.2997419834136963,1.658153772354126,0.25672451454801737,68.0,684.0,0.0
Y,R,"[6, 9]",1.0,5.0,0.29967308044433594,2.084995985031128,0.6914085488437531,68.0,685.0,0.0
Y,R,"[6, 10]",1.0,6.0,0.1916050910949707,1.7639248371124268,0.47225956037696987,68.0,686.0,0.0
R,U,"[5, 10]",1.0,7.0,0.21580100059509277,1.8256258964538574,0.5145422690215455,68.0,687.0,0.0
R,U,"[4, 10]",1.0,8.0,0.24268102645874023,2.0261127948760986,0.6737660203815891,68.0,688.0,0.0
B,L,"[4, 9]",1.0,9.0,0.13033699989318848,1.895266056060791,0.6692345668632969,68.0,689.0,0.0
R,U,"[3, 9]",1.0,10.0,0.22317194938659668,1.8988549709320068,0.5681753467230953,68.0,690.0,0.0
,,"(6, 6)",,,,,,,,
R,U,"[5, 6]",1.0,1.0,0.5746371746063232,2.7600269317626953,0.7281579491652339,69.0,691.0,0.0
Y,R,"[5, 7]",1.0,2.0,0.26112818717956543,1.7826650142669678,0.4279511684835982,69.0,692.0,0.0
Y,R,"[5, 8]",1.0,3.0,0.25484299659729004,1.9564759731292725,0.6008193303293408,69.0,693.0,0.0
G,D,"[6, 8]",1.0,4.0,0.38628292083740234,2.00692081451416,0.5246552447205486,69.0,694.0,0.0
Y,R,"[6, 9]",1.0,5.0,0.2194840908050537,1.7136108875274658,0.4049947680915041,69.0,695.0,0.0
Y,R,"[6, 10]",1.0,6.0,0.23487114906311035,1.679426908493042,0.35121595215278023,69.0,696.0,0.0
R,U,"[5, 10]",1.0,7.0,0.12667202949523926,1.63649320602417,0.4043029370297435,69.0,697.0,0.0
R,U,"[4, 10]",-1.0,7.0,0.06800293922424316,5.886676073074341,0.6909027422245908,69.0,698.0,0.0
B,L,"[4, 9]",1.0,8.0,0.3421800136566162,2.153228998184204,0.7108638765242069,69.0,699.0,0.0
R,U,"[3, 9]",1.0,9.0,0.21520781517028809,1.6584300994873047,0.3527352033467627,69.0,700.0,0.0
,,"(6, 6)",,,,,,,,
R,U,"[5, 6]",1.0,1.0,0.7264599800109863,2.6682090759277344,0.737585337944455,70.0,701.0,0.0
Y,R,"[5, 7]",1.0,2.0,0.2699558734893799,1.6624951362609863,0.30053638862499943,70.0,702.0,0.0
Y,R,"[5, 8]",1.0,3.0,0.4153120517730713,2.201759099960327,0.6853028508497232,70.0,703.0,0.0
G,D,"[6, 8]",1.0,4.0,0.20451998710632324,1.6906569004058838,0.3929761762710947,70.0,704.0,0.0
Y,R,"[6, 9]",1.0,5.0,0.33997392654418945,1.894446849822998,0.45418179484032417,70.0,705.0,0.0
Y,R,"[6, 10]",1.0,6.0,0.18989205360412598,1.9425010681152344,0.64637866537387,70.0,706.0,0.0
R,U,"[5, 10]",1.0,7.0,0.23602700233459473,1.6430511474609375,0.30653296792020274,70.0,707.0,0.0
Y,R,"[5, 11]",0.0,7.0,0.27095890045166016,1.72678804397583,0.3667419950558217,70.0,708.0,0.0
Y,R,"[5, 10]",-3.0,7.0,0.550666093826294,2.2898001670837402,0.6395305330699103,70.0,709.0,0.0
R,U,"[4, 10]",-2.0,7.0,1.0404369831085205,2.6383769512176514,0.5614283642404705,70.0,710.0,0.0
,,"(6, 6)",,,,,,,,
R,U,"[5, 6]",1.0,1.0,0.45466089248657227,2.492471933364868,0.504125023050735,71.0,711.0,0.0
Y,R,"[5, 7]",1.0,2.0,0.37578296661376953,2.204864025115967,0.7255234521967868,71.0,712.0,0.0
Y,R,"[5, 8]",1.0,3.0,0.27347588539123535,1.806041955947876,0.4318813469788839,71.0,713.0,0.0
G,D,"[6, 8]",1.0,4.0,0.3136630058288574,1.9693520069122314,0.5513120901389953,71.0,714.0,0.0
Y,R,"[6, 9]",1.0,5.0,0.21614885330200195,1.9602739810943604,0.644637419687702,71.0,715.0,0.0
Y,R,"[6, 10]",1.0,6.0,0.5020580291748047,2.193920135498047,0.6054501340637979,71.0,716.0,0.0
R,U,"[5, 10]",1.0,7.0,0.27025890350341797,2.006571054458618,0.645260397980645,71.0,717.0,0.0
R,U,"[4, 10]",1.0,8.0,0.23724794387817383,1.981767177581787,0.6603667054409701,71.0,718.0,0.0
B,L,"[4, 9]",1.0,9.0,0.247236967086792,1.7237300872802734,0.3844500966706688,71.0,719.0,0.0
R,U,"[3, 9]",1.0,10.0,0.17660307884216309,1.9066190719604492,0.6241815973723799,71.0,720.0,0.0
,,"(6, 6)",,,,,,,,
R,U,"[5, 6]",1.0,1.0,0.5329499244689941,2.7272260189056396,0.7186001958924273,72.0,721.0,0.0
Y,R,"[5, 7]",1.0,2.0,0.2766408920288086,1.7238168716430664,0.342363292766474,72.0,722.0,0.0
Y,R,"[5, 8]",1.0,3.0,0.3489649295806885,2.150329113006592,0.7091553640546493,72.0,723.0,0.0
G,D,"[6, 8]",1.0,4.0,0.19699907302856445,1.798002004623413,0.5073793047208022,72.0,724.0,0.0
Y,R,"[6, 9]",1.0,5.0,0.23631811141967773,1.9218690395355225,0.5957197733333663,72.0,725.0,0.0
Y,R,"[6, 10]",1.0,6.0,0.27198290824890137,2.1309428215026855,0.7432566494975642,72.0,726.0,0.0
R,U,"[5, 10]",1.0,7.0,0.7772159576416016,2.392287015914917,0.5193173437647656,72.0,727.0,0.0
R,U,"[4, 10]",1.0,8.0,0.7593309879302979,2.305448055267334,0.44147133483509116,72.0,728.0,0.0
G,D,"[5, 10]",-2.0,8.0,1.618366003036499,3.123990058898926,0.4822814445018663,72.0,729.0,0.0
R,U,"[4, 10]",0.0,8.0,0.5754501819610596,2.138606071472168,0.45427543383504654,72.0,730.0,0.0
,,"(6, 6)",,,,,,,,
R,U,"[5, 6]",1.0,1.0,0.3414440155029297,2.609802007675171,0.5307919634589946,73.0,731.0,0.0
Y,R,"[5, 7]",1.0,2.0,0.2150590419769287,1.9902019500732422,0.6708443606438876,73.0,732.0,0.0
Y,R,"[5, 8]",1.0,3.0,0.19782805442810059,1.7372570037841797,0.44170828317143784,73.0,733.0,0.0
G,D,"[6, 8]",1.0,4.0,0.22264599800109863,1.8311638832092285,0.5060833381229053,73.0,734.0,0.0
Y,R,"[6, 9]",1.0,5.0,0.2684910297393799,1.910109043121338,0.5496714289099536,73.0,735.0,0.0
Y,R,"[6, 10]",1.0,6.0,0.2208709716796875,2.026937961578369,0.7097777388193182,73.0,736.0,0.0
R,U,"[5, 10]",1.0,7.0,0.21515297889709473,1.6002898216247559,0.29392076706917314,73.0,737.0,0.0
R,U,"[4, 10]",1.0,8.0,0.3063199520111084,1.7236368656158447,0.3174624220785933,73.0,738.0,0.0
B,L,"[4, 9]",1.0,9.0,0.2368922233581543,1.8739418983459473,0.5413663537840957,73.0,739.0,0.0
R,U,"[3, 9]",1.0,10.0,0.2215890884399414,1.9422328472137451,0.6165418782895589,73.0,740.0,0.0
,,"(6, 6)",,,,,,,,
R,U,"[5, 6]",1.0,1.0,0.41439008712768555,3.812161922454834,0.5458600595470995,74.0,741.0,0.0
Y,R,"[5, 7]",1.0,2.0,0.15118694305419922,1.8722569942474365,0.6179851176098681,74.0,742.0,0.0
Y,R,"[5, 8]",1.0,3.0,0.2534317970275879,1.7356209754943848,0.3873250249670837,74.0,743.0,0.0
G,D,"[6, 8]",1.0,4.0,0.28404808044433594,1.7892091274261475,0.40996946374885923,74.0,744.0,0.0
Y,R,"[6, 9]",1.0,5.0,0.3729398250579834,1.820533037185669,0.34716778172696466,74.0,745.0,0.0
Y,R,"[6, 10]",1.0,6.0,0.18898606300354004,1.7013909816741943,0.41525723130449815,74.0,746.0,0.0
R,U,"[5, 10]",1.0,7.0,0.16156697273254395,1.7398569583892822,0.47168890377338607,74.0,747.0,0.0
R,U,"[4, 10]",1.0,8.0,0.21531391143798828,1.634840965270996,0.32333818308583917,74.0,748.0,0.0
Y,R,"[4, 11]",0.0,8.0,0.5320460796356201,2.0594019889831543,0.43280504328294334,74.0,749.0,0.0
R,U,"[3, 11]",0.0,8.0,0.38443684577941895,2.0383830070495605,0.5545386732551487,74.0,750.0,0.0
,,"(6, 6)",,,,,,,,
R,U,"[5, 6]",1.0,1.0,0.3401618003845215,6.0548999309539795,0.6261174120559045,75.0,751.0,0.0
Y,R,"[5, 7]",1.0,2.0,0.28932690620422363,1.7078008651733398,0.31758495093946537,75.0,752.0,0.0
Y,R,"[5, 8]",1.0,3.0,0.3818190097808838,1.9566068649291992,0.47404169278047353,75.0,753.0,0.0
G,D,"[6, 8]",1.0,4.0,0.19584894180297852,1.5443048477172852,0.25198240583778364,75.0,754.0,0.0
Y,R,"[6, 9]",1.0,5.0,0.5279278755187988,2.0001349449157715,0.3688481994453417,75.0,755.0,0.0
Y,R,"[6, 10]",1.0,6.0,0.4439270496368408,2.0818259716033936,0.5338819269371871,75.0,756.0,0.0
R,U,"[5, 10]",1.0,7.0,0.4286231994628906,2.075044870376587,0.5421884600753659,75.0,757.0,0.0
R,U,"[4, 10]",1.0,8.0,0.26111793518066406,1.6676290035247803,0.310120868902183,75.0,758.0,0.0
B,L,"[4, 9]",1.0,9.0,0.44577598571777344,2.045516014099121,0.5054569245679956,75.0,759.0,0.0
R,U,"[3, 9]",1.0,10.0,0.20099091529846191,1.854835033416748,0.5603673326413926,75.0,760.0,0.0
,,"(6, 6)",,,,,,,,
R,U,"[5, 6]",1.0,1.0,0.6112778186798096,15.545216083526611,0.5394417617085161,76.0,761.0,0.0
Y,R,"[5, 7]",1.0,2.0,0.24635887145996094,1.896928071975708,0.5530757379469027,76.0,762.0,0.0
Y,R,"[5, 8]",1.0,3.0,0.22134900093078613,1.9403221607208252,0.6100213076818608,76.0,763.0,0.0
G,D,"[6, 8]",1.0,4.0,0.26204991340637207,1.9109430313110352,0.554437984383275,76.0,764.0,0.0
Y,R,"[6, 9]",1.0,5.0,0.24695587158203125,1.6346509456634521,0.28932107408486507,76.0,765.0,0.0
Y,R,"[6, 10]",1.0,6.0,0.27515506744384766,1.8034520149230957,0.425971416241879,76.0,766.0,0.0
R,U,"[5, 10]",1.0,7.0,0.2600579261779785,1.7934341430664062,0.43626318747853204,76.0,767.0,0.0
R,U,"[4, 10]",1.0,8.0,0.3541371822357178,2.091733932495117,0.6110200446060712,76.0,768.0,0.0
G,D,"[5, 10]",0.0,8.0,0.993884801864624,2.5285630226135254,0.4400287628686251,76.0,769.0,0.0
R,U,"[4, 10]",0.0,8.0,0.9386260509490967,2.765989065170288,0.7223045617617895,76.0,770.0,0.0
,,"(6, 6)",,,,,,,,
R,U,"[5, 6]",1.0,1.0,0.38152289390563965,2.9145572185516357,0.5870993385954006,77.0,771.0,0.0
Y,R,"[5, 7]",1.0,2.0,0.41328001022338867,2.0386481285095215,0.5258733311374412,77.0,772.0,0.0
Y,R,"[5, 8]",1.0,3.0,0.23827791213989258,1.937129020690918,0.5963209614600625,77.0,773.0,0.0
G,D,"[6, 8]",-1.0,3.0,0.07169485092163086,5.82550311088562,0.6220480951511574,77.0,774.0,0.0
Y,R,"[6, 9]",1.0,4.0,0.2407841682434082,1.5994770526885986,0.25518895600351416,77.0,775.0,0.0
Y,R,"[6, 10]",1.0,5.0,0.27091217041015625,1.779472827911377,0.4012270414824452,77.0,776.0,0.0
R,U,"[5, 10]",1.0,6.0,0.2196669578552246,1.8568768501281738,0.5247578667984605,77.0,777.0,0.0
R,U,"[4, 10]",1.0,7.0,0.1865708827972412,1.565640926361084,0.2906512015703641,77.0,778.0,0.0
G,D,"[5, 10]",0.0,7.0,0.763124942779541,2.479189872741699,0.6195348564770351,77.0,779.0,0.0
R,U,"[4, 10]",0.0,7.0,0.24295282363891602,1.8635070323944092,0.5166423969324236,77.0,780.0,0.0
,,"(6, 6)",,,,,,,,
R,U,"[5, 6]",1.0,1.0,0.3339998722076416,2.734689950942993,0.2684138477412489,78.0,781.0,0.0
Y,R,"[5, 7]",1.0,2.0,0.46901607513427734,1.9733779430389404,0.4079198910962138,78.0,782.0,0.0
Y,R,"[5, 8]",1.0,3.0,0.22197890281677246,1.7029950618743896,0.3778778156497495,78.0,783.0,0.0
G,D,"[6, 8]",1.0,4.0,0.2363109588623047,2.0275309085845947,0.7052401404519151,78.0,784.0,0.0
Y,R,"[6, 9]",-1.0,4.0,0.06728506088256836,5.684731960296631,0.4903704178855674,78.0,785.0,0.0
Y,R,"[6, 10]",1.0,5.0,0.29898905754089355,1.6703860759735107,0.2776358528005245,78.0,786.0,0.0
R,U,"[5, 10]",1.0,6.0,0.2403090000152588,1.8439140319824219,0.504603650526688,78.0,787.0,0.0
R,U,"[4, 10]",1.0,7.0,0.21991586685180664,1.993372917175293,0.6813730133400987,78.0,788.0,0.0
B,L,"[4, 9]",1.0,8.0,0.23336195945739746,1.9530398845672607,0.6178158626172361,78.0,789.0,0.0
R,U,"[3, 9]",1.0,9.0,0.17461490631103516,1.6713449954986572,0.38938819133904856,78.0,790.0,0.0
,,"(6, 6)",,,,,,,,
R,U,"[5, 6]",1.0,1.0,0.398482084274292,2.5859060287475586,0.3254964107314802,79.0,791.0,0.0
Y,R,"[5, 7]",1.0,2.0,0.25261402130126953,1.737253189086914,0.3957319673919073,79.0,792.0,0.0
Y,R,"[5, 8]",1.0,3.0,0.16170191764831543,1.9618809223175049,0.6908823409844143,79.0,793.0,0.0
G,D,"[6, 8]",1.0,4.0,0.3550548553466797,2.151540994644165,0.7092145877791931,79.0,794.0,0.0
Y,R,"[6, 9]",1.0,5.0,0.23584389686584473,1.8120501041412354,0.4882976785883184,79.0,795.0,0.0
Y,R,"[6, 10]",1.0,6.0,0.2146608829498291,1.8503789901733398,0.5385629094405635,79.0,796.0,0.0
R,U,"[5, 10]",1.0,7.0,0.19848990440368652,1.9696660041809082,0.6747651388786575,79.0,797.0,0.0
R,U,"[4, 10]",1.0,8.0,0.21369600296020508,1.995723009109497,0.6872333301265603,79.0,798.0,0.0
B,L,"[4, 9]",1.0,9.0,0.21246099472045898,1.570275068283081,0.2580486348669391,79.0,799.0,0.0
R,U,"[3, 9]",1.0,10.0,0.2659590244293213,2.1030631065368652,0.7439110701273962,79.0,800.0,0.0
,,"(6, 6)",,,,,,,,
R,U,"[5, 6]",1.0,1.0,0.3785271644592285,5.354269027709961,0.5652468919047767,80.0,801.0,0.0
Y,R,"[5, 7]",1.0,2.0,0.2939620018005371,2.0642330646514893,0.6628731099131,80.0,802.0,0.0
Y,R,"[5, 8]",1.0,3.0,0.24907588958740234,1.9334900379180908,0.5797365804540715,80.0,803.0,0.0
G,D,"[6, 8]",1.0,4.0,0.23689603805541992,1.784301996231079,0.44768384741201056,80.0,804.0,0.0
Y,R,"[6, 9]",1.0,5.0,0.2587451934814453,1.8349189758300781,0.4658039688618722,80.0,805.0,0.0
Y,R,"[6, 10]",1.0,6.0,0.2587108612060547,1.981215000152588,0.6136433791826035,80.0,806.0,0.0
R,U,"[5, 10]",1.0,7.0,0.34001612663269043,1.7474908828735352,0.29481166553999694,80.0,807.0,0.0
R,U,"[4, 10]",1.0,8.0,0.24789690971374512,1.7328970432281494,0.39433967908907896,80.0,808.0,0.0
B,L,"[4, 9]",1.0,9.0,0.2685229778289795,1.6844151020050049,0.32885977963395674,80.0,809.0,0.0
R,U,"[3, 9]",1.0,10.0,0.1614060401916504,1.7576589584350586,0.5031319776562642,80.0,810.0,0.0
,,"(6, 6)",,,,,,,,
R,U,"[5, 6]",1.0,1.0,0.44675183296203613,2.6291329860687256,0.7320740924109872,81.0,811.0,0.0
Y,R,"[5, 7]",1.0,2.0,0.2073678970336914,1.7723629474639893,0.45458674631223595,81.0,812.0,0.0
Y,R,"[5, 8]",-1.0,2.0,0.012005090713500977,5.561910152435303,0.41688696795255503,81.0,813.0,0.0
G,D,"[6, 8]",1.0,3.0,0.2452409267425537,1.6489479541778564,0.29940166003082824,81.0,814.0,0.0
Y,R,"[6, 9]",1.0,4.0,0.22539401054382324,1.6924779415130615,0.35845879139338527,81.0,815.0,0.0
Y,R,"[6, 10]",1.0,5.0,0.2401440143585205,2.0305328369140625,0.6886069843882029,81.0,816.0,0.0
R,U,"[5, 10]",1.0,6.0,0.20993280410766602,1.9852268695831299,0.6736112456081238,81.0,817.0,0.0
R,U,"[4, 10]",-1.0,6.0,0.07041096687316895,5.462051868438721,0.27002438433487025,81.0,818.0,0.0
B,L,"[4, 9]",1.0,7.0,0.2999229431152344,2.008284091949463,0.6112265490846107,81.0,819.0,0.0
R,U,"[3, 9]",1.0,8.0,0.19501996040344238,1.8703200817108154,0.5817030650848702,81.0,820.0,0.0
,,"(6, 6)",,,,,,,,
R,U,"[5, 6]",1.0,1.0,0.3066139221191406,2.603766918182373,0.2524283088574884,82.0,821.0,0.0
Y,R,"[5, 7]",1.0,2.0,0.3548729419708252,2.0058369636535645,0.5414516576996808,82.0,822.0,0.0
Y,R,"[5, 8]",1.0,3.0,0.24802899360656738,1.9161028861999512,0.5742669211691946,82.0,823.0,0.0
G,D,"[6, 8]",1.0,4.0,0.2423081398010254,1.8259520530700684,0.4836310947659912,82.0,824.0,0.0
Y,R,"[6, 9]",1.0,5.0,0.2660222053527832,1.6687829494476318,0.3026413786413775,82.0,825.0,0.0
Y,R,"[6, 10]",1.0,6.0,0.25145697593688965,1.981827974319458,0.6342626612615454,82.0,826.0,0.0
R,U,"[5, 10]",1.0,7.0,0.20746111869812012,1.796903133392334,0.48107786346583653,82.0,827.0,0.0
R,U,"[4, 10]",1.0,8.0,0.2344529628753662,1.74310302734375,0.40786495553017943,82.0,828.0,0.0
B,L,"[4, 9]",1.0,9.0,0.2729470729827881,2.0284080505371094,0.6528000073372587,82.0,829.0,0.0
R,U,"[3, 9]",1.0,10.0,0.21781086921691895,1.7961540222167969,0.4825301148405118,82.0,830.0,0.0
,,"(6, 6)",,,,,,,,
R,U,"[5, 6]",1.0,1.0,0.47279810905456543,2.7850310802459717,0.7174846006269846,83.0,831.0,0.0
Y,R,"[5, 7]",1.0,2.0,0.20246386528015137,1.7773690223693848,0.4782962648820906,83.0,832.0,0.0
Y,R,"[5, 8]",1.0,3.0,0.27403998374938965,1.988306999206543,0.616559009222845,83.0,833.0,0.0
G,D,"[6, 8]",1.0,4.0,0.24121594429016113,2.015543222427368,0.6655198547108319,83.0,834.0,0.0
Y,R,"[6, 9]",1.0,5.0,0.3904151916503906,1.9602570533752441,0.4592183884161709,83.0,835.0,0.0
Y,R,"[6, 10]",1.0,6.0,0.26651501655578613,2.0848231315612793,0.7271664199376681,83.0,836.0,0.0
R,U,"[5, 10]",1.0,7.0,0.2274022102355957,1.7876839637756348,0.465268940807607,83.0,837.0,0.0
R,U,"[4, 10]",1.0,8.0,0.22513413429260254,1.826098918914795,0.4912967153067882,83.0,838.0,0.0
B,L,"[4, 9]",1.0,9.0,0.8107330799102783,2.653439998626709,0.7444147129969583,83.0,839.0,0.0
R,U,"[3, 9]",1.0,10.0,0.253925085067749,1.5941569805145264,0.25597147642602236,83.0,840.0,0.0
,,"(6, 6)",,,,,,,,
R,U,"[5, 6]",1.0,1.0,0.47182393074035645,2.6183481216430664,0.6240129113997763,84.0,841.0,0.0
Y,R,"[5, 7]",1.0,2.0,0.5671689510345459,2.1600100994110107,0.5008412977118082,84.0,842.0,0.0
Y,R,"[5, 8]",1.0,3.0,0.34453797340393066,1.8620810508728027,0.413083437273041,84.0,843.0,0.0
G,D,"[6, 8]",1.0,4.0,0.28392505645751953,1.9847722053527832,0.5977100010906862,84.0,844.0,0.0
Y,R,"[6, 9]",1.0,5.0,0.24084019660949707,1.9969890117645264,0.6446957490922516,84.0,845.0,0.0
Y,R,"[6, 10]",1.0,6.0,0.2372729778289795,1.8148760795593262,0.4931878484384779,84.0,846.0,0.0
R,U,"[5, 10]",1.0,7.0,0.25086092948913574,1.5997271537780762,0.2597253515285408,84.0,847.0,0.0
R,U,"[4, 10]",1.0,8.0,0.3039059638977051,2.0552380084991455,0.6647640047436773,84.0,848.0,0.0
B,L,"[4, 9]",1.0,9.0,0.24546194076538086,1.8224780559539795,0.4707487806328514,84.0,849.0,0.0
R,U,"[3, 9]",1.0,10.0,0.2436068058013916,1.6210358142852783,0.2753381572981074,84.0,850.0,0.0
,,"(6, 6)",,,,,,,,
R,U,"[5, 6]",1.0,1.0,0.2894480228424072,2.86027193069458,0.4688322481595781,85.0,851.0,0.0
Y,R,"[5, 7]",1.0,2.0,0.22637295722961426,1.66286301612854,0.33202560462949593,85.0,852.0,0.0
Y,R,"[5, 8]",1.0,3.0,0.25412893295288086,1.8124470710754395,0.46094383209972817,85.0,853.0,0.0
G,D,"[6, 8]",1.0,4.0,0.4570040702819824,2.2626230716705322,0.7068792242986961,85.0,854.0,0.0
Y,R,"[6, 9]",1.0,5.0,0.387376070022583,1.7470510005950928,0.27099713524561153,85.0,855.0,0.0
Y,R,"[6, 10]",1.0,6.0,0.3000907897949219,1.7282419204711914,0.33249058325594244,85.0,856.0,0.0
R,U,"[5, 10]",1.0,7.0,0.1511549949645996,1.8072500228881836,0.5562663466567221,85.0,857.0,0.0
R,U,"[4, 10]",1.0,8.0,0.21815800666809082,2.0042078495025635,0.6936952128766707,85.0,858.0,0.0
B,L,"[4, 9]",-1.0,8.0,0.08194494247436523,5.871279001235962,0.6652564081605641,85.0,859.0,0.0
R,U,"[3, 9]",1.0,9.0,0.3054978847503662,1.7011220455169678,0.30012645659474935,85.0,860.0,0.0
,,"(6, 6)",,,,,,,,
R,U,"[5, 6]",1.0,1.0,0.19479703903198242,2.227513074874878,0.62711078890972,86.0,861.0,0.0
Y,R,"[5, 7]",1.0,2.0,0.14785003662109375,1.5526411533355713,0.31352628933927124,86.0,862.0,0.0
Y,R,"[5, 8]",1.0,3.0,0.2689659595489502,1.7285771369934082,0.3588405375234594,86.0,863.0,0.0
G,D,"[6, 8]",1.0,4.0,0.22331690788269043,1.6109309196472168,0.28666069296296603,86.0,864.0,0.0
Y,R,"[6, 9]",1.0,5.0,0.5158259868621826,1.9509868621826172,0.3372808061579408,86.0,865.0,0.0
Y,R,"[6, 10]",1.0,6.0,0.2934849262237549,2.0618410110473633,0.6657834315140514,86.0,866.0,0.0
R,U,"[5, 10]",1.0,7.0,0.39018702507019043,2.0338399410247803,0.5332899511326765,86.0,867.0,0.0
R,U,"[4, 10]",1.0,8.0,0.25311899185180664,1.7922568321228027,0.44221813791934844,86.0,868.0,0.0
B,L,"[4, 9]",1.0,9.0,0.2560889720916748,1.9886269569396973,0.6309959743441327,86.0,869.0,0.0
R,U,"[3, 9]",1.0,10.0,0.16387391090393066,1.8925678730010986,0.6234150309989334,86.0,870.0,0.0
,,"(6, 6)",,,,,,,,
R,U,"[5, 6]",1.0,1.0,0.548896074295044,2.303690195083618,0.47731648394151305,87.0,871.0,0.0
Y,R,"[5, 7]",-1.0,1.0,0.09915280342102051,5.8188700675964355,0.596156257989829,87.0,872.0,0.0
Y,R,"[5, 8]",1.0,2.0,0.33243298530578613,2.0036749839782715,0.566596061234568,87.0,873.0,0.0
Y,R,"[5, 9]",0.0,2.0,0.2966580390930176,2.0034279823303223,0.6033767616879243,87.0,874.0,0.0
R,U,"[4, 9]",1.0,3.0,0.530073881149292,2.1606831550598145,0.5309205752349053,87.0,875.0,0.0
R,U,"[3, 9]",1.0,4.0,0.1889510154724121,1.9766290187835693,0.6741545656440853,87.0,876.0,0.0
B,L,"[3, 8]",0.0,4.0,0.4304490089416504,2.134104013442993,0.6082719748786356,87.0,877.0,0.0
R,U,"[2, 8]",0.0,4.0,0.19140887260437012,1.8811230659484863,0.6061173744940269,87.0,878.0,0.0
G,D,"[3, 8]",-1.0,4.0,0.08129405975341797,5.7748188972473145,0.5644939207998271,87.0,879.0,0.0
G,D,"[4, 8]",0.0,4.0,0.24957513809204102,1.9800708293914795,0.6278586358268157,87.0,880.0,0.0
,,"(6, 6)",,,,,,,,
R,U,"[5, 6]",1.0,1.0,0.3415820598602295,3.829735040664673,0.37469417359624607,88.0,881.0,0.0
Y,R,"[5, 7]",1.0,2.0,0.3117940425872803,1.9649901390075684,0.5561353577872337,88.0,882.0,0.0
Y,R,"[5, 8]",1.0,3.0,0.22545599937438965,1.8355140686035156,0.5084890908479196,88.0,883.0,0.0
G,D,"[6, 8]",1.0,4.0,0.2229459285736084,1.9309251308441162,0.6059662443219406,88.0,884.0,0.0
Y,R,"[6, 9]",1.0,5.0,0.22057604789733887,1.993178129196167,0.6824295273768688,88.0,885.0,0.0
Y,R,"[6, 10]",1.0,6.0,0.22182607650756836,1.8417589664459229,0.5244618873686273,88.0,886.0,0.0
R,U,"[5, 10]",1.0,7.0,0.19531488418579102,1.543004035949707,0.25113529238543436,88.0,887.0,0.0
R,U,"[4, 10]",1.0,8.0,0.366487979888916,2.132735013961792,0.6670889358498674,88.0,888.0,0.0
B,L,"[4, 9]",1.0,9.0,0.285236120223999,1.8853540420532227,0.5026145187794728,88.0,889.0,0.0
R,U,"[3, 9]",1.0,10.0,0.21288299560546875,1.862760066986084,0.5484815459159366,88.0,890.0,0.0
,,"(6, 6)",,,,,,,,
R,U,"[5, 6]",1.0,1.0,0.2853670120239258,2.414842128753662,0.5967368065283112,89.0,891.0,0.0
Y,R,"[5, 7]",1.0,2.0,0.41808295249938965,2.1557180881500244,0.6354275208752354,89.0,892.0,0.0
Y,R,"[5, 8]",1.0,3.0,0.44385504722595215,2.287891149520874,0.7400651041494408,89.0,893.0,0.0
G,D,"[6, 8]",1.0,4.0,0.23972296714782715,1.9163079261779785,0.5731112656329811,89.0,894.0,0.0
Y,R,"[6, 9]",1.0,5.0,0.23491907119750977,1.650223970413208,0.3235779198601396,89.0,895.0,0.0
Y,R,"[6, 10]",1.0,6.0,0.2759699821472168,2.1075501441955566,0.730627843479476,89.0,896.0,0.0
R,U,"[5, 10]",1.0,7.0,0.5574121475219727,2.10440993309021,0.43539469325548597,89.0,897.0,0.0
R,U,"[4, 10]",1.0,8.0,0.20160698890686035,1.892225980758667,0.5942321304876845,89.0,898.0,0.0
B,L,"[4, 9]",1.0,9.0,0.24424386024475098,1.782020092010498,0.44304587058704503,89.0,899.0,0.0
R,U,"[3, 9]",1.0,10.0,0.2330479621887207,2.0033349990844727,0.6794262990644799,89.0,900.0,0.0
,,"(6, 6)",,,,,,,,
R,U,"[5, 6]",1.0,1.0,0.38956785202026367,2.340954065322876,0.2707951963617361,90.0,901.0,0.0
B,L,"[5, 5]",0.0,1.0,0.22957992553710938,2.0622169971466064,0.7324856035781449,90.0,902.0,0.0
Y,R,"[5, 6]",0.0,1.0,0.186431884765625,1.7419471740722656,0.45811540820481644,90.0,903.0,0.0
R,U,"[4, 6]",0.0,1.0,0.3890380859375,1.9889600276947021,0.49703990767727396,90.0,904.0,0.0
R,U,"[3, 6]",0.0,1.0,0.2722339630126953,2.0543529987335205,0.6678563206859167,90.0,905.0,0.0
G,D,"[4, 6]",0.0,1.0,0.40838098526000977,2.021901845932007,0.5065590870570874,90.0,906.0,0.0
G,D,"[5, 6]",0.0,1.0,0.6626091003417969,2.1106009483337402,0.35062312492875775,90.0,907.0,0.0
G,D,"[6, 6]",0.0,1.0,0.47211313247680664,1.8801360130310059,0.2975235021892889,90.0,908.0,0.0
G,D,"[7, 6]",0.0,1.0,0.22797608375549316,1.7946348190307617,0.45880492007464174,90.0,909.0,0.0
G,D,"[8, 6]",0.0,1.0,0.1437368392944336,1.589993953704834,0.3488244018161748,90.0,910.0,0.0
,,"(6, 6)",,,,,,,,
R,U,"[5, 6]",1.0,1.0,0.6658611297607422,3.74212908744812,0.2577157661063058,91.0,911.0,0.0
Y,R,"[5, 7]",1.0,2.0,0.22355413436889648,1.8669319152832031,0.5409617705720491,91.0,912.0,0.0
Y,R,"[5, 8]",1.0,3.0,0.27003002166748047,1.8346030712127686,0.4757410172562563,91.0,913.0,0.0
G,D,"[6, 8]",1.0,4.0,0.30353689193725586,2.008502960205078,0.6173778667563775,91.0,914.0,0.0
Y,R,"[6, 9]",1.0,5.0,0.2121129035949707,1.6406610012054443,0.3249232206544092,91.0,915.0,0.0
Y,R,"[6, 10]",1.0,6.0,0.24893999099731445,1.875736951828003,0.533850981215611,91.0,916.0,0.0
R,U,"[5, 10]",1.0,7.0,0.2139599323272705,1.8360991477966309,0.519755938186528,91.0,917.0,0.0
B,L,"[5, 9]",0.0,7.0,0.2752201557159424,1.8235039710998535,0.44354397929271905,91.0,918.0,0.0
R,U,"[4, 9]",1.0,8.0,0.2826840877532959,1.7206659317016602,0.34771568448176887,91.0,919.0,0.0
R,U,"[3, 9]",1.0,9.0,0.24841713905334473,1.7744619846343994,0.42200949465646403,91.0,920.0,0.0
,,"(6, 6)",,,,,,,,
R,U,"[5, 6]",1.0,1.0,0.3796529769897461,3.6856799125671387,0.474322109569515,92.0,921.0,0.0
Y,R,"[5, 7]",-1.0,1.0,0.022680044174194336,5.413949012756348,0.27189288353275587,92.0,922.0,0.0
Y,R,"[5, 8]",1.0,2.0,0.46703100204467773,2.1591689586639404,0.5973254797091887,92.0,923.0,0.0
R,U,"[4, 8]",0.0,2.0,0.7843639850616455,2.399930000305176,0.5138233394505736,92.0,924.0,0.0
R,U,"[3, 8]",0.0,2.0,0.23842501640319824,1.8552899360656738,0.502721545640926,92.0,925.0,0.0
R,U,"[2, 8]",0.0,2.0,0.6935579776763916,2.501009941101074,0.7035316507647917,92.0,926.0,0.0
R,U,"[1, 8]",-1.0,2.0,0.06922292709350586,5.928347110748291,0.7318822332219632,92.0,927.0,0.0
R,U,"[2, 8]",-3.0,2.0,0.6207680702209473,2.2895419597625732,0.571515166801434,92.0,928.0,0.0
R,U,"[1, 8]",0.0,2.0,0.770334005355835,2.559899091720581,0.6982442364004874,92.0,929.0,0.0
R,U,"[2, 8]",-3.0,2.0,0.3407599925994873,2.087122917175293,0.6350183364581834,92.0,930.0,0.0
,,"(6, 6)",,,,,,,,
R,U,"[5, 6]",1.0,1.0,0.4852030277252197,3.507596015930176,0.7427424837352437,93.0,931.0,0.0
Y,R,"[5, 7]",1.0,2.0,0.25942492485046387,1.6590189933776855,0.30198436317825267,93.0,932.0,0.0
Y,R,"[5, 8]",1.0,3.0,0.49385595321655273,2.0847578048706055,0.4867833811111017,93.0,933.0,0.0
G,D,"[6, 8]",1.0,4.0,0.2919619083404541,2.009552001953125,0.6128765672639518,93.0,934.0,0.0
Y,R,"[6, 9]",1.0,5.0,0.21692180633544922,1.8347070217132568,0.5142733552243735,93.0,935.0,0.0
Y,R,"[6, 10]",1.0,6.0,0.27365899085998535,1.7002699375152588,0.3147982694725515,93.0,936.0,0.0
R,U,"[5, 10]",1.0,7.0,0.2507040500640869,2.094367027282715,0.7420369028069629,93.0,937.0,0.0
R,U,"[4, 10]",-1.0,7.0,0.07542991638183594,5.62202787399292,0.43105440467370976,93.0,938.0,0.0
B,L,"[4, 9]",1.0,8.0,0.2234659194946289,1.9183409214019775,0.582515943347645,93.0,939.0,0.0
R,U,"[3, 9]",1.0,9.0,0.20969104766845703,1.7167718410491943,0.3995289274699017,93.0,940.0,0.0
,,"(6, 6)",,,,,,,,
R,U,"[5, 6]",1.0,1.0,0.30617594718933105,3.5512750148773193,0.6504952668095483,94.0,941.0,0.0
Y,R,"[5, 7]",-1.0,1.0,0.09133601188659668,5.937146902084351,0.7042762861810596,94.0,942.0,0.0
Y,R,"[5, 8]",1.0,2.0,0.6434249877929688,2.1027538776397705,0.3574232057176342,94.0,943.0,0.0
G,D,"[6, 8]",1.0,3.0,0.5222258567810059,2.3719089031219482,0.7454377479086145,94.0,944.0,0.0
Y,R,"[6, 9]",1.0,4.0,0.16845488548278809,1.9618949890136719,0.707513934706508,94.0,945.0,0.0
Y,R,"[6, 10]",1.0,5.0,0.22799396514892578,1.8681011199951172,0.5424614096770943,94.0,946.0,0.0
R,U,"[5, 10]",1.0,6.0,0.2652871608734131,1.747131109237671,0.38982134395099793,94.0,947.0,0.0
R,U,"[4, 10]",1.0,7.0,0.26549482345581055,1.613914966583252,0.2538657470059289,94.0,948.0,0.0
B,L,"[4, 9]",1.0,8.0,0.47846508026123047,2.155021905899048,0.5752212508998238,94.0,949.0,0.0
R,U,"[3, 9]",-1.0,8.0,0.04969000816345215,5.9149041175842285,0.7399268341724696,94.0,950.0,0.0
,,"(6, 6)",,,,,,,,
R,U,"[5, 6]",1.0,1.0,0.7798957824707031,11.695863962173462,0.4695177552226746,95.0,951.0,0.0
Y,R,"[5, 7]",1.0,2.0,0.3719339370727539,2.0913290977478027,0.610707741866066,95.0,952.0,0.0
Y,R,"[5, 8]",1.0,3.0,0.25132107734680176,1.953258991241455,0.6140860547151432,95.0,953.0,0.0
G,D,"[6, 8]",1.0,4.0,0.2169477939605713,1.6107439994812012,0.29183126004682197,95.0,954.0,0.0
R,U,"[5, 8]",0.0,4.0,0.3089570999145508,2.0281360149383545,0.6195872828436311,95.0,955.0,0.0
Y,R,"[5, 9]",-1.0,4.0,0.06366586685180664,5.945319175720215,0.7484630917168479,95.0,956.0,0.0
R,U,"[4, 9]",1.0,5.0,0.21802186965942383,1.6794710159301758,0.36139817496329607,95.0,957.0,0.0
R,U,"[3, 9]",1.0,6.0,0.2422177791595459,1.874436855316162,0.5356352851684627,95.0,958.0,0.0
Y,R,"[3, 10]",0.0,6.0,0.3940269947052002,1.9314918518066406,0.4337948900260136,95.0,959.0,0.0
R,U,"[2, 10]",0.0,6.0,0.21497511863708496,1.7776448726654053,0.4615641080416956,95.0,960.0,0.0
,,"(6, 6)",,,,,,,,
R,U,"[5, 6]",1.0,1.0,0.33980298042297363,3.1197001934051514,0.5312638104567899,96.0,961.0,0.0
Y,R,"[5, 7]",1.0,2.0,0.2948319911956787,1.670569896697998,0.268617749177369,96.0,962.0,0.0
Y,R,"[5, 8]",1.0,3.0,0.29625582695007324,1.7285139560699463,0.33052572520913465,96.0,963.0,0.0
G,D,"[6, 8]",1.0,4.0,0.355316162109375,2.120013952255249,0.6500702124993336,96.0,964.0,0.0
Y,R,"[6, 9]",1.0,5.0,0.14738702774047852,1.5892651081085205,0.33974333604703977,96.0,965.0,0.0
Y,R,"[6, 10]",1.0,6.0,0.2824211120605469,1.7844209671020508,0.40740864187622,96.0,966.0,0.0
R,U,"[5, 10]",1.0,7.0,0.6106548309326172,1.9722070693969727,0.2632281743424851,96.0,967.0,0.0
R,U,"[4, 10]",1.0,8.0,0.26642489433288574,2.0255041122436523,0.6548616713513344,96.0,968.0,0.0
Y,R,"[4, 11]",0.0,8.0,0.4457969665527344,2.293874979019165,0.748819620470788,96.0,969.0,0.0
R,U,"[3, 11]",0.0,8.0,0.18393802642822266,1.5353000164031982,0.25117893140494013,96.0,970.0,0.0
,,"(6, 6)",,,,,,,,
R,U,"[5, 6]",1.0,1.0,0.3765561580657959,2.415910005569458,0.2672927571040959,97.0,971.0,0.0
Y,R,"[5, 7]",1.0,2.0,0.2884669303894043,1.8759419918060303,0.49274721835300767,97.0,972.0,0.0
Y,R,"[5, 8]",-1.0,2.0,0.06589698791503906,5.717041015625,0.5263928299798892,97.0,973.0,0.0
G,D,"[6, 8]",1.0,3.0,0.21404385566711426,1.6513628959655762,0.34476996630251167,97.0,974.0,0.0
Y,R,"[6, 9]",1.0,4.0,0.39510393142700195,2.0086960792541504,0.5199169977189793,97.0,975.0,0.0
Y,R,"[6, 10]",1.0,5.0,0.2536320686340332,1.884610891342163,0.5378908412271789,97.0,976.0,0.0
R,U,"[5, 10]",1.0,6.0,0.21056509017944336,1.660189151763916,0.348282973038067,97.0,977.0,0.0
R,U,"[4, 10]",1.0,7.0,0.28945493698120117,1.6648750305175781,0.26326765006240677,97.0,978.0,0.0
B,L,"[4, 9]",1.0,8.0,0.23214483261108398,1.861663818359375,0.5247716365458763,97.0,979.0,0.0
R,U,"[3, 9]",1.0,9.0,0.22522497177124023,1.8481600284576416,0.5228507556288049,97.0,980.0,0.0
,,"(6, 6)",,,,,,,,
R,U,"[5, 6]",1.0,1.0,0.4591209888458252,2.856443166732788,0.3795990554747452,98.0,981.0,0.0
Y,R,"[5, 7]",1.0,2.0,0.2515439987182617,1.8934528827667236,0.5395675262599583,98.0,982.0,0.0
Y,R,"[5, 8]",1.0,3.0,0.23535418510437012,1.695478916168213,0.3684398636461635,98.0,983.0,0.0
G,D,"[6, 8]",1.0,4.0,0.46435999870300293,2.27319598197937,0.7080068692477122,98.0,984.0,0.0
Y,R,"[6, 9]",1.0,5.0,0.23488593101501465,1.9281599521636963,0.6028981404846041,98.0,985.0,0.0
Y,R,"[6, 10]",1.0,6.0,0.25150203704833984,1.9714689254760742,0.6243814596548647,98.0,986.0,0.0
R,U,"[5, 10]",1.0,7.0,0.21288299560546875,1.9443368911743164,0.6354933681364683,98.0,987.0,0.0
R,U,"[4, 10]",1.0,8.0,0.23996615409851074,1.8694179058074951,0.5215940138609263,98.0,988.0,0.0
B,L,"[4, 9]",1.0,9.0,0.4514961242675781,2.271650791168213,0.7263387508477588,98.0,989.0,0.0
R,U,"[3, 9]",1.0,10.0,0.29676389694213867,2.037968873977661,0.6477949753342664,98.0,990.0,0.0
,,"(6, 6)",,,,,,,,
R,U,"[5, 6]",1.0,1.0,0.3156871795654297,2.485157012939453,0.4499506716582786,99.0,991.0,0.0
Y,R,"[5, 7]",1.0,2.0,0.22968697547912598,1.612426996231079,0.27916438280669487,99.0,992.0,0.0
Y,R,"[5, 8]",1.0,3.0,0.22571802139282227,2.066768169403076,0.7455712659774234,99.0,993.0,0.0
G,D,"[6, 8]",1.0,4.0,0.22616004943847656,1.5891900062561035,0.26854596793242347,99.0,994.0,0.0
Y,R,"[6, 9]",1.0,5.0,0.22241806983947754,1.9737358093261719,0.658426192227594,99.0,995.0,0.0
Y,R,"[6, 10]",1.0,6.0,0.19161391258239746,1.8818929195404053,0.5900994124006508,99.0,996.0,0.0
R,U,"[5, 10]",1.0,7.0,0.20415711402893066,2.036107063293457,0.7264959485863367,99.0,997.0,0.0
R,U,"[4, 10]",1.0,8.0,0.20789003372192383,1.5864369869232178,0.280105598449522,99.0,998.0,0.0
B,L,"[4, 9]",1.0,9.0,0.2329561710357666,1.997534990310669,0.6605682832090164,99.0,999.0,0.0
R,U,"[3, 9]",1.0,10.0,0.21376800537109375,1.757728099822998,0.4517582979700139,99.0,1000.0,0.0
