button_choice,action_choice,coordinate_choice,reward,cumulative_reward,rt,total_trial_time,iti,block_n,trial_n,trial_type
R,U,"[5, 6]",-2.0,0.0,2.476253032684326,4.065377950668335,0.5493774447343391,0.0,1.0,0.0
G,D,"[6, 6]",0.0,0.0,0.5891480445861816,2.1400861740112305,0.4394734675905721,0.0,2.0,0.0
G,D,"[7, 6]",0.0,0.0,0.4968841075897217,2.3105599880218506,0.7163657986270036,0.0,3.0,0.0
Y,R,"[7, 7]",0.0,0.0,0.32192301750183105,1.674793004989624,0.25830853072766685,0.0,4.0,0.0
B,L,"[7, 6]",0.0,0.0,0.3653719425201416,1.865157127380371,0.40670423241355635,0.0,5.0,0.0
B,L,"[7, 5]",0.0,0.0,0.39255714416503906,1.800389051437378,0.3069157692239701,0.0,6.0,0.0
B,L,"[7, 4]",0.0,0.0,0.2747340202331543,1.9575409889221191,0.5809109054693502,0.0,7.0,0.0
B,L,"[7, 3]",0.0,0.0,0.379040002822876,1.7859561443328857,0.30037069496911534,0.0,8.0,0.0
G,D,"[8, 3]",0.0,0.0,0.2675058841705322,1.6608400344848633,0.2945516386870934,0.0,9.0,0.0
R,U,"[7, 3]",0.0,0.0,0.3544800281524658,2.1357250213623047,0.69684956244754,0.0,10.0,0.0
,,"(6, 6)",,,,,,,,
R,U,"[5, 6]",1.0,1.0,0.5034360885620117,7.491759777069092,0.4548635735158226,1.0,11.0,0.0
R,U,"[4, 6]",0.0,1.0,0.410355806350708,1.8420889377593994,0.33019352625195997,1.0,12.0,0.0
B,L,"[4, 5]",-1.0,1.0,0.01609492301940918,5.540165901184082,0.3868268336517625,1.0,13.0,0.0
B,L,"[4, 4]",0.0,1.0,0.3042881488800049,2.048279047012329,0.6349935953906601,1.0,14.0,0.0
B,L,"[4, 3]",0.0,1.0,0.32651400566101074,2.1546761989593506,0.7227670744640498,1.0,15.0,0.0
Y,R,"[4, 4]",0.0,1.0,0.333482027053833,2.0132269859313965,0.5859392966913266,1.0,16.0,0.0
G,D,"[5, 4]",-1.0,1.0,0.06087493896484375,5.682390928268433,0.4848876444153264,1.0,17.0,0.0
G,D,"[6, 4]",0.0,1.0,0.6203470230102539,2.0202698707580566,0.30526154717527176,1.0,18.0,0.0
G,D,"[7, 4]",-2.0,1.0,1.2126870155334473,2.607522964477539,0.36261085894728856,1.0,19.0,0.0
G,D,"[8, 4]",0.0,1.0,0.3099520206451416,1.7510409355163574,0.3303061419275973,1.0,20.0,0.0
,,"(6, 6)",,,,,,,,
R,U,"[5, 6]",-2.0,0.0,1.7325630187988281,7.09070897102356,0.6038801620347426,2.0,21.0,0.0
R,U,"[4, 6]",0.0,0.0,0.14710593223571777,1.6343181133270264,0.3884157937735497,2.0,22.0,0.0
R,U,"[3, 6]",0.0,0.0,0.3115959167480469,1.6911630630493164,0.279607665223245,2.0,23.0,0.0
Y,R,"[3, 7]",0.0,0.0,0.5230560302734375,2.055722951889038,0.41842408150559474,2.0,24.0,0.0
G,D,"[4, 7]",0.0,0.0,0.23309898376464844,1.9347550868988037,0.6028103939547985,2.0,25.0,0.0
B,L,"[4, 6]",0.0,0.0,0.20067501068115234,1.835226058959961,0.5382204515313487,2.0,26.0,0.0
G,D,"[5, 6]",0.0,0.0,0.28371214866638184,1.978102207183838,0.5994185934453817,2.0,27.0,0.0
B,L,"[5, 5]",0.0,0.0,0.17194485664367676,1.7361550331115723,0.4524177238387221,2.0,28.0,0.0
G,D,"[6, 5]",0.0,0.0,0.32861900329589844,2.1489460468292236,0.7177002598341402,2.0,29.0,0.0
B,L,"[6, 4]",0.0,0.0,0.18056178092956543,1.5754098892211914,0.2934149430178394,2.0,30.0,0.0
,,"(6, 6)",,,,,,,,
G,D,"[7, 6]",0.0,0.0,0.9088549613952637,4.745141983032227,0.255163938061321,3.0,31.0,0.0
G,D,"[8, 6]",0.0,0.0,0.3958561420440674,1.9940950870513916,0.4988840397275358,3.0,32.0,0.0
R,U,"[7, 6]",0.0,0.0,0.383760929107666,1.8406519889831543,0.3562418838951229,3.0,33.0,0.0
Y,R,"[7, 7]",0.0,0.0,0.39244985580444336,2.1094558238983154,0.6154723546640413,3.0,34.0,0.0
B,L,"[7, 6]",0.0,0.0,0.26169800758361816,1.8458890914916992,0.478199306076477,3.0,35.0,0.0
G,D,"[8, 6]",0.0,0.0,0.30849599838256836,1.8536579608917236,0.4483322314388698,3.0,36.0,0.0
B,L,"[8, 5]",0.0,0.0,0.4153139591217041,1.8577680587768555,0.3395420602692428,3.0,37.0,0.0
G,D,"[9, 5]",0.0,0.0,0.29465508460998535,1.7334880828857422,0.33949743347167405,3.0,38.0,0.0
Y,R,"[9, 6]",0.0,0.0,0.2685821056365967,1.8048851490020752,0.44437424413760296,3.0,39.0,0.0
R,U,"[8, 6]",0.0,0.0,0.12126898765563965,1.6722688674926758,0.44990997486078643,3.0,40.0,0.0
,,"(6, 6)",,,,,,,,
R,U,"[5, 6]",-2.0,0.0,1.2161228656768799,7.040730953216553,0.6734137703341859,4.0,41.0,0.0
R,U,"[4, 6]",0.0,0.0,0.16349387168884277,1.8294789791107178,0.5696730924675901,4.0,42.0,0.0
G,D,"[5, 6]",0.0,0.0,0.19105291366577148,1.810797929763794,0.5136499470520357,4.0,43.0,0.0
G,D,"[6, 6]",0.0,0.0,0.15053319931030273,1.7942688465118408,0.5414354450868166,4.0,44.0,0.0
G,D,"[7, 6]",0.0,0.0,0.13313007354736328,1.655923843383789,0.43071422674170295,4.0,45.0,0.0
G,D,"[8, 6]",0.0,0.0,0.1632850170135498,1.7211880683898926,0.4517406357843084,4.0,46.0,0.0
G,D,"[9, 6]",0.0,0.0,0.1416940689086914,1.962141990661621,0.71369785065171,4.0,47.0,0.0
G,D,"[10, 6]",0.0,0.0,0.22791600227355957,1.8768730163574219,0.5405400613450937,4.0,48.0,0.0
G,D,"[11, 6]",0.0,0.0,0.21042084693908691,2.0227811336517334,0.7132428156925853,4.0,49.0,0.0
G,D,"[10, 6]",-3.0,0.0,0.34807515144348145,1.8324639797210693,0.3792692650369074,4.0,50.0,0.0
,,"(6, 6)",,,,,,,,
G,D,"[7, 6]",0.0,0.0,0.9370160102844238,5.013278961181641,0.47565621796217905,5.0,51.0,0.0
G,D,"[8, 6]",0.0,0.0,0.4326498508453369,1.7885560989379883,0.2642846908006887,5.0,52.0,0.0
G,D,"[9, 6]",0.0,0.0,0.26381683349609375,1.7302560806274414,0.3611725733377508,5.0,53.0,0.0
G,D,"[10, 6]",-2.0,0.0,1.3849871158599854,2.898153066635132,0.4922759084318026,5.0,54.0,0.0
G,D,"[11, 6]",0.0,0.0,0.22772002220153809,1.8896889686584473,0.5652783803950447,5.0,55.0,0.0
G,D,"[10, 6]",-3.0,0.0,0.3958010673522949,1.7941651344299316,0.2930135618509476,5.0,56.0,0.0
G,D,"[11, 6]",0.0,0.0,0.2664978504180908,1.8700449466705322,0.5127822332808827,5.0,57.0,0.0
G,D,"[10, 6]",-3.0,0.0,0.18303513526916504,1.7984609603881836,0.5112216547646322,5.0,58.0,0.0
G,D,"[11, 6]",0.0,0.0,0.19464397430419922,1.6124680042266846,0.32370753013820985,5.0,59.0,0.0
G,D,"[10, 6]",-3.0,0.0,0.33194994926452637,1.752161979675293,0.32581881920455397,5.0,60.0,0.0
,,"(6, 6)",,,,,,,,
R,U,"[5, 6]",1.0,1.0,0.6053929328918457,3.5664639472961426,0.7085748005737332,6.0,61.0,0.0
Y,R,"[5, 7]",1.0,2.0,0.6741800308227539,2.259232997894287,0.48462262435024417,6.0,62.0,0.0
G,D,"[6, 7]",0.0,2.0,0.5604360103607178,2.041245937347412,0.3758125343763907,6.0,63.0,0.0
Y,R,"[6, 8]",1.0,3.0,0.5861499309539795,2.2427420616149902,0.5684377828667464,6.0,64.0,0.0
R,U,"[5, 8]",1.0,4.0,0.4354889392852783,2.1914210319519043,0.6596431895956757,6.0,65.0,0.0
B,L,"[5, 7]",0.0,4.0,0.3796839714050293,1.8475651741027832,0.37403152963997277,6.0,66.0,0.0
R,U,"[4, 7]",0.0,4.0,0.41070079803466797,2.123708963394165,0.6142883790852672,6.0,67.0,0.0
Y,R,"[4, 8]",0.0,4.0,0.2172539234161377,1.6967840194702148,0.3778364216560894,6.0,68.0,0.0
G,D,"[5, 8]",0.0,4.0,0.259951114654541,2.1056230068206787,0.7496323290170879,6.0,69.0,0.0
R,U,"[4, 8]",0.0,4.0,0.22429895401000977,1.61993408203125,0.2867325832606295,6.0,70.0,0.0
,,"(6, 6)",,,,,,,,
B,L,"[6, 5]",0.0,0.0,0.6028990745544434,4.257757902145386,0.36099069355880736,7.0,71.0,0.0
G,D,"[7, 5]",0.0,0.0,0.22344112396240234,1.6111118793487549,0.2886540049805284,7.0,72.0,0.0
Y,R,"[7, 6]",0.0,0.0,0.3838050365447998,2.1956639289855957,0.716598513961042,7.0,73.0,0.0
R,U,"[6, 6]",0.0,0.0,0.23369097709655762,2.0626440048217773,0.7297158457461885,7.0,74.0,0.0
G,D,"[7, 6]",0.0,0.0,0.21112895011901855,1.7105441093444824,0.39053005502153787,7.0,75.0,0.0
R,U,"[6, 6]",0.0,0.0,0.17905902862548828,1.8007080554962158,0.524393143408763,7.0,76.0,0.0
B,L,"[6, 5]",0.0,0.0,0.15602803230285645,1.8026888370513916,0.5437918027699966,7.0,77.0,0.0
R,U,"[5, 5]",0.0,0.0,0.18657994270324707,2.004197835922241,0.7309892589544111,7.0,78.0,0.0
G,D,"[6, 5]",0.0,0.0,0.21729397773742676,2.0403168201446533,0.7213440362511332,7.0,79.0,0.0
Y,R,"[6, 6]",0.0,0.0,0.20619797706604004,1.830765962600708,0.5189298015306657,7.0,80.0,0.0
,,"(6, 6)",,,,,,,,
G,D,"[7, 6]",0.0,0.0,0.5517878532409668,3.367427110671997,0.253176751200033,8.0,81.0,0.0
B,L,"[7, 5]",0.0,0.0,0.13456201553344727,1.503614902496338,0.27326072195564505,8.0,82.0,0.0
R,U,"[6, 5]",0.0,0.0,0.4088571071624756,1.9658889770507812,0.45562413833146775,8.0,83.0,0.0
G,D,"[7, 5]",0.0,0.0,0.21810507774353027,1.7648921012878418,0.45385920883059955,8.0,84.0,0.0
Y,R,"[7, 6]",0.0,0.0,0.1411890983581543,1.870176076889038,0.6237492650171208,8.0,85.0,0.0
B,L,"[7, 5]",-1.0,0.0,0.09203600883483887,5.919051170349121,0.692500653055826,8.0,86.0,0.0
B,L,"[7, 4]",0.0,0.0,0.19912409782409668,1.849726915359497,0.5590540704940796,8.0,87.0,0.0
R,U,"[6, 4]",0.0,0.0,0.20495319366455078,1.9730658531188965,0.6820433260745773,8.0,88.0,0.0
G,D,"[7, 4]",0.0,0.0,0.18255305290222168,1.559631109237671,0.27532808251083735,8.0,89.0,0.0
R,U,"[6, 4]",0.0,0.0,0.25667905807495117,2.021620035171509,0.6630470584789595,8.0,90.0,0.0
,,"(6, 6)",,,,,,,,
R,U,"[5, 6]",1.0,1.0,0.6282880306243896,5.557816028594971,0.5208266609056673,9.0,91.0,0.0
Y,R,"[5, 7]",1.0,2.0,0.3547189235687256,2.0055480003356934,0.5430840574809122,9.0,92.0,0.0
G,D,"[6, 7]",0.0,2.0,0.4851047992706299,2.1293110847473145,0.5556863839366637,9.0,93.0,0.0
B,L,"[6, 6]",0.0,2.0,0.6468019485473633,2.041926145553589,0.29776897031963634,9.0,94.0,0.0
G,D,"[7, 6]",0.0,2.0,0.3206470012664795,2.0332190990448,0.613822045643232,9.0,95.0,0.0
B,L,"[7, 5]",0.0,2.0,0.20046186447143555,2.0289220809936523,0.7259907424690342,9.0,96.0,0.0
G,D,"[8, 5]",0.0,2.0,0.1666409969329834,1.5997991561889648,0.3427505312543908,9.0,97.0,0.0
B,L,"[8, 4]",0.0,2.0,0.19525504112243652,1.552941083908081,0.26247762822829807,9.0,98.0,0.0
G,D,"[9, 4]",0.0,2.0,0.31470203399658203,1.902116060256958,0.4976090294853856,9.0,99.0,0.0
R,U,"[8, 4]",0.0,2.0,0.6420049667358398,2.1248528957366943,0.3724051786367791,9.0,100.0,0.0
,,"(6, 6)",,,,,,,,
R,U,"[5, 6]",1.0,1.0,0.5889580249786377,3.6961259841918945,0.6515383713827939,10.0,101.0,0.0
Y,R,"[5, 7]",1.0,2.0,0.23125386238098145,1.7515840530395508,0.4200049068889245,10.0,102.0,0.0
R,U,"[4, 7]",-1.0,2.0,0.062463998794555664,5.69022798538208,0.49338535807830997,10.0,103.0,0.0
R,U,"[3, 7]",0.0,2.0,0.3317739963531494,1.9490249156951904,0.5256434438653792,10.0,104.0,0.0
G,D,"[4, 7]",0.0,2.0,0.3817591667175293,1.800935983657837,0.32658956314738186,10.0,105.0,0.0
B,L,"[4, 6]",0.0,2.0,0.8018379211425781,2.296337127685547,0.4061390433076259,10.0,106.0,0.0
Y,R,"[4, 7]",0.0,2.0,0.25470805168151855,1.9706430435180664,0.6098467164492183,10.0,107.0,0.0
G,D,"[5, 7]",0.0,2.0,0.24715805053710938,2.001041889190674,0.6609125831154301,10.0,108.0,0.0
B,L,"[5, 6]",0.0,2.0,0.13422298431396484,1.6020691394805908,0.379745951355843,10.0,109.0,0.0
R,U,"[4, 6]",0.0,2.0,0.22822213172912598,1.8559291362762451,0.5189593247287838,10.0,110.0,0.0
,,"(6, 6)",,,,,,,,
R,U,"[5, 6]",1.0,1.0,0.46677184104919434,3.5750319957733154,0.2607748637570214,11.0,111.0,0.0
Y,R,"[5, 7]",1.0,2.0,0.3414459228515625,2.113960027694702,0.6741704868854688,11.0,112.0,0.0
B,L,"[5, 6]",0.0,2.0,0.22112798690795898,1.6573190689086914,0.34840858195403995,11.0,113.0,0.0
G,D,"[6, 6]",0.0,2.0,0.1480090618133545,1.7727820873260498,0.520961101762431,11.0,114.0,0.0
R,U,"[5, 6]",0.0,2.0,0.3599660396575928,1.7754909992218018,0.3133077424673061,11.0,115.0,0.0
R,U,"[4, 6]",-1.0,2.0,0.06503486633300781,5.4931488037109375,0.2896959748936523,11.0,116.0,0.0
G,D,"[5, 6]",0.0,2.0,0.21155309677124023,1.6552479267120361,0.34476865170838267,11.0,117.0,0.0
G,D,"[6, 6]",0.0,2.0,0.30271482467651367,2.0081329345703125,0.6194214465681265,11.0,118.0,0.0
G,D,"[7, 6]",0.0,2.0,0.1888740062713623,1.58868408203125,0.29160922587821303,11.0,119.0,0.0
G,D,"[8, 6]",0.0,2.0,0.3225269317626953,2.1346750259399414,0.7256743101994958,11.0,120.0,0.0
,,"(6, 6)",,,,,,,,
R,U,"[5, 6]",1.0,1.0,0.4259951114654541,2.9142770767211914,0.4234804203111489,12.0,121.0,0.0
Y,R,"[5, 7]",1.0,2.0,0.24357008934020996,2.0259580612182617,0.6824925562703779,12.0,122.0,0.0
B,L,"[5, 6]",0.0,2.0,0.2519991397857666,1.6466550827026367,0.29619089666009096,12.0,123.0,0.0
G,D,"[6, 6]",-2.0,2.0,3.789346933364868,5.438645124435425,0.6010987088060009,12.0,124.0,0.0
G,D,"[7, 6]",0.0,2.0,0.19220280647277832,1.5712919235229492,0.2892492968844231,12.0,125.0,0.0
R,U,"[6, 6]",0.0,2.0,0.27985596656799316,1.7696561813354492,0.3920241134305998,12.0,126.0,0.0
Y,R,"[6, 7]",0.0,2.0,0.12024903297424316,1.4826910495758057,0.2747977530438704,12.0,127.0,0.0
B,L,"[6, 6]",0.0,2.0,0.17380499839782715,1.7954859733581543,0.5203564370403487,12.0,128.0,0.0
G,D,"[7, 6]",0.0,2.0,0.23650407791137695,1.8415429592132568,0.5114195143425162,12.0,129.0,0.0
R,U,"[6, 6]",0.0,2.0,0.23449110984802246,1.8709251880645752,0.5492796790424297,12.0,130.0,0.0
,,"(6, 6)",,,,,,,,
R,U,"[5, 6]",1.0,1.0,0.7307858467102051,4.211529016494751,0.3272130111481696,13.0,131.0,0.0
Y,R,"[5, 7]",1.0,2.0,0.3170790672302246,1.9230201244354248,0.5168552095218422,13.0,132.0,0.0
Y,R,"[5, 8]",1.0,3.0,0.39316701889038086,2.17120099067688,0.6710616747129974,13.0,133.0,0.0
B,L,"[5, 7]",-2.0,3.0,1.974471092224121,3.483250856399536,0.4711146650419747,13.0,134.0,0.0
B,L,"[5, 6]",0.0,3.0,0.22155404090881348,1.8834340572357178,0.5544431366430012,13.0,135.0,0.0
G,D,"[6, 6]",0.0,3.0,0.21895194053649902,1.6129729747772217,0.3009093960586543,13.0,136.0,0.0
B,L,"[6, 5]",0.0,3.0,0.6205599308013916,2.4699740409851074,0.7203177514452607,13.0,137.0,0.0
Y,R,"[6, 6]",0.0,3.0,0.19957804679870605,1.865488052368164,0.5693462316477924,13.0,138.0,0.0
R,U,"[5, 6]",0.0,3.0,0.12912797927856445,1.6378917694091797,0.4072348992543878,13.0,139.0,0.0
R,U,"[4, 6]",0.0,3.0,0.24205899238586426,1.9056100845336914,0.5630927021281911,13.0,140.0,0.0
,,"(6, 6)",,,,,,,,
R,U,"[5, 6]",1.0,1.0,0.5835399627685547,3.7635531425476074,0.5094387574190493,14.0,141.0,0.0
Y,R,"[5, 7]",1.0,2.0,0.1594710350036621,1.806684970855713,0.549508768283707,14.0,142.0,0.0
Y,R,"[5, 8]",1.0,3.0,0.24052095413208008,1.6315679550170898,0.2812584793591063,14.0,143.0,0.0
Y,R,"[5, 9]",-2.0,3.0,1.6384601593017578,3.3367819786071777,0.6508122857877551,14.0,144.0,0.0
Y,R,"[5, 10]",1.0,4.0,0.46456217765808105,2.1527600288391113,0.5870241332100506,14.0,145.0,0.0
Y,R,"[5, 11]",0.0,4.0,0.8345959186553955,2.521077871322632,0.5912894898485219,14.0,146.0,0.0
B,L,"[5, 10]",0.0,4.0,0.24488186836242676,2.044158935546875,0.701870293375775,14.0,147.0,0.0
Y,R,"[5, 11]",0.0,4.0,0.20684409141540527,1.7577650547027588,0.4433124827875399,14.0,148.0,0.0
Y,R,"[5, 10]",-3.0,4.0,0.2540740966796875,1.9452710151672363,0.6050549462296755,14.0,149.0,0.0
Y,R,"[5, 11]",0.0,4.0,0.20688509941101074,1.643712043762207,0.3322834367595847,14.0,150.0,0.0
,,"(6, 6)",,,,,,,,
R,U,"[5, 6]",1.0,1.0,0.47660279273986816,3.3486318588256836,0.4473618099195202,15.0,151.0,0.0
Y,R,"[5, 7]",1.0,2.0,0.17381882667541504,2.01045298576355,0.7241101958948851,15.0,152.0,0.0
Y,R,"[5, 8]",1.0,3.0,0.17101001739501953,1.9762260913848877,0.7170244525202429,15.0,153.0,0.0
Y,R,"[5, 9]",0.0,3.0,0.1823110580444336,1.743690013885498,0.46091582959535077,15.0,154.0,0.0
G,D,"[6, 9]",1.0,4.0,0.33301806449890137,1.9982149600982666,0.5757435790728122,15.0,155.0,0.0
B,L,"[6, 8]",1.0,5.0,0.8470039367675781,2.343874931335449,0.4029391616912462,15.0,156.0,0.0
G,D,"[7, 8]",-2.0,5.0,1.5571651458740234,3.1820530891418457,0.5845644760665436,15.0,157.0,0.0
G,D,"[8, 8]",0.0,5.0,0.29149293899536133,2.1098310947418213,0.7109441274032048,15.0,158.0,0.0
B,L,"[8, 7]",0.0,5.0,0.1518862247467041,1.6834690570831299,0.4445282097140868,15.0,159.0,0.0
R,U,"[7, 7]",0.0,5.0,0.19631695747375488,1.717756986618042,0.42893056203443075,15.0,160.0,0.0
,,"(6, 6)",,,,,,,,
R,U,"[5, 6]",1.0,1.0,0.5825889110565186,3.3933069705963135,0.32217899401384414,16.0,161.0,0.0
Y,R,"[5, 7]",1.0,2.0,0.2514059543609619,1.617568016052246,0.27316414619630214,16.0,162.0,0.0
Y,R,"[5, 8]",1.0,3.0,0.2027750015258789,1.7327420711517334,0.4392490348254758,16.0,163.0,0.0
Y,R,"[5, 9]",0.0,3.0,0.23656082153320312,1.629775047302246,0.30231989641236695,16.0,164.0,0.0
G,D,"[6, 9]",1.0,4.0,0.2119770050048828,1.7943658828735352,0.4796586911943542,16.0,165.0,0.0
B,L,"[6, 8]",1.0,5.0,0.19000005722045898,1.68619704246521,0.3826314716852989,16.0,166.0,0.0
R,U,"[5, 8]",0.0,5.0,0.4537229537963867,2.1143460273742676,0.5633703486615076,16.0,167.0,0.0
Y,R,"[5, 9]",0.0,5.0,0.20599007606506348,1.58109712600708,0.2613742158612236,16.0,168.0,0.0
G,D,"[6, 9]",0.0,5.0,0.3003270626068115,2.107728958129883,0.7185758826776902,16.0,169.0,0.0
B,L,"[6, 8]",0.0,5.0,0.153778076171875,1.598883867263794,0.3512036597791059,16.0,170.0,0.0
,,"(6, 6)",,,,,,,,
R,U,"[5, 6]",1.0,1.0,0.6037740707397461,3.387691020965576,0.3887299939652501,17.0,171.0,0.0
Y,R,"[5, 7]",1.0,2.0,0.20723795890808105,1.8604450225830078,0.5489218385714623,17.0,172.0,0.0
Y,R,"[5, 8]",1.0,3.0,0.1783750057220459,1.896061897277832,0.6114841686368392,17.0,173.0,0.0
G,D,"[6, 8]",1.0,4.0,0.2210400104522705,1.7983489036560059,0.4934699130927083,17.0,174.0,0.0
G,D,"[7, 8]",0.0,4.0,0.32099390029907227,1.9471659660339355,0.5402947190029636,17.0,175.0,0.0
B,L,"[7, 7]",0.0,4.0,0.22213411331176758,1.8497710227966309,0.5233658661367719,17.0,176.0,0.0
B,L,"[7, 6]",0.0,4.0,0.9299569129943848,2.684835195541382,0.6580241907634343,17.0,177.0,0.0
Y,R,"[7, 7]",0.0,4.0,0.38462209701538086,1.9219391345977783,0.44674799542942323,17.0,178.0,0.0
R,U,"[6, 7]",-1.0,4.0,0.05675792694091797,5.669433116912842,0.4827058802935477,17.0,179.0,0.0
R,U,"[5, 7]",0.0,4.0,0.23544883728027344,1.6650700569152832,0.33110627515113544,17.0,180.0,0.0
,,"(6, 6)",,,,,,,,
R,U,"[5, 6]",1.0,1.0,0.6565978527069092,3.2780210971832275,0.3425135692294913,18.0,181.0,0.0
Y,R,"[5, 7]",1.0,2.0,0.23509693145751953,1.7539701461791992,0.4295169977913794,18.0,182.0,0.0
Y,R,"[5, 8]",1.0,3.0,0.3318300247192383,1.8046650886535645,0.3676444817758282,18.0,183.0,0.0
G,D,"[6, 8]",1.0,4.0,0.42339515686035156,2.1379361152648926,0.6051714225481032,18.0,184.0,0.0
G,D,"[7, 8]",-2.0,4.0,1.0920181274414062,2.4181950092315674,0.2902541598045816,18.0,185.0,0.0
G,D,"[8, 8]",0.0,4.0,0.25432586669921875,1.7255630493164062,0.36570757786579905,18.0,186.0,0.0
B,L,"[8, 7]",0.0,4.0,0.26511096954345703,1.8077459335327148,0.44008637834752795,18.0,187.0,0.0
R,U,"[7, 7]",0.0,4.0,0.391826868057251,2.20375394821167,0.7101990399646884,18.0,188.0,0.0
R,U,"[6, 7]",0.0,4.0,0.22286295890808105,1.8426661491394043,0.5361879195651815,18.0,189.0,0.0
R,U,"[5, 7]",0.0,4.0,0.2478160858154297,1.9111261367797852,0.563904652218013,18.0,190.0,0.0
,,"(6, 6)",,,,,,,,
R,U,"[5, 6]",1.0,1.0,0.6194539070129395,3.7404909133911133,0.33787393695661244,19.0,191.0,0.0
Y,R,"[5, 7]",1.0,2.0,0.24151182174682617,1.9173710346221924,0.5715419158230798,19.0,192.0,0.0
Y,R,"[5, 8]",1.0,3.0,0.20809388160705566,1.8732919692993164,0.5614990001433768,19.0,193.0,0.0
G,D,"[6, 8]",1.0,4.0,0.15937399864196777,1.8768620491027832,0.6217422211512024,19.0,194.0,0.0
B,L,"[6, 7]",0.0,4.0,0.18429303169250488,1.5735161304473877,0.29543533585749493,19.0,195.0,0.0
B,L,"[6, 6]",0.0,4.0,0.3393590450286865,1.9540190696716309,0.5158597089171396,19.0,196.0,0.0
R,U,"[5, 6]",-2.0,4.0,1.1845908164978027,2.946709156036377,0.7291548733834536,19.0,197.0,0.0
B,L,"[5, 5]",0.0,4.0,0.27944207191467285,1.6518590450286865,0.2811926345345845,19.0,198.0,0.0
B,L,"[5, 4]",0.0,4.0,0.19750595092773438,2.019355058670044,0.716602973474535,19.0,199.0,0.0
B,L,"[5, 3]",-1.0,4.0,0.002218961715698242,5.758333921432495,0.6248028594429726,19.0,200.0,0.0
,,"(6, 6)",,,,,,,,
R,U,"[5, 6]",1.0,1.0,0.5787460803985596,6.896703004837036,0.721226035147646,20.0,201.0,0.0
Y,R,"[5, 7]",1.0,2.0,0.209852933883667,1.876875877380371,0.5649240219041605,20.0,202.0,0.0
Y,R,"[5, 8]",1.0,3.0,0.196274995803833,1.9004600048065186,0.59866214529903,20.0,203.0,0.0
G,D,"[6, 8]",1.0,4.0,0.3163630962371826,1.7752280235290527,0.35731843822025733,20.0,204.0,0.0
R,U,"[5, 8]",0.0,4.0,0.3046529293060303,1.7868258953094482,0.39411625967576047,20.0,205.0,0.0
G,D,"[6, 8]",0.0,4.0,0.4251749515533447,1.8932809829711914,0.3706720860287343,20.0,206.0,0.0
R,U,"[5, 8]",0.0,4.0,0.3029210567474365,1.9525690078735352,0.556391255393369,20.0,207.0,0.0
R,U,"[4, 8]",0.0,4.0,0.21043801307678223,1.9768760204315186,0.6663987776401591,20.0,208.0,0.0
R,U,"[3, 8]",0.0,4.0,0.27727293968200684,1.8591899871826172,0.4757594849716457,20.0,209.0,0.0
R,U,"[2, 8]",0.0,4.0,0.19202494621276855,1.6159770488739014,0.3250669426510724,20.0,210.0,0.0
,,"(6, 6)",,,,,,,,
R,U,"[5, 6]",1.0,1.0,0.7110309600830078,4.0807318687438965,0.5554519961859017,21.0,211.0,0.0
Y,R,"[5, 7]",1.0,2.0,0.19969582557678223,1.5909008979797363,0.29652881234994044,21.0,212.0,0.0
Y,R,"[5, 8]",1.0,3.0,0.2165968418121338,1.7022600173950195,0.38210288147037497,21.0,213.0,0.0
G,D,"[6, 8]",1.0,4.0,0.2126150131225586,1.7634828090667725,0.4454548628630729,21.0,214.0,0.0
Y,R,"[6, 9]",1.0,5.0,0.18453598022460938,1.579387903213501,0.30817113562759896,21.0,215.0,0.0
R,U,"[5, 9]",-2.0,5.0,3.878415107727051,5.330916881561279,0.4220984996218064,21.0,216.0,0.0
G,D,"[6, 9]",0.0,5.0,0.9419710636138916,2.5558857917785645,0.5113189770880134,21.0,217.0,0.0
B,L,"[6, 8]",0.0,5.0,0.2550640106201172,1.8438889980316162,0.48848934216715484,21.0,218.0,0.0
Y,R,"[6, 9]",0.0,5.0,0.2008659839630127,1.671877145767212,0.3770816693529879,21.0,219.0,0.0
R,U,"[5, 9]",0.0,5.0,0.2055070400238037,1.9192140102386475,0.6125776421713881,21.0,220.0,0.0
,,"(6, 6)",,,,,,,,
R,U,"[5, 6]",1.0,1.0,0.5525040626525879,3.2269928455352783,0.3064585675901665,22.0,221.0,0.0
Y,R,"[5, 7]",1.0,2.0,0.2200031280517578,1.693814992904663,0.3834934054585472,22.0,222.0,0.0
Y,R,"[5, 8]",-1.0,2.0,0.027261972427368164,5.6588218212127686,0.5086031423421618,22.0,223.0,0.0
Y,R,"[5, 9]",0.0,2.0,0.21085190773010254,1.8150949478149414,0.5070822739688594,22.0,224.0,0.0
G,D,"[6, 9]",1.0,3.0,0.2642228603363037,1.832643985748291,0.4732067157941517,22.0,225.0,0.0
Y,R,"[6, 10]",1.0,4.0,0.24585509300231934,1.6652920246124268,0.3217153102318016,22.0,226.0,0.0
R,U,"[5, 10]",1.0,5.0,0.6365809440612793,2.3070120811462402,0.5618420195590077,22.0,227.0,0.0
G,D,"[6, 10]",0.0,5.0,0.7661349773406982,2.502742052078247,0.6475309094567419,22.0,228.0,0.0
B,L,"[6, 9]",0.0,5.0,0.7093830108642578,2.3650999069213867,0.546086505275021,22.0,229.0,0.0
G,D,"[7, 9]",0.0,5.0,0.224869966506958,1.7643020153045654,0.4272380513743713,22.0,230.0,0.0
,,"(6, 6)",,,,,,,,
R,U,"[5, 6]",1.0,1.0,0.5846700668334961,3.4969639778137207,0.5572596667640408,23.0,231.0,0.0
Y,R,"[5, 7]",1.0,2.0,0.10884499549865723,1.8884098529815674,0.6788033948171824,23.0,232.0,0.0
Y,R,"[5, 8]",1.0,3.0,0.1762990951538086,1.6299760341644287,0.35892297128345263,23.0,233.0,0.0
G,D,"[6, 8]",1.0,4.0,0.3041388988494873,1.8632359504699707,0.47216250671688625,23.0,234.0,0.0
Y,R,"[6, 9]",1.0,5.0,0.2222919464111328,2.056765079498291,0.7283794434907309,23.0,235.0,0.0
R,U,"[5, 9]",0.0,5.0,0.27121686935424805,1.659909963607788,0.30538079359258846,23.0,236.0,0.0
G,D,"[6, 9]",0.0,5.0,0.32253313064575195,1.8906569480895996,0.4625310241247142,23.0,237.0,0.0
B,L,"[6, 8]",0.0,5.0,0.22191095352172852,2.0666749477386475,0.7290018671348879,23.0,238.0,0.0
Y,R,"[6, 9]",0.0,5.0,0.847916841506958,2.4523470401763916,0.49805778911765963,23.0,239.0,0.0
B,L,"[6, 8]",0.0,5.0,0.2526988983154297,1.892416000366211,0.5407785379349614,23.0,240.0,0.0
,,"(6, 6)",,,,,,,,
R,U,"[5, 6]",1.0,1.0,0.7372760772705078,3.007858991622925,0.5647776841808104,24.0,241.0,0.0
Y,R,"[5, 7]",1.0,2.0,0.20276713371276855,1.7500560283660889,0.44823175093137935,24.0,242.0,0.0
Y,R,"[5, 8]",1.0,3.0,0.25388193130493164,1.7886831760406494,0.43688231258993804,24.0,243.0,0.0
G,D,"[6, 8]",1.0,4.0,0.20108699798583984,1.7961540222167969,0.49967563014949656,24.0,244.0,0.0
Y,R,"[6, 9]",1.0,5.0,0.18935918807983398,1.7145040035247803,0.41410475304383754,24.0,245.0,0.0
R,U,"[5, 9]",0.0,5.0,0.5665590763092041,2.3569860458374023,0.6876366003925252,24.0,246.0,0.0
G,D,"[6, 9]",0.0,5.0,0.45314502716064453,2.248562812805176,0.7025890257848579,24.0,247.0,0.0
B,L,"[6, 8]",0.0,5.0,0.21152687072753906,1.9048700332641602,0.5908206625431744,24.0,248.0,0.0
R,U,"[5, 8]",0.0,5.0,0.17048192024230957,1.5864529609680176,0.327417259990559,24.0,249.0,0.0
G,D,"[6, 8]",0.0,5.0,0.1670970916748047,1.5843589305877686,0.3285590570841926,24.0,250.0,0.0
,,"(6, 6)",,,,,,,,
R,U,"[5, 6]",1.0,1.0,0.6591920852661133,3.6469268798828125,0.4918604158942306,25.0,251.0,0.0
Y,R,"[5, 7]",1.0,2.0,0.25368809700012207,1.8639099597930908,0.5222472719907378,25.0,252.0,0.0
Y,R,"[5, 8]",1.0,3.0,0.20499610900878906,1.8781781196594238,0.5837782538621323,25.0,253.0,0.0
G,D,"[6, 8]",1.0,4.0,0.15357685089111328,1.933009147644043,0.6831525442102713,25.0,254.0,0.0
R,U,"[5, 8]",0.0,4.0,0.17436695098876953,1.8834149837493896,0.600054600063056,25.0,255.0,0.0
R,U,"[4, 8]",0.0,4.0,0.2759220600128174,1.7718780040740967,0.38846744026269014,25.0,256.0,0.0
R,U,"[3, 8]",0.0,4.0,0.28232693672180176,1.6887190341949463,0.31074150147116253,25.0,257.0,0.0
R,U,"[2, 8]",0.0,4.0,0.18484210968017578,1.8241119384765625,0.5512770517985954,25.0,258.0,0.0
R,U,"[1, 8]",0.0,4.0,0.21550893783569336,1.8877270221710205,0.5722626179038901,25.0,259.0,0.0
R,U,"[2, 8]",-3.0,4.0,0.6751949787139893,2.0541980266571045,0.2767035799347836,25.0,260.0,0.0
,,"(6, 6)",,,,,,,,
R,U,"[5, 6]",1.0,1.0,0.404249906539917,3.2950029373168945,0.7211768991515682,26.0,261.0,0.0
Y,R,"[5, 7]",-1.0,1.0,0.050189971923828125,5.507309913635254,0.32849847275913485,26.0,262.0,0.0
Y,R,"[5, 8]",1.0,2.0,0.2039170265197754,1.9107098579406738,0.6224138007379942,26.0,263.0,0.0
Y,R,"[5, 9]",0.0,2.0,0.16035199165344238,1.5906779766082764,0.32993567801327933,26.0,264.0,0.0
G,D,"[6, 9]",1.0,3.0,0.6061611175537109,2.0091209411621094,0.3056393705398782,26.0,265.0,0.0
Y,R,"[6, 10]",1.0,4.0,0.3622000217437744,2.0531599521636963,0.5918299745509883,26.0,266.0,0.0
R,U,"[5, 10]",1.0,5.0,0.48417115211486816,1.8725922107696533,0.2978678623628777,26.0,267.0,0.0
G,D,"[6, 10]",-2.0,5.0,1.5617780685424805,3.1637020111083984,0.5614063660734829,26.0,268.0,0.0
G,D,"[7, 10]",0.0,5.0,0.26279306411743164,1.890151023864746,0.5346828021138497,26.0,269.0,0.0
B,L,"[7, 9]",-2.0,5.0,1.372920036315918,2.790386915206909,0.3751187296726602,26.0,270.0,0.0
,,"(6, 6)",,,,,,,,
R,U,"[5, 6]",1.0,1.0,0.572537899017334,4.036704063415527,0.5781977629124133,27.0,271.0,0.0
Y,R,"[5, 7]",1.0,2.0,0.2219841480255127,1.6717760562896729,0.35031878107564435,27.0,272.0,0.0
Y,R,"[5, 8]",1.0,3.0,0.2917029857635498,1.8578159809112549,0.45776173555164495,27.0,273.0,0.0
G,D,"[6, 8]",1.0,4.0,0.23201894760131836,1.603646993637085,0.27822126818515064,27.0,274.0,0.0
Y,R,"[6, 9]",1.0,5.0,0.39759397506713867,2.0439999103546143,0.5552121420650312,27.0,275.0,0.0
R,U,"[5, 9]",0.0,5.0,0.17780590057373047,1.7853150367736816,0.5071673856201762,27.0,276.0,0.0
B,L,"[5, 8]",0.0,5.0,0.21115398406982422,1.6904211044311523,0.38103230944472827,27.0,277.0,0.0
Y,R,"[5, 9]",0.0,5.0,0.23128795623779297,1.8988871574401855,0.5631053375119573,27.0,278.0,0.0
B,L,"[5, 8]",0.0,5.0,0.1276099681854248,1.8158199787139893,0.5787400386883956,27.0,279.0,0.0
Y,R,"[5, 9]",0.0,5.0,0.17536306381225586,1.940006971359253,0.6686136287224438,27.0,280.0,0.0
,,"(6, 6)",,,,,,,,
Y,R,"[6, 7]",0.0,0.0,0.39217400550842285,3.1589179039001465,0.44442497999716213,28.0,281.0,0.0
Y,R,"[6, 8]",1.0,1.0,0.37209105491638184,1.7344880104064941,0.2622550976654614,28.0,282.0,0.0
Y,R,"[6, 9]",-1.0,1.0,0.011786937713623047,5.594774007797241,0.4566744176535658,28.0,283.0,0.0
Y,R,"[6, 10]",1.0,2.0,0.1809840202331543,1.963360071182251,0.6866289842187612,28.0,284.0,0.0
G,D,"[7, 10]",0.0,2.0,0.2194828987121582,1.725649118423462,0.4122299784485638,28.0,285.0,0.0
Y,R,"[7, 11]",0.0,2.0,0.2901618480682373,2.0809309482574463,0.6934328329851785,28.0,286.0,0.0
R,U,"[6, 11]",-1.0,2.0,0.05612993240356445,5.729458808898926,0.5557129471146686,28.0,287.0,0.0
R,U,"[5, 11]",0.0,2.0,0.1793990135192871,1.76021409034729,0.48239485034667656,28.0,288.0,0.0
B,L,"[5, 10]",1.0,3.0,0.32161593437194824,2.103955030441284,0.6863130596506832,28.0,289.0,0.0
G,D,"[6, 10]",0.0,3.0,0.8476810455322266,2.482736110687256,0.5357287308311062,28.0,290.0,0.0
,,"(6, 6)",,,,,,,,
R,U,"[5, 6]",1.0,1.0,0.6889059543609619,4.06612491607666,0.4683547616908898,29.0,291.0,0.0
Y,R,"[5, 7]",1.0,2.0,0.17656302452087402,1.9037752151489258,0.622081229274964,29.0,292.0,0.0
Y,R,"[5, 8]",1.0,3.0,0.14855098724365234,1.894416093826294,0.6497195891908193,29.0,293.0,0.0
G,D,"[6, 8]",1.0,4.0,0.20242595672607422,1.5882909297943115,0.2880690748040688,29.0,294.0,0.0
Y,R,"[6, 9]",1.0,5.0,0.20263195037841797,1.7021398544311523,0.4068322872664107,29.0,295.0,0.0
R,U,"[5, 9]",0.0,5.0,0.2451791763305664,2.0649220943450928,0.7214514000842474,29.0,296.0,0.0
R,U,"[4, 9]",1.0,6.0,0.1555619239807129,1.9734981060028076,0.7114533843677393,29.0,297.0,0.0
R,U,"[3, 9]",1.0,7.0,0.3959238529205322,1.8844060897827148,0.3962520190005479,29.0,298.0,0.0
B,L,"[3, 8]",0.0,7.0,0.36269211769104004,1.987281084060669,0.5166818023058929,29.0,299.0,0.0
Y,R,"[3, 9]",0.0,7.0,0.29927921295166016,1.9524970054626465,0.552230804076892,29.0,300.0,0.0
,,"(6, 6)",,,,,,,,
R,U,"[5, 6]",1.0,1.0,0.4759180545806885,4.357274055480957,0.5760934150076962,30.0,301.0,0.0
Y,R,"[5, 7]",1.0,2.0,0.1782240867614746,1.5267000198364258,0.2530683764421612,30.0,302.0,0.0
Y,R,"[5, 8]",1.0,3.0,0.18187904357910156,1.6317930221557617,0.35129343663009743,30.0,303.0,0.0
G,D,"[6, 8]",1.0,4.0,0.3525409698486328,1.7803490161895752,0.33162405474756457,30.0,304.0,0.0
Y,R,"[6, 9]",1.0,5.0,0.2381119728088379,1.9093899726867676,0.5575426191509977,30.0,305.0,0.0
Y,R,"[6, 10]",1.0,6.0,0.18008899688720703,1.8629791736602783,0.5870008676120604,30.0,306.0,0.0
G,D,"[7, 10]",0.0,6.0,0.19651389122009277,1.6814730167388916,0.3851349485001364,30.0,307.0,0.0
R,U,"[6, 10]",-1.0,6.0,0.0893399715423584,5.967679023742676,0.736313132263831,30.0,308.0,0.0
R,U,"[5, 10]",1.0,7.0,0.6343801021575928,2.3743510246276855,0.6436080202559514,30.0,309.0,0.0
R,U,"[4, 10]",1.0,8.0,0.7568628787994385,2.5422251224517822,0.686002292135818,30.0,310.0,0.0
,,"(6, 6)",,,,,,,,
R,U,"[5, 6]",1.0,1.0,0.8005220890045166,4.938124895095825,0.3572089732258086,31.0,311.0,0.0
Y,R,"[5, 7]",1.0,2.0,0.2221519947052002,2.04682993888855,0.7203426269528197,31.0,312.0,0.0
Y,R,"[5, 8]",1.0,3.0,0.3869760036468506,2.159497022628784,0.6796887075237075,31.0,313.0,0.0
G,D,"[6, 8]",1.0,4.0,0.22250008583068848,1.6074600219726562,0.2875465801409522,31.0,314.0,0.0
Y,R,"[6, 9]",1.0,5.0,0.23113608360290527,1.6736080646514893,0.344452179299667,31.0,315.0,0.0
R,U,"[5, 9]",0.0,5.0,0.33988404273986816,2.1167399883270264,0.677358098630729,31.0,316.0,0.0
R,U,"[4, 9]",1.0,6.0,0.3252370357513428,2.0223031044006348,0.5997045780120527,31.0,317.0,0.0
R,U,"[3, 9]",1.0,7.0,0.25486302375793457,2.1007678508758545,0.7336936217214707,31.0,318.0,0.0
B,L,"[3, 8]",0.0,7.0,0.18857502937316895,1.925447940826416,0.6257753124732199,31.0,319.0,0.0
B,L,"[3, 7]",0.0,7.0,0.15719294548034668,1.9587888717651367,0.7176830310984148,31.0,320.0,0.0
,,"(6, 6)",,,,,,,,
R,U,"[5, 6]",1.0,1.0,0.7301020622253418,4.966882944107056,0.5679550997199797,32.0,321.0,0.0
Y,R,"[5, 7]",1.0,2.0,0.10481595993041992,1.658919095993042,0.46034173513484056,32.0,322.0,0.0
Y,R,"[5, 8]",1.0,3.0,0.21654295921325684,1.8389151096343994,0.5323627952238112,32.0,323.0,0.0
G,D,"[6, 8]",1.0,4.0,0.19455385208129883,1.5792200565338135,0.27857670898377324,32.0,324.0,0.0
Y,R,"[6, 9]",1.0,5.0,0.17881202697753906,1.5429089069366455,0.2714210987089921,32.0,325.0,0.0
G,D,"[7, 9]",0.0,5.0,0.7733480930328369,2.5876870155334473,0.7251361066493873,32.0,326.0,0.0
R,U,"[6, 9]",0.0,5.0,0.19035792350769043,1.79738187789917,0.5061256404780994,32.0,327.0,0.0
R,U,"[5, 9]",0.0,5.0,0.24974703788757324,1.6426489353179932,0.29890704369122795,32.0,328.0,0.0
R,U,"[4, 9]",1.0,6.0,0.19325017929077148,1.6543917655944824,0.35320365269734316,32.0,329.0,0.0
R,U,"[3, 9]",1.0,7.0,0.37626194953918457,1.8613219261169434,0.38111587721204854,32.0,330.0,0.0
,,"(6, 6)",,,,,,,,
R,U,"[5, 6]",-2.0,0.0,1.5188159942626953,5.513156890869141,0.5272718608295917,33.0,331.0,0.0
R,U,"[4, 6]",0.0,0.0,0.17350506782531738,1.7380318641662598,0.46521524119492397,33.0,332.0,0.0
Y,R,"[4, 7]",0.0,0.0,0.19865798950195312,1.8619248867034912,0.5602924692170832,33.0,333.0,0.0
G,D,"[5, 7]",-1.0,0.0,0.09687304496765137,5.9516918659210205,0.7283367240042495,33.0,334.0,0.0
G,D,"[6, 7]",0.0,0.0,0.2896420955657959,1.8367629051208496,0.43208296177657096,33.0,335.0,0.0
G,D,"[7, 7]",0.0,0.0,0.1427021026611328,1.5054988861083984,0.25424210626511196,33.0,336.0,0.0
Y,R,"[7, 8]",0.0,0.0,0.26410412788391113,2.0917809009552,0.7289227242763897,33.0,337.0,0.0
R,U,"[6, 8]",1.0,1.0,0.18461894989013672,1.9783339500427246,0.6904403019026122,33.0,338.0,0.0
R,U,"[5, 8]",1.0,2.0,0.2826559543609619,2.0316641330718994,0.6554042836390669,33.0,339.0,0.0
R,U,"[4, 8]",0.0,2.0,0.5222580432891846,2.3674230575561523,0.7227183235527477,33.0,340.0,0.0
,,"(6, 6)",,,,,,,,
R,U,"[5, 6]",1.0,1.0,0.49579405784606934,3.7688188552856445,0.7413724058871566,34.0,341.0,0.0
Y,R,"[5, 7]",1.0,2.0,0.21177005767822266,1.740246057510376,0.4318957507791351,34.0,342.0,0.0
Y,R,"[5, 8]",1.0,3.0,0.19916081428527832,1.7084369659423828,0.4070039348362937,34.0,343.0,0.0
G,D,"[6, 8]",1.0,4.0,0.26079893112182617,2.0660319328308105,0.7059548541891376,34.0,344.0,0.0
Y,R,"[6, 9]",1.0,5.0,0.1880810260772705,1.9229388236999512,0.6290694109883253,34.0,345.0,0.0
R,U,"[5, 9]",0.0,5.0,0.18831992149353027,1.662437915802002,0.39154783644864455,34.0,346.0,0.0
R,U,"[4, 9]",1.0,6.0,0.20464611053466797,1.8691020011901855,0.5771514506163571,34.0,347.0,0.0
R,U,"[3, 9]",-1.0,6.0,0.0001518726348876953,5.6257688999176025,0.5027760244665009,34.0,348.0,0.0
R,U,"[2, 9]",0.0,6.0,0.21249794960021973,1.702786922454834,0.3890155852013024,34.0,349.0,0.0
B,L,"[2, 8]",0.0,6.0,0.47353196144104004,1.9465250968933105,0.36871140981976586,34.0,350.0,0.0
,,"(6, 6)",,,,,,,,
R,U,"[5, 6]",-2.0,0.0,1.5173070430755615,4.5299131870269775,0.5815345390352084,35.0,351.0,0.0
R,U,"[4, 6]",-1.0,0.0,0.07299304008483887,5.87129807472229,0.6692552749438693,35.0,352.0,0.0
R,U,"[3, 6]",0.0,0.0,0.287492036819458,1.8578569889068604,0.4773684647488734,35.0,353.0,0.0
Y,R,"[3, 7]",0.0,0.0,0.5864090919494629,2.2905819416046143,0.6176650485858519,35.0,354.0,0.0
Y,R,"[3, 8]",0.0,0.0,0.26246118545532227,1.659118890762329,0.2938028180143721,35.0,355.0,0.0
R,U,"[2, 8]",-2.0,0.0,1.2304391860961914,2.9202311038970947,0.6635195601887425,35.0,356.0,0.0
R,U,"[1, 8]",0.0,0.0,0.6258401870727539,2.1504709720611572,0.41422107474362024,35.0,357.0,0.0
R,U,"[2, 8]",-3.0,0.0,0.32880711555480957,1.8769960403442383,0.44096514396708375,35.0,358.0,0.0
R,U,"[1, 8]",0.0,0.0,0.35739588737487793,2.1367740631103516,0.6941301535436701,35.0,359.0,0.0
R,U,"[2, 8]",-3.0,0.0,0.5909519195556641,2.0361921787261963,0.34729134836063974,35.0,360.0,0.0
,,"(6, 6)",,,,,,,,
R,U,"[5, 6]",1.0,1.0,0.6312611103057861,4.129321098327637,0.5929229921054445,36.0,361.0,0.0
Y,R,"[5, 7]",1.0,2.0,0.24535703659057617,1.7006020545959473,0.3604560800280538,36.0,362.0,0.0
Y,R,"[5, 8]",-2.0,2.0,1.099212884902954,2.5230369567871094,0.40002593397153063,36.0,363.0,0.0
G,D,"[6, 8]",1.0,3.0,0.25081896781921387,1.6103899478912354,0.2605521944525342,36.0,364.0,0.0
Y,R,"[6, 9]",1.0,4.0,0.8078670501708984,2.6092588901519775,0.7024199493363625,36.0,365.0,0.0
R,U,"[5, 9]",0.0,4.0,0.4459187984466553,1.8621680736541748,0.3149208287746373,36.0,366.0,0.0
R,U,"[4, 9]",1.0,5.0,0.30315494537353516,2.0132718086242676,0.6114176559448643,36.0,367.0,0.0
R,U,"[3, 9]",1.0,6.0,0.2151641845703125,1.9054229259490967,0.6000699662354015,36.0,368.0,0.0
B,L,"[3, 8]",0.0,6.0,0.19083309173583984,1.8820269107818604,0.5819353972449396,36.0,369.0,0.0
B,L,"[3, 7]",0.0,6.0,0.13802504539489746,1.9263279438018799,0.6915018197210152,36.0,370.0,0.0
,,"(6, 6)",,,,,,,,
R,U,"[5, 6]",1.0,1.0,0.5507040023803711,3.7512738704681396,0.6429531873502699,37.0,371.0,0.0
Y,R,"[5, 7]",1.0,2.0,0.20431995391845703,1.8472890853881836,0.5566280924288466,37.0,372.0,0.0
Y,R,"[5, 8]",1.0,3.0,0.1994462013244629,2.0072970390319824,0.7136693549050056,37.0,373.0,0.0
G,D,"[6, 8]",1.0,4.0,0.20778799057006836,1.6455600261688232,0.3262327275076903,37.0,374.0,0.0
Y,R,"[6, 9]",1.0,5.0,0.24846386909484863,1.8705151081085205,0.5298083588313031,37.0,375.0,0.0
G,D,"[7, 9]",0.0,5.0,0.17901396751403809,1.8028929233551025,0.5159705594800044,37.0,376.0,0.0
R,U,"[6, 9]",0.0,5.0,0.24102210998535156,1.6209580898284912,0.270483184702823,37.0,377.0,0.0
R,U,"[5, 9]",0.0,5.0,0.28425097465515137,1.7082140445709229,0.32879150692146253,37.0,378.0,0.0
R,U,"[4, 9]",1.0,6.0,0.28524279594421387,1.8722999095916748,0.5006329433337148,37.0,379.0,0.0
R,U,"[3, 9]",1.0,7.0,0.10063505172729492,1.9217898845672607,0.722123355454068,37.0,380.0,0.0
,,"(6, 6)",,,,,,,,
R,U,"[5, 6]",1.0,1.0,0.4632101058959961,3.444110870361328,0.31651772166100417,38.0,381.0,0.0
Y,R,"[5, 7]",1.0,2.0,0.23699378967285156,1.718261957168579,0.3847582992849326,38.0,382.0,0.0
Y,R,"[5, 8]",1.0,3.0,0.18844103813171387,1.7992730140686035,0.5004343241171185,38.0,383.0,0.0
G,D,"[6, 8]",1.0,4.0,0.22459697723388672,1.8576788902282715,0.5248201472328528,38.0,384.0,0.0
Y,R,"[6, 9]",1.0,5.0,0.22240996360778809,1.7333459854125977,0.4081088893648792,38.0,385.0,0.0
Y,R,"[6, 10]",1.0,6.0,0.28102993965148926,1.9717741012573242,0.5963102602203735,38.0,386.0,0.0
R,U,"[5, 10]",1.0,7.0,0.18666505813598633,1.9715700149536133,0.6845340594157853,38.0,387.0,0.0
R,U,"[4, 10]",1.0,8.0,0.2319340705871582,1.9300010204315186,0.5977572370570671,38.0,388.0,0.0
B,L,"[4, 9]",1.0,9.0,0.21445512771606445,1.6631100177764893,0.34440401400523424,38.0,389.0,0.0
G,D,"[5, 9]",0.0,9.0,0.92852783203125,2.652069091796875,0.6294101904673554,38.0,390.0,0.0
,,"(6, 6)",,,,,,,,
R,U,"[5, 6]",1.0,1.0,0.5157020092010498,3.519918918609619,0.4327379270279745,39.0,391.0,0.0
Y,R,"[5, 7]",1.0,2.0,0.21242785453796387,1.5689911842346191,0.25183373128820125,39.0,392.0,0.0
Y,R,"[5, 8]",1.0,3.0,0.19354891777038574,2.022361993789673,0.7238062610328022,39.0,393.0,0.0
G,D,"[6, 8]",-1.0,3.0,0.06890487670898438,5.713542222976685,0.5205266053461628,39.0,394.0,0.0
G,D,"[7, 8]",0.0,3.0,0.20467090606689453,1.6474618911743164,0.35160739505618077,39.0,395.0,0.0
R,U,"[6, 8]",0.0,3.0,0.40988612174987793,1.7890300750732422,0.27399085512431204,39.0,396.0,0.0
R,U,"[5, 8]",0.0,3.0,0.2975289821624756,2.0575931072235107,0.6644015691147945,39.0,397.0,0.0
R,U,"[4, 8]",0.0,3.0,0.393078088760376,2.217957019805908,0.7159129966386888,39.0,398.0,0.0
R,U,"[3, 8]",-2.0,3.0,2.316192865371704,3.932199001312256,0.5811093032606487,39.0,399.0,0.0
R,U,"[2, 8]",0.0,3.0,0.5037088394165039,2.2102949619293213,0.607888030151094,39.0,400.0,0.0
,,"(6, 6)",,,,,,,,
R,U,"[5, 6]",1.0,1.0,0.5958888530731201,3.515220880508423,0.4065190305120467,40.0,401.0,0.0
Y,R,"[5, 7]",1.0,2.0,0.29700279235839844,2.1058340072631836,0.7120254624981788,40.0,402.0,0.0
Y,R,"[5, 8]",1.0,3.0,0.4571230411529541,1.9320039749145508,0.37770740219913757,40.0,403.0,0.0
G,D,"[6, 8]",1.0,4.0,0.6996240615844727,2.186552047729492,0.3974398646138393,40.0,404.0,0.0
Y,R,"[6, 9]",1.0,5.0,0.45051097869873047,2.1494369506835938,0.5966345061696052,40.0,405.0,0.0
Y,R,"[6, 10]",1.0,6.0,0.3206038475036621,2.0958120822906494,0.6756134461299832,40.0,406.0,0.0
R,U,"[5, 10]",1.0,7.0,0.4121401309967041,2.0016469955444336,0.49403438586556586,40.0,407.0,0.0
R,U,"[4, 10]",1.0,8.0,0.47114014625549316,2.220151901245117,0.664057542198686,40.0,408.0,0.0
B,L,"[4, 9]",1.0,9.0,0.32980918884277344,1.9192991256713867,0.48334856244153285,40.0,409.0,0.0
Y,R,"[4, 10]",0.0,9.0,0.2790689468383789,1.754868984222412,0.37172568500991154,40.0,410.0,0.0
,,"(6, 6)",,,,,,,,
R,U,"[5, 6]",1.0,1.0,0.5771570205688477,3.6670119762420654,0.3218860113187252,41.0,411.0,0.0
Y,R,"[5, 7]",1.0,2.0,0.24432802200317383,1.941411018371582,0.5962774480237563,41.0,412.0,0.0
Y,R,"[5, 8]",1.0,3.0,0.20729804039001465,1.8798608779907227,0.5594378688750857,41.0,413.0,0.0
G,D,"[6, 8]",1.0,4.0,0.20665884017944336,2.006747007369995,0.6994316975639654,41.0,414.0,0.0
Y,R,"[6, 9]",1.0,5.0,0.21387100219726562,1.7722711563110352,0.4550452426447169,41.0,415.0,0.0
Y,R,"[6, 10]",1.0,6.0,0.21826910972595215,2.0406100749969482,0.7287232223865742,41.0,416.0,0.0
R,U,"[5, 10]",1.0,7.0,0.19794607162475586,2.0155980587005615,0.727645676058827,41.0,417.0,0.0
R,U,"[4, 10]",-1.0,7.0,0.03234982490539551,5.639966011047363,0.48432252700883593,41.0,418.0,0.0
B,L,"[4, 9]",1.0,8.0,0.23917603492736816,1.719670057296753,0.37066469881074865,41.0,419.0,0.0
B,L,"[4, 8]",0.0,8.0,0.29004502296447754,2.0773661136627197,0.6810210111152566,41.0,420.0,0.0
,,"(6, 6)",,,,,,,,
R,U,"[5, 6]",1.0,1.0,0.5933139324188232,3.5462892055511475,0.460708087033319,42.0,421.0,0.0
Y,R,"[5, 7]",1.0,2.0,0.4091370105743408,2.001789093017578,0.5123881110491486,42.0,422.0,0.0
Y,R,"[5, 8]",1.0,3.0,0.44388794898986816,1.9718270301818848,0.4175914428367651,42.0,423.0,0.0
G,D,"[6, 8]",1.0,4.0,0.44118499755859375,1.8301098346710205,0.28118483468686006,42.0,424.0,0.0
Y,R,"[6, 9]",1.0,5.0,0.47880005836486816,1.99269700050354,0.40709593626242524,42.0,425.0,0.0
Y,R,"[6, 10]",1.0,6.0,0.28247809410095215,1.7962021827697754,0.41991697393112926,42.0,426.0,0.0
R,U,"[5, 10]",1.0,7.0,0.4158339500427246,2.1535959243774414,0.6395889803371141,42.0,427.0,0.0
R,U,"[4, 10]",1.0,8.0,0.4408278465270996,2.147705078125,0.6040649837324339,42.0,428.0,0.0
B,L,"[4, 9]",1.0,9.0,0.44849395751953125,1.8024179935455322,0.2568503425249231,42.0,429.0,0.0
R,U,"[3, 9]",1.0,10.0,0.4835031032562256,1.960402011871338,0.3837394898144181,42.0,430.0,0.0
,,"(6, 6)",,,,,,,,
R,U,"[5, 6]",1.0,1.0,0.6869490146636963,5.283772945404053,0.7169276166674259,43.0,431.0,0.0
Y,R,"[5, 7]",1.0,2.0,0.19822192192077637,1.9583210945129395,0.6588525203983222,43.0,432.0,0.0
Y,R,"[5, 8]",1.0,3.0,0.19423794746398926,1.8090248107910156,0.5177255076581366,43.0,433.0,0.0
G,D,"[6, 8]",1.0,4.0,0.23747611045837402,1.7927680015563965,0.46041472840322906,43.0,434.0,0.0
Y,R,"[6, 9]",1.0,5.0,0.29619693756103516,1.9663550853729248,0.5766309640686763,43.0,435.0,0.0
Y,R,"[6, 10]",1.0,6.0,0.2405250072479248,2.053560972213745,0.7133279504225902,43.0,436.0,0.0
R,U,"[5, 10]",1.0,7.0,0.21688199043273926,1.7497200965881348,0.42986709901277365,43.0,437.0,0.0
R,U,"[4, 10]",1.0,8.0,0.27510499954223633,1.9884681701660156,0.6014408611923858,43.0,438.0,0.0
B,L,"[4, 9]",1.0,9.0,0.21739506721496582,1.769237995147705,0.45418146310073526,43.0,439.0,0.0
R,U,"[3, 9]",1.0,10.0,0.42857789993286133,2.265666961669922,0.7362503360657939,43.0,440.0,0.0
,,"(6, 6)",,,,,,,,
R,U,"[5, 6]",-2.0,0.0,1.8589260578155518,5.262269020080566,0.4153281471508002,44.0,441.0,0.0
R,U,"[4, 6]",0.0,0.0,0.3532111644744873,1.814936876296997,0.3634715968269362,44.0,442.0,0.0
Y,R,"[4, 7]",0.0,0.0,0.3785378932952881,1.9386842250823975,0.45207077690843006,44.0,443.0,0.0
G,D,"[5, 7]",1.0,1.0,0.18325090408325195,1.8625140190124512,0.5810833233381254,44.0,444.0,0.0
Y,R,"[5, 8]",1.0,2.0,0.22447800636291504,1.595710039138794,0.2603897792240253,44.0,445.0,0.0
Y,R,"[5, 9]",0.0,2.0,0.42827391624450684,1.8198668956756592,0.2967283114782227,44.0,446.0,0.0
R,U,"[4, 9]",1.0,3.0,0.9007449150085449,2.3853919506073,0.3820074535617794,44.0,447.0,0.0
R,U,"[3, 9]",1.0,4.0,0.32342100143432617,1.9989581108093262,0.5641071712797202,44.0,448.0,0.0
B,L,"[3, 8]",0.0,4.0,0.17736196517944336,1.674921989440918,0.3890920830136135,44.0,449.0,0.0
R,U,"[2, 8]",0.0,4.0,0.36795806884765625,1.9634449481964111,0.5023016126224731,44.0,450.0,0.0
,,"(6, 6)",,,,,,,,
R,U,"[5, 6]",1.0,1.0,0.4261181354522705,3.7777371406555176,0.6965189720865596,45.0,451.0,0.0
Y,R,"[5, 7]",1.0,2.0,0.1916499137878418,1.7250721454620361,0.42174030104741556,45.0,452.0,0.0
Y,R,"[5, 8]",1.0,3.0,0.9393689632415771,2.368000030517578,0.32304836144371984,45.0,453.0,0.0
G,D,"[6, 8]",1.0,4.0,0.2883319854736328,1.6988730430603027,0.30520762278585134,45.0,454.0,0.0
Y,R,"[6, 9]",1.0,5.0,0.29424500465393066,2.086678981781006,0.6914066519028244,45.0,455.0,0.0
Y,R,"[6, 10]",1.0,6.0,0.25495100021362305,1.847438097000122,0.4889982766541761,45.0,456.0,0.0
R,U,"[5, 10]",1.0,7.0,0.2590019702911377,1.6782879829406738,0.31752628828251556,45.0,457.0,0.0
R,U,"[4, 10]",1.0,8.0,0.27957892417907715,2.091135025024414,0.7081495446966819,45.0,458.0,0.0
B,L,"[4, 9]",1.0,9.0,0.2180938720703125,1.7910220623016357,0.4827394374722105,45.0,459.0,0.0
R,U,"[3, 9]",-1.0,9.0,0.0892641544342041,5.774707078933716,0.5404152666140732,45.0,460.0,0.0
,,"(6, 6)",,,,,,,,
R,U,"[5, 6]",-2.0,0.0,1.0822441577911377,5.977461099624634,0.45110233116788,46.0,461.0,0.0
Y,R,"[5, 7]",1.0,1.0,0.19383788108825684,1.6828348636627197,0.38401774394897903,46.0,462.0,0.0
Y,R,"[5, 8]",1.0,2.0,0.20155787467956543,1.7794530391693115,0.48002819187666823,46.0,463.0,0.0
G,D,"[6, 8]",1.0,3.0,0.21314406394958496,1.6364340782165527,0.31647548920532503,46.0,464.0,0.0
Y,R,"[6, 9]",1.0,4.0,0.2138500213623047,2.017409086227417,0.7005813055624324,46.0,465.0,0.0
Y,R,"[6, 10]",1.0,5.0,0.18013381958007812,1.5619499683380127,0.2791596883817964,46.0,466.0,0.0
R,U,"[5, 10]",1.0,6.0,0.3164198398590088,1.9184598922729492,0.5139045969570609,46.0,467.0,0.0
R,U,"[4, 10]",1.0,7.0,0.25177812576293945,1.9848039150238037,0.631963944464319,46.0,468.0,0.0
B,L,"[4, 9]",1.0,8.0,0.26033496856689453,1.7757749557495117,0.40780196736914126,46.0,469.0,0.0
G,D,"[5, 9]",0.0,8.0,0.4759058952331543,2.0462770462036133,0.47071376639076357,46.0,470.0,0.0
,,"(6, 6)",,,,,,,,
R,U,"[5, 6]",1.0,1.0,0.44261980056762695,3.335361957550049,0.5224621311944107,47.0,471.0,0.0
Y,R,"[5, 7]",1.0,2.0,0.24242401123046875,1.776177167892456,0.4487457496466243,47.0,472.0,0.0
Y,R,"[5, 8]",-2.0,2.0,1.2930500507354736,2.9586880207061768,0.6237648957169035,47.0,473.0,0.0
G,D,"[6, 8]",-2.0,2.0,1.174954891204834,2.7878592014312744,0.5783575196452682,47.0,474.0,0.0
Y,R,"[6, 9]",1.0,3.0,0.18845391273498535,2.015923023223877,0.7276210289516785,47.0,475.0,0.0
Y,R,"[6, 10]",1.0,4.0,0.19118189811706543,1.7993459701538086,0.5101177176965934,47.0,476.0,0.0
R,U,"[5, 10]",1.0,5.0,0.1978621482849121,1.7329630851745605,0.44315772018061367,47.0,477.0,0.0
R,U,"[4, 10]",1.0,6.0,0.1957530975341797,1.856637954711914,0.5662949274241812,47.0,478.0,0.0
B,L,"[4, 9]",1.0,7.0,0.2186729907989502,1.717806100845337,0.4008007250697644,47.0,479.0,0.0
R,U,"[3, 9]",1.0,8.0,0.31197094917297363,1.9426019191741943,0.5265286720592072,47.0,480.0,0.0
,,"(6, 6)",,,,,,,,
R,U,"[5, 6]",1.0,1.0,0.6256799697875977,3.97418212890625,0.384055631875617,48.0,481.0,0.0
Y,R,"[5, 7]",1.0,2.0,0.21270084381103516,1.715256929397583,0.39936425093658484,48.0,482.0,0.0
Y,R,"[5, 8]",1.0,3.0,0.23201680183410645,1.647110939025879,0.31314261880001987,48.0,483.0,0.0
G,D,"[6, 8]",1.0,4.0,0.3035151958465576,2.0022530555725098,0.5984017124334604,48.0,484.0,0.0
Y,R,"[6, 9]",1.0,5.0,0.23645687103271484,1.716817855834961,0.3819928985771433,48.0,485.0,0.0
Y,R,"[6, 10]",1.0,6.0,0.2367699146270752,1.6612720489501953,0.3265808811897611,48.0,486.0,0.0
R,U,"[5, 10]",-2.0,6.0,1.2227680683135986,2.6070921421051025,0.3501744376078695,48.0,487.0,0.0
R,U,"[4, 10]",1.0,7.0,0.21013808250427246,1.9133110046386719,0.5965265260200086,48.0,488.0,0.0
B,L,"[4, 9]",1.0,8.0,0.21469593048095703,2.0024337768554688,0.6823269204853455,48.0,489.0,0.0
R,U,"[3, 9]",1.0,9.0,0.24649500846862793,1.8173010349273682,0.4663695682342779,48.0,490.0,0.0
,,"(6, 6)",,,,,,,,
R,U,"[5, 6]",1.0,1.0,0.4629960060119629,3.3318631649017334,0.5646022708220868,49.0,491.0,0.0
Y,R,"[5, 7]",1.0,2.0,0.20719289779663086,1.7857511043548584,0.46721630477109555,49.0,492.0,0.0
Y,R,"[5, 8]",1.0,3.0,0.23894309997558594,1.7420580387115479,0.3925059436979357,49.0,493.0,0.0
G,D,"[6, 8]",1.0,4.0,0.21155309677124023,1.6597068309783936,0.35210080810892547,49.0,494.0,0.0
Y,R,"[6, 9]",1.0,5.0,0.19287610054016113,1.758713960647583,0.4607740248877353,49.0,495.0,0.0
Y,R,"[6, 10]",1.0,6.0,0.2668170928955078,1.7688679695129395,0.4131316922971703,49.0,496.0,0.0
R,U,"[5, 10]",1.0,7.0,0.21679210662841797,1.9160609245300293,0.595823209013367,49.0,497.0,0.0
R,U,"[4, 10]",1.0,8.0,0.22646307945251465,1.5877549648284912,0.2667163804558882,49.0,498.0,0.0
B,L,"[4, 9]",1.0,9.0,0.2515900135040283,2.0410850048065186,0.6907269863728261,49.0,499.0,0.0
R,U,"[3, 9]",1.0,10.0,0.21523094177246094,1.5791919231414795,0.27029727080337623,49.0,500.0,0.0
,,"(6, 6)",,,,,,,,
R,U,"[5, 6]",1.0,1.0,0.791187047958374,11.158922910690308,0.328742975894342,50.0,501.0,0.0
Y,R,"[5, 7]",1.0,2.0,0.25752997398376465,1.823659896850586,0.4688705261955985,50.0,502.0,0.0
Y,R,"[5, 8]",1.0,3.0,0.3271780014038086,2.036292791366577,0.604974555794287,50.0,503.0,0.0
G,D,"[6, 8]",1.0,4.0,0.8267738819122314,2.6719799041748047,0.7440798967097642,50.0,504.0,0.0
Y,R,"[6, 9]",1.0,5.0,0.2560720443725586,2.073992967605591,0.7173747074278244,50.0,505.0,0.0
Y,R,"[6, 10]",1.0,6.0,0.5066609382629395,2.343204975128174,0.7436801664724331,50.0,506.0,0.0
R,U,"[5, 10]",1.0,7.0,0.2984161376953125,1.8399569988250732,0.4506860558076566,50.0,507.0,0.0
R,U,"[4, 10]",1.0,8.0,0.218519926071167,1.821364164352417,0.5051994570626439,50.0,508.0,0.0
B,L,"[4, 9]",1.0,9.0,0.1796560287475586,1.927441120147705,0.6491233356756847,50.0,509.0,0.0
R,U,"[3, 9]",1.0,10.0,0.24057388305664062,1.7098400592803955,0.35927941372915284,50.0,510.0,0.0
,,"(6, 6)",,,,,,,,
R,U,"[5, 6]",1.0,1.0,0.6159489154815674,6.885340929031372,0.627361787501794,51.0,511.0,0.0
Y,R,"[5, 7]",1.0,2.0,0.20896196365356445,1.5627789497375488,0.25719813080939347,51.0,512.0,0.0
Y,R,"[5, 8]",1.0,3.0,0.5903148651123047,2.338027000427246,0.6447227401026684,51.0,513.0,0.0
G,D,"[6, 8]",1.0,4.0,0.23382210731506348,1.7160720825195312,0.39426230741035645,51.0,514.0,0.0
Y,R,"[6, 9]",1.0,5.0,0.23526287078857422,1.7140350341796875,0.39169818933529577,51.0,515.0,0.0
Y,R,"[6, 10]",1.0,6.0,0.5405449867248535,2.2379751205444336,0.5960344080615623,51.0,516.0,0.0
R,U,"[5, 10]",1.0,7.0,0.23932099342346191,2.012634038925171,0.6585532521513355,51.0,517.0,0.0
R,U,"[4, 10]",1.0,8.0,0.20623517036437988,1.8468308448791504,0.5386618561821679,51.0,518.0,0.0
B,L,"[4, 9]",1.0,9.0,0.35729098320007324,1.9733319282531738,0.5120658526450093,51.0,519.0,0.0
R,U,"[3, 9]",1.0,10.0,0.27556300163269043,2.082327127456665,0.7111652548881612,51.0,520.0,0.0
,,"(6, 6)",,,,,,,,
R,U,"[5, 6]",1.0,1.0,0.6446220874786377,8.70650601387024,0.567020365991953,52.0,521.0,0.0
Y,R,"[5, 7]",1.0,2.0,0.17339420318603516,1.6451079845428467,0.362377517737852,52.0,522.0,0.0
Y,R,"[5, 8]",1.0,3.0,0.21005797386169434,1.9041531085968018,0.5995191880954678,52.0,523.0,0.0
G,D,"[6, 8]",-1.0,3.0,0.06639599800109863,5.616615056991577,0.4161934075505222,52.0,524.0,0.0
Y,R,"[6, 9]",1.0,4.0,0.25166988372802734,1.9185540676116943,0.567761826209521,52.0,525.0,0.0
Y,R,"[6, 10]",1.0,5.0,0.18985605239868164,2.0483498573303223,0.7492325175943471,52.0,526.0,0.0
R,U,"[5, 10]",1.0,6.0,0.2659730911254883,1.989081859588623,0.6215800309961392,52.0,527.0,0.0
R,U,"[4, 10]",1.0,7.0,0.2794811725616455,1.9107799530029297,0.5325230551223663,52.0,528.0,0.0
B,L,"[4, 9]",-1.0,7.0,0.04617500305175781,5.47993278503418,0.29575758337117897,52.0,529.0,0.0
R,U,"[3, 9]",1.0,8.0,0.23125505447387695,2.0420339107513428,0.7208785622588628,52.0,530.0,0.0
,,"(6, 6)",,,,,,,,
R,U,"[5, 6]",1.0,1.0,0.6841120719909668,4.778630018234253,0.2662893884066624,53.0,531.0,0.0
Y,R,"[5, 7]",1.0,2.0,0.28667402267456055,2.1306469440460205,0.7464973389749722,53.0,532.0,0.0
Y,R,"[5, 8]",1.0,3.0,0.2122490406036377,1.9669699668884277,0.646695018419251,53.0,533.0,0.0
G,D,"[6, 8]",1.0,4.0,0.19776701927185059,1.8688888549804688,0.5657110136418273,53.0,534.0,0.0
Y,R,"[6, 9]",1.0,5.0,0.22493386268615723,2.0368709564208984,0.7022900299744923,53.0,535.0,0.0
Y,R,"[6, 10]",1.0,6.0,0.2305140495300293,1.785207986831665,0.45445377577756957,53.0,536.0,0.0
R,U,"[5, 10]",1.0,7.0,0.39727783203125,2.1873979568481445,0.6915747010096343,53.0,537.0,0.0
R,U,"[4, 10]",1.0,8.0,0.19904184341430664,1.7138938903808594,0.4222139595442083,53.0,538.0,0.0
B,L,"[4, 9]",1.0,9.0,0.13808393478393555,1.5215651988983154,0.29383364903887665,53.0,539.0,0.0
R,U,"[3, 9]",1.0,10.0,0.25154805183410645,1.7904090881347656,0.45071439028590393,53.0,540.0,0.0
,,"(6, 6)",,,,,,,,
R,U,"[5, 6]",-2.0,0.0,1.9386639595031738,58.764384031295776,0.37996229838986617,54.0,541.0,0.0
Y,R,"[5, 7]",1.0,1.0,0.6648280620574951,2.4867138862609863,0.7161346571166795,54.0,542.0,0.0
Y,R,"[5, 8]",1.0,2.0,0.4334290027618408,1.9823918342590332,0.448622078810235,54.0,543.0,0.0
G,D,"[6, 8]",1.0,3.0,0.3811929225921631,1.9324140548706055,0.44781331712396977,54.0,544.0,0.0
Y,R,"[6, 9]",1.0,4.0,0.20564913749694824,1.8583829402923584,0.5560918985241557,54.0,545.0,0.0
Y,R,"[6, 10]",1.0,5.0,0.2957649230957031,1.6446011066436768,0.2509246471241916,54.0,546.0,0.0
R,U,"[5, 10]",1.0,6.0,0.45867204666137695,2.2362520694732666,0.6700127017672908,54.0,547.0,0.0
R,U,"[4, 10]",-1.0,6.0,0.08204197883605957,5.632098197937012,0.4187916376046503,54.0,548.0,0.0
B,L,"[4, 9]",1.0,7.0,0.31494784355163574,1.6981050968170166,0.2835986864072541,54.0,549.0,0.0
R,U,"[3, 9]",1.0,8.0,0.5298240184783936,2.2935760021209717,0.6602140403866606,54.0,550.0,0.0
,,"(6, 6)",,,,,,,,
R,U,"[5, 6]",-2.0,0.0,2.041348934173584,11.998378992080688,0.5581801479799051,55.0,551.0,0.0
Y,R,"[5, 7]",1.0,1.0,0.2124028205871582,1.6396169662475586,0.33139096406363894,55.0,552.0,0.0
Y,R,"[5, 8]",1.0,2.0,0.21127104759216309,1.5967371463775635,0.27796917493164525,55.0,553.0,0.0
G,D,"[6, 8]",1.0,3.0,0.3710200786590576,1.909208059310913,0.4537143028345882,55.0,554.0,0.0
Y,R,"[6, 9]",1.0,4.0,0.2672128677368164,1.8020920753479004,0.4391251008706661,55.0,555.0,0.0
Y,R,"[6, 10]",1.0,5.0,0.2021780014038086,1.6140999794006348,0.31999954547632015,55.0,556.0,0.0
R,U,"[5, 10]",1.0,6.0,0.4074821472167969,1.987626075744629,0.4740316467400309,55.0,557.0,0.0
R,U,"[4, 10]",1.0,7.0,0.42519092559814453,1.898841142654419,0.37290414712531683,55.0,558.0,0.0
B,L,"[4, 9]",1.0,8.0,0.2172389030456543,1.7189171314239502,0.4082716533475399,55.0,559.0,0.0
R,U,"[3, 9]",1.0,9.0,0.32559704780578613,2.0251832008361816,0.599912373885874,55.0,560.0,0.0
,,"(6, 6)",,,,,,,,
R,U,"[5, 6]",-2.0,0.0,3.5435848236083984,13.31461215019226,0.6640978585419794,56.0,561.0,0.0
Y,R,"[5, 7]",1.0,1.0,0.34158992767333984,2.183500051498413,0.7307402301609403,56.0,562.0,0.0
G,D,"[6, 7]",0.0,1.0,0.4248359203338623,1.9669370651245117,0.4312901088289014,56.0,563.0,0.0
G,D,"[7, 7]",0.0,1.0,0.671112060546875,2.3730499744415283,0.6039677119996957,56.0,564.0,0.0
G,D,"[8, 7]",0.0,1.0,0.2871570587158203,1.8823809623718262,0.5031118140274953,56.0,565.0,0.0
G,D,"[9, 7]",0.0,1.0,0.22227001190185547,1.856905221939087,0.5265552153327335,56.0,566.0,0.0
G,D,"[10, 7]",-1.0,1.0,0.04906916618347168,5.702359914779663,0.5286955781634733,56.0,567.0,0.0
R,U,"[9, 7]",-2.0,1.0,8.748157978057861,10.212733030319214,0.44142049918277876,56.0,568.0,0.0
Y,R,"[9, 8]",0.0,1.0,0.3392910957336426,1.854250192642212,0.41215441500960914,56.0,569.0,0.0
Y,R,"[9, 9]",0.0,1.0,0.22320318222045898,1.6736750602722168,0.3524380994068128,56.0,570.0,0.0
,,"(6, 6)",,,,,,,,
R,U,"[5, 6]",1.0,1.0,0.7228710651397705,44.81287503242493,0.29726578168706136,57.0,571.0,0.0
Y,R,"[5, 7]",1.0,2.0,0.32951998710632324,2.1204848289489746,0.683988283689873,57.0,572.0,0.0
Y,R,"[5, 8]",1.0,3.0,0.18232393264770508,2.004854917526245,0.7219154930372536,57.0,573.0,0.0
G,D,"[6, 8]",1.0,4.0,0.7527139186859131,2.29048490524292,0.4460704818884156,57.0,574.0,0.0
Y,R,"[6, 9]",1.0,5.0,0.39494991302490234,1.9733400344848633,0.4693465078265392,57.0,575.0,0.0
Y,R,"[6, 10]",-2.0,5.0,1.0989959239959717,2.690009117126465,0.5590137557965764,57.0,576.0,0.0
R,U,"[5, 10]",-2.0,5.0,1.3065989017486572,2.8860199451446533,0.5615035678134346,57.0,577.0,0.0
R,U,"[4, 10]",1.0,6.0,0.22530007362365723,1.7429769039154053,0.4214771789283717,57.0,578.0,0.0
B,L,"[4, 9]",1.0,7.0,0.21774697303771973,1.7907719612121582,0.478771004446156,57.0,579.0,0.0
R,U,"[3, 9]",1.0,8.0,0.23199892044067383,1.6582119464874268,0.3371052622456992,57.0,580.0,0.0
,,"(6, 6)",,,,,,,,
R,U,"[5, 6]",1.0,1.0,0.5155208110809326,49.131760120391846,0.5836293543435118,58.0,581.0,0.0
Y,R,"[5, 7]",1.0,2.0,0.428663969039917,2.2798991203308105,0.7464942569059212,58.0,582.0,0.0
Y,R,"[5, 8]",1.0,3.0,0.2236318588256836,1.6101899147033691,0.27377208528209634,58.0,583.0,0.0
G,D,"[6, 8]",1.0,4.0,0.4999380111694336,2.264638900756836,0.6713665065828798,58.0,584.0,0.0
Y,R,"[6, 9]",1.0,5.0,0.2194209098815918,2.0348920822143555,0.7226727806792079,58.0,585.0,0.0
Y,R,"[6, 10]",1.0,6.0,0.19559717178344727,1.788275957107544,0.4944526679732798,58.0,586.0,0.0
R,U,"[5, 10]",1.0,7.0,0.18818902969360352,1.7253050804138184,0.45305919432691466,58.0,587.0,0.0
R,U,"[4, 10]",1.0,8.0,0.16491413116455078,1.519515037536621,0.2562017680354548,58.0,588.0,0.0
B,L,"[4, 9]",1.0,9.0,0.2312932014465332,1.9821810722351074,0.6544575295517315,58.0,589.0,0.0
R,U,"[3, 9]",1.0,10.0,0.21625399589538574,1.8969449996948242,0.584883570604882,58.0,590.0,0.0
,,"(6, 6)",,,,,,,,
R,U,"[5, 6]",1.0,1.0,0.5346829891204834,62.62842798233032,0.3780028259337912,59.0,591.0,0.0
Y,R,"[5, 7]",1.0,2.0,0.25826096534729004,1.6418030261993408,0.2865036686214087,59.0,592.0,0.0
Y,R,"[5, 8]",1.0,3.0,0.22188282012939453,1.568138837814331,0.25454367366424707,59.0,593.0,0.0
G,D,"[6, 8]",1.0,4.0,0.22609615325927734,1.9833528995513916,0.6542147688697646,59.0,594.0,0.0
Y,R,"[6, 9]",1.0,5.0,0.14706683158874512,1.7815699577331543,0.5361146983924147,59.0,595.0,0.0
Y,R,"[6, 10]",1.0,6.0,0.23301291465759277,1.8579678535461426,0.5270926631739647,59.0,596.0,0.0
R,U,"[5, 10]",1.0,7.0,0.200789213180542,1.5581550598144531,0.2686704610291986,59.0,597.0,0.0
R,U,"[4, 10]",1.0,8.0,0.21898794174194336,1.6351709365844727,0.320511937840924,59.0,598.0,0.0
B,L,"[4, 9]",1.0,9.0,0.20243000984191895,1.921165943145752,0.6246402208556396,59.0,599.0,0.0
G,D,"[5, 9]",0.0,9.0,0.19991707801818848,1.8341100215911865,0.5420184732564368,59.0,600.0,0.0
,,"(6, 6)",,,,,,,,
R,U,"[5, 6]",1.0,1.0,0.7760791778564453,3.119119882583618,0.694249462727612,60.0,601.0,0.0
Y,R,"[5, 7]",1.0,2.0,0.2624180316925049,2.0051190853118896,0.6494172347391141,60.0,602.0,0.0
Y,R,"[5, 8]",1.0,3.0,0.259127140045166,1.7615549564361572,0.39439560701357773,60.0,603.0,0.0
G,D,"[6, 8]",1.0,4.0,0.24230098724365234,1.6383099555969238,0.2994328265261049,60.0,604.0,0.0
Y,R,"[6, 9]",1.0,5.0,0.26923704147338867,1.9656620025634766,0.5981261218999513,60.0,605.0,0.0
Y,R,"[6, 10]",1.0,6.0,0.23642396926879883,1.9482378959655762,0.6129709727730621,60.0,606.0,0.0
R,U,"[5, 10]",1.0,7.0,0.260591983795166,1.9383430480957031,0.5679229716714702,60.0,607.0,0.0
R,U,"[4, 10]",1.0,8.0,0.20906496047973633,2.0639901161193848,0.7483249012581021,60.0,608.0,0.0
B,L,"[4, 9]",1.0,9.0,0.28536105155944824,1.68961501121521,0.30505356141607365,60.0,609.0,0.0
R,U,"[3, 9]",1.0,10.0,0.6303651332855225,2.4360058307647705,0.7065533522896426,60.0,610.0,0.0
,,"(6, 6)",,,,,,,,
R,U,"[5, 6]",-2.0,0.0,6.51445198059082,43.26263999938965,0.3853585434987265,61.0,611.0,0.0
Y,R,"[5, 7]",1.0,1.0,0.4725329875946045,1.971242904663086,0.38984941696059594,61.0,612.0,0.0
Y,R,"[5, 8]",1.0,2.0,0.573962926864624,2.019963026046753,0.3431504201230857,61.0,613.0,0.0
G,D,"[6, 8]",-2.0,2.0,2.0899901390075684,3.752717971801758,0.628779943003622,61.0,614.0,0.0
Y,R,"[6, 9]",1.0,3.0,0.31186890602111816,1.7958869934082031,0.3915473461439425,61.0,615.0,0.0
Y,R,"[6, 10]",1.0,4.0,0.3428480625152588,2.029729127883911,0.5880466877486483,61.0,616.0,0.0
R,U,"[5, 10]",1.0,5.0,0.6371450424194336,2.379613161087036,0.6504329161626341,61.0,617.0,0.0
B,L,"[5, 9]",0.0,5.0,0.5723919868469238,2.0341079235076904,0.36803544198630767,61.0,618.0,0.0
B,L,"[5, 8]",0.0,5.0,0.5476880073547363,1.9050440788269043,0.25643350269520465,61.0,619.0,0.0
B,L,"[5, 7]",-2.0,5.0,20.397103786468506,21.70266318321228,0.27511337655258095,61.0,620.0,0.0
,,"(6, 6)",,,,,,,,
R,U,"[5, 6]",1.0,1.0,0.7637579441070557,19.098509073257446,0.7392187658113294,62.0,621.0,0.0
Y,R,"[5, 7]",1.0,2.0,0.2610921859741211,2.0208659172058105,0.6600627766796743,62.0,622.0,0.0
Y,R,"[5, 8]",-1.0,2.0,0.0035560131072998047,5.594367980957031,0.4710987160616752,62.0,623.0,0.0
G,D,"[6, 8]",1.0,3.0,0.31220388412475586,1.7892100811004639,0.3770318678837812,62.0,624.0,0.0
Y,R,"[6, 9]",1.0,4.0,0.5200278759002686,2.010251045227051,0.4037378039950998,62.0,625.0,0.0
Y,R,"[6, 10]",1.0,5.0,0.5140352249145508,2.170337200164795,0.5572672724869872,62.0,626.0,0.0
R,U,"[5, 10]",1.0,6.0,0.36054277420043945,1.8743400573730469,0.41494334986777487,62.0,627.0,0.0
R,U,"[4, 10]",1.0,7.0,0.32115697860717773,1.8855409622192383,0.46701193939573665,62.0,628.0,0.0
B,L,"[4, 9]",1.0,8.0,0.25886106491088867,1.992354154586792,0.6259460529437602,62.0,629.0,0.0
B,L,"[4, 8]",0.0,8.0,0.3095569610595703,1.8637280464172363,0.45630840791934746,62.0,630.0,0.0
,,"(6, 6)",,,,,,,,
R,U,"[5, 6]",1.0,1.0,0.7778730392456055,31.3629891872406,0.5848485473373417,63.0,631.0,0.0
Y,R,"[5, 7]",1.0,2.0,0.6507248878479004,2.429340124130249,0.6811988297018412,63.0,632.0,0.0
Y,R,"[5, 8]",1.0,3.0,0.8943698406219482,2.4263529777526855,0.42379148789198934,63.0,633.0,0.0
G,D,"[6, 8]",1.0,4.0,0.4735689163208008,1.8939950466156006,0.3178690148009213,63.0,634.0,0.0
Y,R,"[6, 9]",1.0,5.0,0.25353002548217773,1.7294609546661377,0.3804865215720009,63.0,635.0,0.0
Y,R,"[6, 10]",1.0,6.0,0.8091690540313721,2.1853199005126953,0.2658704449380073,63.0,636.0,0.0
R,U,"[5, 10]",-2.0,6.0,3.851846933364868,5.441643953323364,0.5570490627256934,63.0,637.0,0.0
R,U,"[4, 10]",-2.0,6.0,3.513375997543335,4.892744064331055,0.3498230963264724,63.0,638.0,0.0
B,L,"[4, 9]",1.0,7.0,0.2984189987182617,1.7531509399414062,0.3530137206009677,63.0,639.0,0.0
R,U,"[3, 9]",-2.0,7.0,1.6255018711090088,2.9888498783111572,0.32500512556247524,63.0,640.0,0.0
,,"(6, 6)",,,,,,,,
R,U,"[5, 6]",-2.0,0.0,3.857158899307251,57.338804960250854,0.4285630212950712,64.0,641.0,0.0
Y,R,"[5, 7]",1.0,1.0,0.32767701148986816,1.999140977859497,0.5773511916125402,64.0,642.0,0.0
Y,R,"[5, 8]",1.0,2.0,0.36167287826538086,2.1453118324279785,0.6892722123681883,64.0,643.0,0.0
G,D,"[6, 8]",1.0,3.0,0.3637239933013916,2.1471009254455566,0.6860963577823683,64.0,644.0,0.0
Y,R,"[6, 9]",1.0,4.0,0.22745490074157715,1.602898120880127,0.27275327835709734,64.0,645.0,0.0
Y,R,"[6, 10]",1.0,5.0,0.9126088619232178,2.6181671619415283,0.60730979641356,64.0,646.0,0.0
R,U,"[5, 10]",1.0,6.0,0.18494915962219238,2.0186970233917236,0.7425039332206548,64.0,647.0,0.0
R,U,"[4, 10]",1.0,7.0,0.35219717025756836,2.090487003326416,0.6496504780986989,64.0,648.0,0.0
B,L,"[4, 9]",-1.0,7.0,0.07611799240112305,5.487832069396973,0.27086765314620576,64.0,649.0,0.0
R,U,"[3, 9]",-2.0,7.0,1.0154449939727783,2.434715986251831,0.38885468977962645,64.0,650.0,0.0
,,"(6, 6)",,,,,,,,
R,U,"[5, 6]",-2.0,0.0,1.5398058891296387,26.997665882110596,0.485448380633804,65.0,651.0,0.0
Y,R,"[5, 7]",1.0,1.0,0.21800589561462402,1.586690902709961,0.27232880215805355,65.0,652.0,0.0
Y,R,"[5, 8]",1.0,2.0,0.2907869815826416,1.8613967895507812,0.46667186701085434,65.0,653.0,0.0
G,D,"[6, 8]",1.0,3.0,0.16202783584594727,1.8272478580474854,0.5605892033046025,65.0,654.0,0.0
Y,R,"[6, 9]",1.0,4.0,0.13851499557495117,1.7274200916290283,0.5046283236219239,65.0,655.0,0.0
Y,R,"[6, 10]",1.0,5.0,0.545687198638916,2.272799015045166,0.6271596965405357,65.0,656.0,0.0
R,U,"[5, 10]",1.0,6.0,0.29541587829589844,1.6731297969818115,0.28401235260155355,65.0,657.0,0.0
R,U,"[4, 10]",1.0,7.0,0.29099106788635254,2.0491130352020264,0.6492354302510028,65.0,658.0,0.0
B,L,"[4, 9]",1.0,8.0,0.21202802658081055,1.6130280494689941,0.29591983279996076,65.0,659.0,0.0
R,U,"[3, 9]",1.0,9.0,0.5520360469818115,2.1113359928131104,0.44037197041207393,65.0,660.0,0.0
,,"(6, 6)",,,,,,,,
R,U,"[5, 6]",1.0,1.0,0.8024158477783203,4.463996887207031,0.6206969424938553,66.0,661.0,0.0
Y,R,"[5, 7]",1.0,2.0,0.17911386489868164,1.9226398468017578,0.6432773406486479,66.0,662.0,0.0
Y,R,"[5, 8]",1.0,3.0,0.18376803398132324,1.5553998947143555,0.28243639838094053,66.0,663.0,0.0
G,D,"[6, 8]",1.0,4.0,0.2289440631866455,1.9943280220031738,0.6595308187457809,66.0,664.0,0.0
Y,R,"[6, 9]",-1.0,4.0,0.060961008071899414,5.486720085144043,0.29641514514749817,66.0,665.0,0.0
R,U,"[5, 9]",-2.0,4.0,1.3338971138000488,2.788033962249756,0.41765197030200596,66.0,666.0,0.0
R,U,"[4, 9]",-2.0,4.0,1.4735310077667236,2.9378039836883545,0.42203628086143474,66.0,667.0,0.0
B,L,"[4, 8]",0.0,4.0,0.19124817848205566,2.0316271781921387,0.736568307014233,66.0,668.0,0.0
R,U,"[3, 8]",0.0,4.0,0.2411050796508789,1.6644351482391357,0.3180907493450531,66.0,669.0,0.0
R,U,"[2, 8]",0.0,4.0,0.3197801113128662,1.8258321285247803,0.41041133597414037,66.0,670.0,0.0
,,"(6, 6)",,,,,,,,
R,U,"[5, 6]",-2.0,0.0,1.155428171157837,83.1352310180664,0.4427797085038491,67.0,671.0,0.0
Y,R,"[5, 7]",1.0,1.0,0.6115281581878662,1.975635051727295,0.26852819860877636,67.0,672.0,0.0
Y,R,"[5, 8]",1.0,2.0,0.20037508010864258,1.5917329788208008,0.2934715320017203,67.0,673.0,0.0
G,D,"[6, 8]",1.0,3.0,0.24089694023132324,1.5969419479370117,0.2571180289249861,67.0,674.0,0.0
Y,R,"[6, 9]",1.0,4.0,0.27173900604248047,1.7612950801849365,0.3848898332904385,67.0,675.0,0.0
Y,R,"[6, 10]",1.0,5.0,0.15747904777526855,1.5613219738006592,0.29625481397105663,67.0,676.0,0.0
R,U,"[5, 10]",1.0,6.0,0.10639190673828125,1.8572149276733398,0.636396901453933,67.0,677.0,0.0
B,L,"[5, 9]",-1.0,6.0,0.05831289291381836,5.7862629890441895,0.6057756825864,67.0,678.0,0.0
B,L,"[5, 8]",0.0,6.0,0.23511910438537598,1.7499780654907227,0.4224908751146711,67.0,679.0,0.0
R,U,"[4, 8]",0.0,6.0,0.17794179916381836,1.9740910530090332,0.696307939857617,67.0,680.0,0.0
,,"(6, 6)",,,,,,,,
R,U,"[5, 6]",1.0,1.0,0.8180620670318604,31.362311840057373,0.40789289652789573,68.0,681.0,0.0
Y,R,"[5, 7]",1.0,2.0,0.497020959854126,1.8971240520477295,0.3050371691428018,68.0,682.0,0.0
Y,R,"[5, 8]",1.0,3.0,0.284592866897583,1.6495411396026611,0.2710827953023988,68.0,683.0,0.0
G,D,"[6, 8]",1.0,4.0,0.5696699619293213,2.3606319427490234,0.6980526236828712,68.0,684.0,0.0
Y,R,"[6, 9]",1.0,5.0,0.2062668800354004,1.573848009109497,0.2555534631942232,68.0,685.0,0.0
Y,R,"[6, 10]",1.0,6.0,0.2756168842315674,2.0619921684265137,0.6837580836906829,68.0,686.0,0.0
R,U,"[5, 10]",1.0,7.0,0.3520779609680176,2.0870518684387207,0.6375013621470006,68.0,687.0,0.0
R,U,"[4, 10]",1.0,8.0,0.5301249027252197,2.3308990001678467,0.701541470703722,68.0,688.0,0.0
B,L,"[4, 9]",1.0,9.0,0.7252719402313232,2.33286714553833,0.5012724046187362,68.0,689.0,0.0
R,U,"[3, 9]",1.0,10.0,0.4967491626739502,2.150484085083008,0.5515778824410451,68.0,690.0,0.0
,,"(6, 6)",,,,,,,,
R,U,"[5, 6]",-2.0,0.0,70.7471010684967,160.77105617523193,0.5024496895028168,69.0,691.0,0.0
Y,R,"[5, 7]",1.0,1.0,0.17265915870666504,2.018825054168701,0.7377657042222385,69.0,692.0,0.0
Y,R,"[5, 8]",1.0,2.0,0.21406102180480957,1.8672010898590088,0.5549930297811001,69.0,693.0,0.0
G,D,"[6, 8]",1.0,3.0,0.22238993644714355,2.0258021354675293,0.6973373613715459,69.0,694.0,0.0
Y,R,"[6, 9]",1.0,4.0,0.2313392162322998,1.6614611148834229,0.3258943888848062,69.0,695.0,0.0
Y,R,"[6, 10]",1.0,5.0,0.2554779052734375,1.8836209774017334,0.5424201619101914,69.0,696.0,0.0
R,U,"[5, 10]",1.0,6.0,0.22051000595092773,1.8217649459838867,0.5143840372871598,69.0,697.0,0.0
R,U,"[4, 10]",1.0,7.0,0.2081298828125,1.593385934829712,0.27446719364800853,69.0,698.0,0.0
B,L,"[4, 9]",1.0,8.0,0.21294689178466797,1.9825098514556885,0.6735341432996791,69.0,699.0,0.0
R,U,"[3, 9]",1.0,9.0,0.24541711807250977,1.8206419944763184,0.4773543606924064,69.0,700.0,0.0
,,"(6, 6)",,,,,,,,
Y,R,"[6, 7]",0.0,0.0,0.5722930431365967,2.908951997756958,0.35301994623184474,70.0,701.0,0.0
Y,R,"[6, 8]",1.0,1.0,0.5417170524597168,2.3094980716705322,0.6622400925175426,70.0,702.0,0.0
Y,R,"[6, 9]",1.0,2.0,0.30925512313842773,1.774872064590454,0.3707738689590556,70.0,703.0,0.0
G,D,"[7, 9]",0.0,2.0,0.39147305488586426,2.1579229831695557,0.6616756025093519,70.0,704.0,0.0
Y,R,"[7, 10]",0.0,2.0,0.7830891609191895,2.4216930866241455,0.5500841027960328,70.0,705.0,0.0
Y,R,"[7, 11]",-1.0,2.0,0.03729104995727539,5.843986988067627,0.6770650299839046,70.0,706.0,0.0
R,U,"[6, 11]",0.0,2.0,0.1690988540649414,1.5558710098266602,0.29984696190573606,70.0,707.0,0.0
R,U,"[5, 11]",0.0,2.0,0.2303781509399414,2.0171821117401123,0.6833782721181061,70.0,708.0,0.0
B,L,"[5, 10]",1.0,3.0,0.2955019474029541,1.8205211162567139,0.42081438585647946,70.0,709.0,0.0
R,U,"[4, 10]",1.0,4.0,0.25739097595214844,1.927880048751831,0.5653695677780446,70.0,710.0,0.0
,,"(6, 6)",,,,,,,,
R,U,"[5, 6]",1.0,1.0,0.483292818069458,4.157960891723633,0.3065848164195359,71.0,711.0,0.0
Y,R,"[5, 7]",1.0,2.0,0.1213829517364502,1.692978858947754,0.4663098589817992,71.0,712.0,0.0
Y,R,"[5, 8]",1.0,3.0,0.39044189453125,1.9599380493164062,0.4592356847465486,71.0,713.0,0.0
G,D,"[6, 8]",1.0,4.0,0.3782520294189453,1.7447850704193115,0.2708982084834735,71.0,714.0,0.0
Y,R,"[6, 9]",1.0,5.0,0.10091686248779297,1.8166179656982422,0.62052518208576,71.0,715.0,0.0
Y,R,"[6, 10]",1.0,6.0,0.13346409797668457,1.9672539234161377,0.7379539255413576,71.0,716.0,0.0
R,U,"[5, 10]",1.0,7.0,0.15558099746704102,1.8589890003204346,0.5966193636944559,71.0,717.0,0.0
R,U,"[4, 10]",1.0,8.0,0.20353913307189941,1.9195201396942139,0.6161680747903386,71.0,718.0,0.0
B,L,"[4, 9]",-2.0,8.0,1.3075499534606934,2.901242971420288,0.5505948375969456,71.0,719.0,0.0
R,U,"[3, 9]",1.0,9.0,0.23037385940551758,1.9852559566497803,0.6523826992567474,71.0,720.0,0.0
,,"(6, 6)",,,,,,,,
R,U,"[5, 6]",1.0,1.0,0.8035581111907959,23.707664012908936,0.36005815828853144,72.0,721.0,0.0
Y,R,"[5, 7]",1.0,2.0,0.25473690032958984,1.8503320217132568,0.5098806079931417,72.0,722.0,0.0
Y,R,"[5, 8]",1.0,3.0,0.29496288299560547,2.0050950050354004,0.6150029494085898,72.0,723.0,0.0
G,D,"[6, 8]",1.0,4.0,0.3033480644226074,1.6635169982910156,0.2620531304386864,72.0,724.0,0.0
Y,R,"[6, 9]",1.0,5.0,0.3979008197784424,1.895493984222412,0.40741532211248427,72.0,725.0,0.0
Y,R,"[6, 10]",1.0,6.0,0.23697400093078613,1.7368481159210205,0.4108090524389155,72.0,726.0,0.0
R,U,"[5, 10]",1.0,7.0,0.2255418300628662,1.6724631786346436,0.3500110131218359,72.0,727.0,0.0
R,U,"[4, 10]",1.0,8.0,0.30216097831726074,1.839695930480957,0.43963686436853844,72.0,728.0,0.0
B,L,"[4, 9]",1.0,9.0,0.17070484161376953,1.9048669338226318,0.6437941308082,72.0,729.0,0.0
R,U,"[3, 9]",1.0,10.0,0.23288702964782715,1.5905780792236328,0.2684989220886383,72.0,730.0,0.0
,,"(6, 6)",,,,,,,,
R,U,"[5, 6]",1.0,1.0,0.6124351024627686,16.56858992576599,0.5364768801133393,73.0,731.0,0.0
Y,R,"[5, 7]",1.0,2.0,0.10371613502502441,1.5230700969696045,0.3262944776178482,73.0,732.0,0.0
Y,R,"[5, 8]",1.0,3.0,0.2821788787841797,1.8809881210327148,0.5074615251832088,73.0,733.0,0.0
G,D,"[6, 8]",1.0,4.0,0.1988229751586914,1.965636968612671,0.6724965576590036,73.0,734.0,0.0
Y,R,"[6, 9]",1.0,5.0,0.33405494689941406,1.9121160507202148,0.4847573282813173,73.0,735.0,0.0
Y,R,"[6, 10]",1.0,6.0,0.35144805908203125,2.1757540702819824,0.7270056653287934,73.0,736.0,0.0
R,U,"[5, 10]",1.0,7.0,0.22804999351501465,2.0493130683898926,0.7262199597953503,73.0,737.0,0.0
R,U,"[4, 10]",1.0,8.0,0.23665189743041992,1.7642481327056885,0.44073905754823095,73.0,738.0,0.0
B,L,"[4, 9]",1.0,9.0,0.14197587966918945,1.8058891296386719,0.5630250094288214,73.0,739.0,0.0
R,U,"[3, 9]",1.0,10.0,0.23729205131530762,2.0357301235198975,0.6819453593546454,73.0,740.0,0.0
,,"(6, 6)",,,,,,,,
R,U,"[5, 6]",1.0,1.0,0.870919942855835,80.99737095832825,0.5274118992705144,74.0,741.0,0.0
Y,R,"[5, 7]",1.0,2.0,0.20537996292114258,1.8995261192321777,0.610137206773672,74.0,742.0,0.0
Y,R,"[5, 8]",1.0,3.0,0.39142799377441406,2.1999058723449707,0.7099934989934139,74.0,743.0,0.0
G,D,"[6, 8]",-1.0,3.0,0.008327960968017578,5.653825998306274,0.5304658461887194,74.0,744.0,0.0
Y,R,"[6, 9]",1.0,4.0,0.8428871631622314,2.3733510971069336,0.4205207126510902,74.0,745.0,0.0
Y,R,"[6, 10]",1.0,5.0,0.5129330158233643,1.9352350234985352,0.322565511807826,74.0,746.0,0.0
R,U,"[5, 10]",-2.0,5.0,2.0726540088653564,3.635283946990967,0.5242292103202744,74.0,747.0,0.0
R,U,"[4, 10]",1.0,6.0,0.13617515563964844,1.5639111995697021,0.3382080774458922,74.0,748.0,0.0
B,L,"[4, 9]",1.0,7.0,0.24173617362976074,1.7334980964660645,0.38838667479512273,74.0,749.0,0.0
R,U,"[3, 9]",1.0,8.0,0.24042987823486328,1.7827811241149902,0.43763749615652053,74.0,750.0,0.0
,,"(6, 6)",,,,,,,,
R,U,"[5, 6]",1.0,1.0,0.5305020809173584,95.01337313652039,0.6983792633496071,75.0,751.0,0.0
Y,R,"[5, 7]",1.0,2.0,0.8585529327392578,2.548682928085327,0.5804161442555613,75.0,752.0,0.0
Y,R,"[5, 8]",1.0,3.0,0.19852519035339355,1.8722748756408691,0.5696328648156508,75.0,753.0,0.0
G,D,"[6, 8]",1.0,4.0,0.2299189567565918,1.744123935699463,0.41352917001570033,75.0,754.0,0.0
Y,R,"[6, 9]",1.0,5.0,0.4878878593444824,1.93959379196167,0.3531493842942595,75.0,755.0,0.0
Y,R,"[6, 10]",1.0,6.0,0.5424089431762695,1.972722053527832,0.3257645468579328,75.0,756.0,0.0
R,U,"[5, 10]",-2.0,6.0,2.4519898891448975,4.123367071151733,0.6488694122903861,75.0,757.0,0.0
R,U,"[4, 10]",-2.0,6.0,1.2817449569702148,2.939008951187134,0.62132723272652,75.0,758.0,0.0
B,L,"[4, 9]",1.0,7.0,0.7834029197692871,2.5073630809783936,0.6282755481563216,75.0,759.0,0.0
R,U,"[3, 9]",1.0,8.0,0.6229648590087891,1.9819388389587402,0.26062714174168616,75.0,760.0,0.0
,,"(6, 6)",,,,,,,,
R,U,"[5, 6]",1.0,1.0,0.6382038593292236,14.732436895370483,0.3091924882570389,76.0,761.0,0.0
Y,R,"[5, 7]",1.0,2.0,0.22206711769104004,1.70792818069458,0.38372565653471913,76.0,762.0,0.0
Y,R,"[5, 8]",1.0,3.0,0.24437785148620605,1.651940107345581,0.30242427208357725,76.0,763.0,0.0
G,D,"[6, 8]",1.0,4.0,0.4674520492553711,1.8511641025543213,0.28682818209629796,76.0,764.0,0.0
Y,R,"[6, 9]",1.0,5.0,0.429063081741333,1.8345801830291748,0.30475594734933775,76.0,765.0,0.0
Y,R,"[6, 10]",1.0,6.0,0.5414249897003174,2.153442144393921,0.5079358747866427,76.0,766.0,0.0
R,U,"[5, 10]",1.0,7.0,0.3229207992553711,1.9658620357513428,0.5404045454835691,76.0,767.0,0.0
R,U,"[4, 10]",1.0,8.0,0.18329691886901855,1.6370561122894287,0.36091613270811085,76.0,768.0,0.0
B,L,"[4, 9]",1.0,9.0,0.24921703338623047,2.0390820503234863,0.6994800284614929,76.0,769.0,0.0
G,D,"[5, 9]",-1.0,9.0,0.011809110641479492,5.555876016616821,0.4054750861520733,76.0,770.0,0.0
,,"(6, 6)",,,,,,,,
B,L,"[6, 5]",0.0,0.0,0.16522598266601562,2.7226369380950928,0.41150998765066543,77.0,771.0,0.0
R,U,"[5, 5]",0.0,0.0,0.12608814239501953,1.7907071113586426,0.568591450015737,77.0,772.0,0.0
Y,R,"[5, 6]",1.0,1.0,0.15300393104553223,1.6959030628204346,0.44802086868493524,77.0,773.0,0.0
G,D,"[6, 6]",0.0,1.0,0.22708392143249512,1.8986930847167969,0.563204249355812,77.0,774.0,0.0
Y,R,"[6, 7]",0.0,1.0,0.6871089935302734,2.3466358184814453,0.5596758830675037,77.0,775.0,0.0
Y,R,"[6, 8]",1.0,2.0,0.2406909465789795,1.6555709838867188,0.3155018338468824,77.0,776.0,0.0
R,U,"[5, 8]",-1.0,2.0,0.024207115173339844,5.731207847595215,0.5796686796172523,77.0,777.0,0.0
R,U,"[4, 8]",0.0,2.0,0.10869193077087402,1.8695158958435059,0.6490533658311874,77.0,778.0,0.0
B,L,"[4, 7]",0.0,2.0,0.23601102828979492,1.5994420051574707,0.26551641554773775,77.0,779.0,0.0
B,L,"[4, 6]",-1.0,2.0,0.058912038803100586,5.645936012268066,0.4610417181049759,77.0,780.0,0.0
,,"(6, 6)",,,,,,,,
R,U,"[5, 6]",1.0,1.0,0.5650100708007812,6.474499225616455,0.41880063545359975,78.0,781.0,0.0
Y,R,"[5, 7]",1.0,2.0,0.279738187789917,1.884477138519287,0.5031882720343854,78.0,782.0,0.0
Y,R,"[5, 8]",1.0,3.0,0.3111109733581543,1.8834619522094727,0.469904378207681,78.0,783.0,0.0
G,D,"[6, 8]",1.0,4.0,0.2039780616760254,2.004854917526245,0.7077435515719049,78.0,784.0,0.0
Y,R,"[6, 9]",1.0,5.0,0.1867818832397461,1.614743947982788,0.33944734395342613,78.0,785.0,0.0
Y,R,"[6, 10]",1.0,6.0,0.18951106071472168,1.937974214553833,0.6441215415603737,78.0,786.0,0.0
R,U,"[5, 10]",1.0,7.0,0.4510960578918457,2.206023931503296,0.6663629109455355,78.0,787.0,0.0
R,U,"[4, 10]",1.0,8.0,0.1835470199584961,1.8814468383789062,0.5977941696226592,78.0,788.0,0.0
B,L,"[4, 9]",1.0,9.0,0.29001617431640625,2.006657838821411,0.6045522490418305,78.0,789.0,0.0
R,U,"[3, 9]",1.0,10.0,0.621392011642456,2.4201719760894775,0.6913290463323507,78.0,790.0,0.0
,,"(6, 6)",,,,,,,,
R,U,"[5, 6]",1.0,1.0,0.6978309154510498,5.406122922897339,0.7471516093518251,79.0,791.0,0.0
Y,R,"[5, 7]",1.0,2.0,0.21702003479003906,1.584118127822876,0.2649107522534961,79.0,792.0,0.0
Y,R,"[5, 8]",1.0,3.0,0.2321910858154297,2.003862142562866,0.6684214724670279,79.0,793.0,0.0
G,D,"[6, 8]",1.0,4.0,0.23317599296569824,1.9738831520080566,0.6422639859378446,79.0,794.0,0.0
Y,R,"[6, 9]",1.0,5.0,0.11070895195007324,1.8593590259552002,0.6515535505526633,79.0,795.0,0.0
Y,R,"[6, 10]",1.0,6.0,0.18488097190856934,1.6517891883850098,0.37019846158635794,79.0,796.0,0.0
R,U,"[5, 10]",1.0,7.0,0.2485668659210205,1.7064969539642334,0.3599952122725022,79.0,797.0,0.0
R,U,"[4, 10]",1.0,8.0,0.20974206924438477,1.6656980514526367,0.3589787218094291,79.0,798.0,0.0
B,L,"[4, 9]",1.0,9.0,0.27702903747558594,1.6881799697875977,0.3137658818219134,79.0,799.0,0.0
R,U,"[3, 9]",1.0,10.0,0.5000460147857666,2.3133621215820312,0.7100626613527765,79.0,800.0,0.0
,,"(6, 6)",,,,,,,,
R,U,"[5, 6]",1.0,1.0,0.6207659244537354,4.188345909118652,0.648303185003416,80.0,801.0,0.0
Y,R,"[5, 7]",1.0,2.0,0.21499896049499512,1.8374810218811035,0.5193297873435192,80.0,802.0,0.0
Y,R,"[5, 8]",1.0,3.0,0.15960693359375,1.6458091735839844,0.38177323062727464,80.0,803.0,0.0
G,D,"[6, 8]",1.0,4.0,0.13267803192138672,1.6260249614715576,0.3911295791947337,80.0,804.0,0.0
Y,R,"[6, 9]",1.0,5.0,0.2047891616821289,1.997657060623169,0.7050476800439818,80.0,805.0,0.0
Y,R,"[6, 10]",1.0,6.0,0.5090899467468262,1.9323079586029053,0.3210360977932747,80.0,806.0,0.0
R,U,"[5, 10]",1.0,7.0,0.19910311698913574,1.607069969177246,0.31135038147504757,80.0,807.0,0.0
R,U,"[4, 10]",1.0,8.0,0.2735459804534912,1.7319250106811523,0.36000836122480145,80.0,808.0,0.0
B,L,"[4, 9]",1.0,9.0,0.20204901695251465,1.7240557670593262,0.43389767401864265,80.0,809.0,0.0
R,U,"[3, 9]",1.0,10.0,0.17981886863708496,1.7093119621276855,0.4264128595177414,80.0,810.0,0.0
,,"(6, 6)",,,,,,,,
R,U,"[5, 6]",1.0,1.0,0.5496048927307129,2.714020013809204,0.3904907377271165,81.0,811.0,0.0
Y,R,"[5, 7]",1.0,2.0,0.23403000831604004,1.6503210067749023,0.3240818511402104,81.0,812.0,0.0
Y,R,"[5, 8]",1.0,3.0,0.23794293403625488,1.9821770191192627,0.6392671432821093,81.0,813.0,0.0
G,D,"[6, 8]",1.0,4.0,0.2174968719482422,1.7831628322601318,0.4726919316388244,81.0,814.0,0.0
Y,R,"[6, 9]",1.0,5.0,0.1922440528869629,1.9544410705566406,0.6601474736010827,81.0,815.0,0.0
Y,R,"[6, 10]",1.0,6.0,0.1431868076324463,1.637355089187622,0.397627311792205,81.0,816.0,0.0
R,U,"[5, 10]",1.0,7.0,0.38367486000061035,1.8798120021820068,0.394060879631179,81.0,817.0,0.0
R,U,"[4, 10]",1.0,8.0,0.35547399520874023,2.0862340927124023,0.629987292117155,81.0,818.0,0.0
B,L,"[4, 9]",1.0,9.0,0.20953798294067383,1.7485640048980713,0.4287868668335634,81.0,819.0,0.0
R,U,"[3, 9]",1.0,10.0,0.20809197425842285,2.0190300941467285,0.7140565646100875,81.0,820.0,0.0
,,"(6, 6)",,,,,,,,
R,U,"[5, 6]",-2.0,0.0,2.339906930923462,5.3905439376831055,0.5713953743596671,82.0,821.0,0.0
Y,R,"[5, 7]",1.0,1.0,0.16753792762756348,1.707547903060913,0.44560375633602023,82.0,822.0,0.0
Y,R,"[5, 8]",1.0,2.0,0.17542099952697754,1.9226000308990479,0.651409442624402,82.0,823.0,0.0
G,D,"[6, 8]",1.0,3.0,0.20603704452514648,1.6667659282684326,0.3515745530502062,82.0,824.0,0.0
Y,R,"[6, 9]",1.0,4.0,0.1961958408355713,2.0251219272613525,0.7263981975321032,82.0,825.0,0.0
Y,R,"[6, 10]",1.0,5.0,0.376910924911499,1.8997759819030762,0.4263368138938718,82.0,826.0,0.0
R,U,"[5, 10]",1.0,6.0,0.2754840850830078,1.9563651084899902,0.5825251088018251,82.0,827.0,0.0
R,U,"[4, 10]",1.0,7.0,0.20874404907226562,1.7098941802978516,0.39263828744273066,82.0,828.0,0.0
B,L,"[4, 9]",1.0,8.0,0.17194390296936035,1.7926480770111084,0.5349465691533395,82.0,829.0,0.0
R,U,"[3, 9]",1.0,9.0,0.18178892135620117,1.6823351383209229,0.40065761081740725,82.0,830.0,0.0
,,"(6, 6)",,,,,,,,
R,U,"[5, 6]",1.0,1.0,0.5201690196990967,3.0977489948272705,0.6148505556888655,83.0,831.0,0.0
Y,R,"[5, 7]",1.0,2.0,0.19344091415405273,1.7609648704528809,0.4593782282047607,83.0,832.0,0.0
Y,R,"[5, 8]",1.0,3.0,0.2322840690612793,1.6197490692138672,0.29578380340204163,83.0,833.0,0.0
G,D,"[6, 8]",1.0,4.0,0.24894094467163086,2.0739529132843018,0.736005932572198,83.0,834.0,0.0
Y,R,"[6, 9]",1.0,5.0,0.20729684829711914,1.5942959785461426,0.2807750096444351,83.0,835.0,0.0
Y,R,"[6, 10]",1.0,6.0,0.28548502922058105,1.6593871116638184,0.27327210155425236,83.0,836.0,0.0
R,U,"[5, 10]",1.0,7.0,0.2627270221710205,2.056514024734497,0.6961280718408245,83.0,837.0,0.0
R,U,"[4, 10]",1.0,8.0,0.1638941764831543,1.7390329837799072,0.4686840069827669,83.0,838.0,0.0
B,L,"[4, 9]",1.0,9.0,0.17430591583251953,1.7242121696472168,0.442858283721182,83.0,839.0,0.0
R,U,"[3, 9]",1.0,10.0,0.21044015884399414,1.7740299701690674,0.4667842149997139,83.0,840.0,0.0
,,"(6, 6)",,,,,,,,
R,U,"[5, 6]",1.0,1.0,0.5912799835205078,4.624405860900879,0.5908616610948119,84.0,841.0,0.0
Y,R,"[5, 7]",1.0,2.0,0.19948601722717285,1.5532078742980957,0.26109538313731495,84.0,842.0,0.0
Y,R,"[5, 8]",1.0,3.0,0.10477209091186523,1.8354229927062988,0.6460291228235795,84.0,843.0,0.0
G,D,"[6, 8]",1.0,4.0,0.1564960479736328,1.558439016342163,0.2882151413796181,84.0,844.0,0.0
Y,R,"[6, 9]",1.0,5.0,0.2626008987426758,1.7933378219604492,0.43127348337098953,84.0,845.0,0.0
Y,R,"[6, 10]",1.0,6.0,0.17733407020568848,1.8297441005706787,0.5442773350093427,84.0,846.0,0.0
R,U,"[5, 10]",1.0,7.0,0.18155288696289062,1.9436321258544922,0.6709543162329259,84.0,847.0,0.0
R,U,"[4, 10]",1.0,8.0,0.18305087089538574,1.5684289932250977,0.2897346127575661,84.0,848.0,0.0
B,L,"[4, 9]",1.0,9.0,0.22887301445007324,1.7763359546661377,0.4492427904443483,84.0,849.0,0.0
R,U,"[3, 9]",1.0,10.0,0.32265210151672363,1.9151129722595215,0.48085118989692993,84.0,850.0,0.0
,,"(6, 6)",,,,,,,,
R,U,"[5, 6]",-2.0,0.0,1.0520257949829102,3.646613121032715,0.5273433677569576,85.0,851.0,0.0
Y,R,"[5, 7]",1.0,1.0,0.2005298137664795,1.7223010063171387,0.43309872284445605,85.0,852.0,0.0
Y,R,"[5, 8]",1.0,2.0,0.22518205642700195,1.5921568870544434,0.25865550496618395,85.0,853.0,0.0
G,D,"[6, 8]",1.0,3.0,0.24473214149475098,1.8640079498291016,0.522318334772073,85.0,854.0,0.0
Y,R,"[6, 9]",1.0,4.0,0.11207294464111328,1.5840859413146973,0.3732252995093229,85.0,855.0,0.0
Y,R,"[6, 10]",1.0,5.0,0.22264695167541504,1.6256401538848877,0.29896061473057617,85.0,856.0,0.0
R,U,"[5, 10]",-1.0,5.0,0.004601001739501953,5.6118199825286865,0.4770955310554133,85.0,857.0,0.0
R,U,"[4, 10]",1.0,6.0,0.14644122123718262,1.5700669288635254,0.33044018824490967,85.0,858.0,0.0
B,L,"[4, 9]",-1.0,6.0,0.09494590759277344,5.975733995437622,0.739096849380791,85.0,859.0,0.0
R,U,"[3, 9]",-1.0,6.0,0.07804989814758301,5.899611949920654,0.6884629717562856,85.0,860.0,0.0
,,"(6, 6)",,,,,,,,
R,U,"[5, 6]",1.0,1.0,0.43642210960388184,5.542793035507202,0.3147984621417756,86.0,861.0,0.0
Y,R,"[5, 7]",1.0,2.0,0.2789490222930908,1.7614850997924805,0.3764049730582617,86.0,862.0,0.0
Y,R,"[5, 8]",1.0,3.0,0.31897497177124023,1.8322899341583252,0.42507973105560415,86.0,863.0,0.0
G,D,"[6, 8]",1.0,4.0,0.27353596687316895,1.866260051727295,0.49126306971488615,86.0,864.0,0.0
Y,R,"[6, 9]",1.0,5.0,0.5008330345153809,1.9086740016937256,0.31669725769787427,86.0,865.0,0.0
Y,R,"[6, 10]",1.0,6.0,0.47605395317077637,2.1266930103302,0.5432034178194893,86.0,866.0,0.0
R,U,"[5, 10]",1.0,7.0,0.27150702476501465,1.746978998184204,0.3903106132561185,86.0,867.0,0.0
R,U,"[4, 10]",1.0,8.0,0.4644489288330078,2.097917079925537,0.5379987428543584,86.0,868.0,0.0
B,L,"[4, 9]",1.0,9.0,0.23482894897460938,2.048089027404785,0.71901642001384,86.0,869.0,0.0
R,U,"[3, 9]",-2.0,9.0,1.0405728816986084,2.632124900817871,0.5512766088412193,86.0,870.0,0.0
,,"(6, 6)",,,,,,,,
R,U,"[5, 6]",1.0,1.0,0.7229411602020264,7.198385953903198,0.6328245266156904,87.0,871.0,0.0
Y,R,"[5, 7]",1.0,2.0,0.22181105613708496,2.017585039138794,0.6670035347562729,87.0,872.0,0.0
Y,R,"[5, 8]",1.0,3.0,0.22416210174560547,1.6334688663482666,0.30071095905004086,87.0,873.0,0.0
G,D,"[6, 8]",1.0,4.0,0.5298819541931152,2.013864040374756,0.38118215344768464,87.0,874.0,0.0
Y,R,"[6, 9]",1.0,5.0,0.25814104080200195,1.8245420455932617,0.4554897820385231,87.0,875.0,0.0
Y,R,"[6, 10]",1.0,6.0,0.25742292404174805,1.7477641105651855,0.3867378499044284,87.0,876.0,0.0
R,U,"[5, 10]",1.0,7.0,0.31823182106018066,1.9676239490509033,0.5540662188642753,87.0,877.0,0.0
R,U,"[4, 10]",1.0,8.0,0.23337197303771973,1.7265090942382812,0.3973895169263383,87.0,878.0,0.0
B,L,"[4, 9]",1.0,9.0,0.434298038482666,1.918990135192871,0.3830481095686091,87.0,879.0,0.0
R,U,"[3, 9]",1.0,10.0,0.3879878520965576,2.141500949859619,0.6573514106818632,87.0,880.0,0.0
,,"(6, 6)",,,,,,,,
R,U,"[5, 6]",1.0,1.0,0.5060839653015137,3.8201069831848145,0.39430494989254883,88.0,881.0,0.0
Y,R,"[5, 7]",1.0,2.0,0.26670289039611816,1.6056780815124512,0.2500852023719217,88.0,882.0,0.0
Y,R,"[5, 8]",1.0,3.0,0.45684003829956055,2.029038190841675,0.46216703250410834,88.0,883.0,0.0
G,D,"[6, 8]",1.0,4.0,0.2343120574951172,1.9545068740844727,0.6332083567512627,88.0,884.0,0.0
Y,R,"[6, 9]",1.0,5.0,0.23845219612121582,1.6085679531097412,0.2753658470944675,88.0,885.0,0.0
Y,R,"[6, 10]",1.0,6.0,0.5824520587921143,2.2565298080444336,0.5815519025905211,88.0,886.0,0.0
R,U,"[5, 10]",1.0,7.0,0.31577205657958984,2.0804378986358643,0.66187546044592,88.0,887.0,0.0
R,U,"[4, 10]",1.0,8.0,0.22716283798217773,1.9471640586853027,0.6261449799766035,88.0,888.0,0.0
B,L,"[4, 9]",1.0,9.0,0.2199718952178955,1.5732460021972656,0.26593302786856693,88.0,889.0,0.0
R,U,"[3, 9]",1.0,10.0,0.2877159118652344,1.8619239330291748,0.4607931729699422,88.0,890.0,0.0
,,"(6, 6)",,,,,,,,
R,U,"[5, 6]",1.0,1.0,0.6330890655517578,3.553704023361206,0.4645029270825494,89.0,891.0,0.0
Y,R,"[5, 7]",1.0,2.0,0.23302102088928223,1.8488860130310059,0.5132709483644814,89.0,892.0,0.0
Y,R,"[5, 8]",1.0,3.0,0.2448408603668213,1.9394898414611816,0.5859670700740438,89.0,893.0,0.0
G,D,"[6, 8]",1.0,4.0,0.14069509506225586,1.5004730224609375,0.2533460725749317,89.0,894.0,0.0
Y,R,"[6, 9]",1.0,5.0,0.30829405784606934,1.8592760562896729,0.4457795273657126,89.0,895.0,0.0
Y,R,"[6, 10]",1.0,6.0,0.22975897789001465,1.891347885131836,0.553863950235344,89.0,896.0,0.0
R,U,"[5, 10]",1.0,7.0,0.23919200897216797,1.817016839981079,0.4707539960382778,89.0,897.0,0.0
R,U,"[4, 10]",1.0,8.0,0.2603449821472168,1.7646830081939697,0.4021754111336865,89.0,898.0,0.0
B,L,"[4, 9]",1.0,9.0,0.2010650634765625,1.948155164718628,0.6498792727600036,89.0,899.0,0.0
R,U,"[3, 9]",1.0,10.0,0.22522807121276855,1.7836940288543701,0.46716573521886495,89.0,900.0,0.0
,,"(6, 6)",,,,,,,,
R,U,"[5, 6]",1.0,1.0,0.5502071380615234,3.3403589725494385,0.4905832272311691,90.0,901.0,0.0
Y,R,"[5, 7]",1.0,2.0,0.12438392639160156,1.6528840065002441,0.42699918842698165,90.0,902.0,0.0
Y,R,"[5, 8]",1.0,3.0,0.2355060577392578,1.7877190113067627,0.46458457231164,90.0,903.0,0.0
G,D,"[6, 8]",1.0,4.0,0.15915203094482422,1.9127869606018066,0.6437294360426005,90.0,904.0,0.0
Y,R,"[6, 9]",1.0,5.0,0.30828404426574707,1.8718609809875488,0.46581856570052727,90.0,905.0,0.0
Y,R,"[6, 10]",1.0,6.0,0.18175292015075684,1.9306871891021729,0.646298208853658,90.0,906.0,0.0
R,U,"[5, 10]",-1.0,6.0,0.03537487983703613,5.686998128890991,0.5165392537862821,90.0,907.0,0.0
R,U,"[4, 10]",1.0,7.0,0.5160300731658936,2.075376033782959,0.4584990371500329,90.0,908.0,0.0
B,L,"[4, 9]",1.0,8.0,0.4065549373626709,2.1041619777679443,0.5959702524648494,90.0,909.0,0.0
R,U,"[3, 9]",1.0,9.0,0.49861598014831543,2.0026180744171143,0.3985489753474123,90.0,910.0,0.0
,,"(6, 6)",,,,,,,,
R,U,"[5, 6]",1.0,1.0,0.5252799987792969,5.102537155151367,0.41761610386071635,91.0,911.0,0.0
Y,R,"[5, 7]",1.0,2.0,0.28164100646972656,1.6483120918273926,0.2661221291099607,91.0,912.0,0.0
Y,R,"[5, 8]",1.0,3.0,0.38843297958374023,1.9711220264434814,0.4702510454084141,91.0,913.0,0.0
G,D,"[6, 8]",1.0,4.0,0.29375505447387695,1.7156519889831543,0.31931836221993504,91.0,914.0,0.0
Y,R,"[6, 9]",1.0,5.0,0.3472919464111328,1.7071418762207031,0.25986558952054056,91.0,915.0,0.0
Y,R,"[6, 10]",1.0,6.0,0.5993928909301758,2.036550998687744,0.34630542362322997,91.0,916.0,0.0
R,U,"[5, 10]",1.0,7.0,0.8100728988647461,2.257642984390259,0.33715955555581506,91.0,917.0,0.0
R,U,"[4, 10]",1.0,8.0,0.1837291717529297,1.9735078811645508,0.6941285517053493,91.0,918.0,0.0
B,L,"[4, 9]",1.0,9.0,0.21638202667236328,1.9655280113220215,0.6591049448932231,91.0,919.0,0.0
R,U,"[3, 9]",1.0,10.0,0.27265405654907227,1.6498520374298096,0.29255141210080465,91.0,920.0,0.0
,,"(6, 6)",,,,,,,,
R,U,"[5, 6]",1.0,1.0,0.5193099975585938,3.4574410915374756,0.43308243817589714,92.0,921.0,0.0
Y,R,"[5, 7]",1.0,2.0,0.39488983154296875,1.8836829662322998,0.3834288415526498,92.0,922.0,0.0
Y,R,"[5, 8]",1.0,3.0,0.43355298042297363,2.1935200691223145,0.660047480560873,92.0,923.0,0.0
G,D,"[6, 8]",1.0,4.0,0.29135799407958984,2.1024529933929443,0.7123259460573325,92.0,924.0,0.0
Y,R,"[6, 9]",1.0,5.0,0.39757800102233887,2.0538108348846436,0.549668024472058,92.0,925.0,0.0
Y,R,"[6, 10]",-2.0,5.0,2.2844159603118896,3.912735939025879,0.5956062369510698,92.0,926.0,0.0
R,U,"[5, 10]",1.0,6.0,0.5094168186187744,2.2267699241638184,0.6221910512493198,92.0,927.0,0.0
R,U,"[4, 10]",1.0,7.0,0.11138296127319336,1.6829240322113037,0.471828725032892,92.0,928.0,0.0
B,L,"[4, 9]",1.0,8.0,0.25978803634643555,1.7674050331115723,0.40590743467168355,92.0,929.0,0.0
R,U,"[3, 9]",-2.0,8.0,1.9361870288848877,3.2620341777801514,0.30122387594231037,92.0,930.0,0.0
,,"(6, 6)",,,,,,,,
R,U,"[5, 6]",1.0,1.0,0.5311861038208008,5.256679058074951,0.3745138686500899,93.0,931.0,0.0
Y,R,"[5, 7]",-1.0,1.0,0.09829092025756836,5.7071919441223145,0.4813963359854421,93.0,932.0,0.0
Y,R,"[5, 8]",1.0,2.0,0.2886240482330322,1.724100112915039,0.3389667754226077,93.0,933.0,0.0
G,D,"[6, 8]",1.0,3.0,0.3339259624481201,2.0241780281066895,0.5961944805607984,93.0,934.0,0.0
Y,R,"[6, 9]",1.0,4.0,0.3413400650024414,2.0355870723724365,0.581525100780208,93.0,935.0,0.0
Y,R,"[6, 10]",1.0,5.0,0.27295804023742676,1.8701701164245605,0.48516792907580686,93.0,936.0,0.0
R,U,"[5, 10]",1.0,6.0,0.2513151168823242,1.6998040676116943,0.3517836952757499,93.0,937.0,0.0
G,D,"[6, 10]",0.0,6.0,0.3435790538787842,1.9257540702819824,0.47728256138529224,93.0,938.0,0.0
B,L,"[6, 9]",0.0,6.0,0.2085881233215332,1.8131740093231201,0.5070436488457353,93.0,939.0,0.0
R,U,"[5, 9]",-1.0,6.0,0.03218984603881836,5.566971063613892,0.40725625915981595,93.0,940.0,0.0
,,"(6, 6)",,,,,,,,
R,U,"[5, 6]",-2.0,0.0,1.2600111961364746,14.416833877563477,0.640127025415435,94.0,941.0,0.0
Y,R,"[5, 7]",1.0,1.0,0.22926807403564453,2.0687739849090576,0.7420755635257034,94.0,942.0,0.0
Y,R,"[5, 8]",1.0,2.0,0.22853302955627441,1.8044309616088867,0.4801532704513085,94.0,943.0,0.0
G,D,"[6, 8]",1.0,3.0,0.2268669605255127,1.9614789485931396,0.6246629799577543,94.0,944.0,0.0
Y,R,"[6, 9]",1.0,4.0,0.4178178310394287,1.8301050662994385,0.32175414035215605,94.0,945.0,0.0
Y,R,"[6, 10]",1.0,5.0,0.31981396675109863,2.1194329261779785,0.7073300112808204,94.0,946.0,0.0
R,U,"[5, 10]",-1.0,5.0,0.06735992431640625,5.493268013000488,0.30090041569124715,94.0,947.0,0.0
R,U,"[4, 10]",1.0,6.0,0.22666692733764648,1.998136043548584,0.665315797454929,94.0,948.0,0.0
B,L,"[4, 9]",1.0,7.0,0.23561906814575195,1.7778370380401611,0.4433207562374738,94.0,949.0,0.0
R,U,"[3, 9]",1.0,8.0,0.17705917358398438,1.9473071098327637,0.6736189991498404,94.0,950.0,0.0
,,"(6, 6)",,,,,,,,
R,U,"[5, 6]",1.0,1.0,0.2946281433105469,3.279391050338745,0.30336226641011943,95.0,951.0,0.0
Y,R,"[5, 7]",1.0,2.0,0.7066240310668945,2.08347487449646,0.2699028380396776,95.0,952.0,0.0
Y,R,"[5, 8]",1.0,3.0,0.3340330123901367,1.7187869548797607,0.28877426452056326,95.0,953.0,0.0
Y,R,"[5, 9]",0.0,3.0,0.11648893356323242,1.8190109729766846,0.6073966394302008,95.0,954.0,0.0
Y,R,"[5, 10]",-2.0,3.0,1.2530782222747803,2.5371389389038086,0.26148978057787375,95.0,955.0,0.0
Y,R,"[5, 11]",0.0,3.0,0.3244140148162842,2.11936092376709,0.6973291256352787,95.0,956.0,0.0
Y,R,"[5, 10]",-3.0,3.0,0.31618618965148926,1.674152135848999,0.2548528803208467,95.0,957.0,0.0
G,D,"[6, 10]",1.0,4.0,0.22661304473876953,1.7803640365600586,0.45177478198306525,95.0,958.0,0.0
Y,R,"[6, 11]",0.0,4.0,0.3242640495300293,1.8594269752502441,0.4277369785650335,95.0,959.0,0.0
B,L,"[6, 10]",0.0,4.0,0.1569199562072754,1.7775352001190186,0.5219055359690936,95.0,960.0,0.0
,,"(6, 6)",,,,,,,,
R,U,"[5, 6]",1.0,1.0,0.5237419605255127,3.8721718788146973,0.710324683550803,96.0,961.0,0.0
Y,R,"[5, 7]",1.0,2.0,0.22001099586486816,1.867326021194458,0.5611855090295581,96.0,962.0,0.0
Y,R,"[5, 8]",-1.0,2.0,0.020717859268188477,5.414570093154907,0.2757600779259835,96.0,963.0,0.0
Y,R,"[5, 9]",0.0,2.0,0.5055241584777832,2.353314161300659,0.728626836274703,96.0,964.0,0.0
G,D,"[6, 9]",1.0,3.0,0.2043781280517578,1.5693261623382568,0.28161324065010734,96.0,965.0,0.0
Y,R,"[6, 10]",1.0,4.0,0.25614500045776367,1.8883309364318848,0.5197669897386143,96.0,966.0,0.0
Y,R,"[6, 11]",-2.0,4.0,1.2227940559387207,2.881168842315674,0.6174089497789905,96.0,967.0,0.0
Y,R,"[6, 10]",-3.0,4.0,0.6113560199737549,2.4625189304351807,0.7457083797336181,96.0,968.0,0.0
G,D,"[7, 10]",0.0,4.0,0.12754106521606445,1.9235999584197998,0.6865582521797088,96.0,969.0,0.0
Y,R,"[7, 11]",0.0,4.0,0.11503410339355469,1.5236279964447021,0.3105348345331851,96.0,970.0,0.0
,,"(6, 6)",,,,,,,,
R,U,"[5, 6]",1.0,1.0,0.37423205375671387,3.139272928237915,0.582894006523601,97.0,971.0,0.0
Y,R,"[5, 7]",1.0,2.0,0.2541799545288086,2.067903995513916,0.7172019366320301,97.0,972.0,0.0
Y,R,"[5, 8]",1.0,3.0,0.20057106018066406,1.6448121070861816,0.3456359528725821,97.0,973.0,0.0
G,D,"[6, 8]",1.0,4.0,0.2641000747680664,1.7721059322357178,0.4175899697971572,97.0,974.0,0.0
Y,R,"[6, 9]",1.0,5.0,0.12070298194885254,1.5727910995483398,0.35707061986153743,97.0,975.0,0.0
Y,R,"[6, 10]",1.0,6.0,0.20104598999023438,1.824742078781128,0.5317386060803638,97.0,976.0,0.0
R,U,"[5, 10]",1.0,7.0,0.24266600608825684,2.0079121589660645,0.6559855076858734,97.0,977.0,0.0
B,L,"[5, 9]",0.0,7.0,0.14496302604675293,1.9191999435424805,0.6751229662406272,97.0,978.0,0.0
B,L,"[5, 8]",-1.0,7.0,0.05219912528991699,5.445564031600952,0.2709962573646773,97.0,979.0,0.0
R,U,"[4, 8]",0.0,7.0,0.5346720218658447,2.0600080490112305,0.43056855740664735,97.0,980.0,0.0
,,"(6, 6)",,,,,,,,
G,D,"[7, 6]",0.0,0.0,0.7420229911804199,17.330940008163452,0.6778943208555874,98.0,981.0,0.0
Y,R,"[7, 7]",-1.0,0.0,0.006292104721069336,5.762687921524048,0.6400471501786105,98.0,982.0,0.0
Y,R,"[7, 8]",0.0,0.0,0.27054619789123535,2.0225088596343994,0.6625625588354261,98.0,983.0,0.0
G,D,"[8, 8]",0.0,0.0,0.32113099098205566,2.1397688388824463,0.7023367429289327,98.0,984.0,0.0
Y,R,"[8, 9]",0.0,0.0,0.1790170669555664,2.0281050205230713,0.7468791389597615,98.0,985.0,0.0
Y,R,"[8, 10]",0.0,0.0,0.2893850803375244,1.7992839813232422,0.39647995751897497,98.0,986.0,0.0
R,U,"[7, 10]",0.0,0.0,0.5495271682739258,2.3732340335845947,0.7198603264469283,98.0,987.0,0.0
R,U,"[6, 10]",1.0,1.0,0.20500993728637695,2.0614981651306152,0.7475064880217331,98.0,988.0,0.0
R,U,"[5, 10]",1.0,2.0,0.18096184730529785,1.6861600875854492,0.4005464583766977,98.0,989.0,0.0
B,L,"[5, 9]",0.0,2.0,0.2906529903411865,1.657547950744629,0.2582109160634612,98.0,990.0,0.0
,,"(6, 6)",,,,,,,,
R,U,"[5, 6]",1.0,1.0,0.5776629447937012,3.301037073135376,0.4422162039179739,99.0,991.0,0.0
Y,R,"[5, 7]",1.0,2.0,0.28357601165771484,1.9150969982147217,0.5405393601502786,99.0,992.0,0.0
Y,R,"[5, 8]",1.0,3.0,0.13517403602600098,1.8150110244750977,0.5888659039314785,99.0,993.0,0.0
G,D,"[6, 8]",1.0,4.0,0.17447400093078613,1.622615098953247,0.34506250723238113,99.0,994.0,0.0
Y,R,"[6, 9]",1.0,5.0,0.23862409591674805,1.635909080505371,0.3141173446560707,99.0,995.0,0.0
Y,R,"[6, 10]",1.0,6.0,0.2338240146636963,1.6618261337280273,0.32589373592501303,99.0,996.0,0.0
R,U,"[5, 10]",1.0,7.0,0.405454158782959,2.1509320735931396,0.643112063748869,99.0,997.0,0.0
R,U,"[4, 10]",-1.0,7.0,0.014005899429321289,5.5317699909210205,0.39169293553821694,99.0,998.0,0.0
B,L,"[4, 9]",-2.0,7.0,1.138010025024414,2.5906951427459717,0.4156784936617928,99.0,999.0,0.0
R,U,"[3, 9]",1.0,8.0,0.39990806579589844,1.8917961120605469,0.39077962778049924,99.0,1000.0,0.0
