button_choice,action_choice,coordinate_choice,reward,cumulative_reward,rt,total_trial_time,iti,block_n,trial_n
Y,R,"[3, 4]",-2.0,0.0,1.6457219123840332,3.020343780517578,0.338004287413425,0.0,1.0
B,L,"[3, 3]",0.0,0.0,0.396543025970459,2.114410877227783,0.7187378065677342,0.0,2.0
G,D,"[4, 3]",-1.0,-1.0,0.26810693740844727,1.5884292125701904,0.30757025710665026,0.0,3.0
R,U,"[3, 3]",0.0,-1.0,0.289841890335083,1.77593994140625,0.48325834489136194,0.0,4.0
B,L,"[3, 2]",1.0,0.0,0.1627960205078125,1.4635779857635498,0.28050753530269573,0.0,5.0
B,L,"[3, 1]",1.0,1.0,0.1910228729248047,1.4575910568237305,0.2548981815195742,0.0,6.0
,,"(3, 3)",,,,,,0.0,
G,D,"[4, 3]",-1.0,-1.0,0.4917261600494385,7.230289936065674,0.6847575694680759,,7.0
G,D,"[5, 3]",-1.0,-2.0,0.19479799270629883,1.8350889682769775,0.636586424545644,1.0,8.0
Y,R,"[5, 4]",-1.0,-3.0,0.17385601997375488,1.4762589931488037,0.2964792967502113,1.0,9.0
B,L,"[5, 3]",0.0,-3.0,0.2054119110107422,1.8435778617858887,0.6232096162757232,1.0,10.0
R,U,"[4, 3]",0.0,-3.0,0.18393707275390625,1.7768161296844482,0.6001675630690805,1.0,11.0
G,D,"[5, 3]",0.0,-3.0,0.17667698860168457,1.5010380744934082,0.3180527911904321,1.0,12.0
,,"(3, 3)",,,,,,1.0,
B,L,"[3, 2]",1.0,1.0,0.43916893005371094,6.022794008255005,0.29094749295988603,,13.0
B,L,"[3, 1]",1.0,2.0,0.1664111614227295,1.475283145904541,0.2996038175593749,2.0,14.0
B,L,"[3, 0]",0.0,2.0,0.15804791450500488,1.705359935760498,0.5380479274266627,2.0,15.0
Y,R,"[3, 1]",0.0,2.0,0.14722299575805664,1.8048620223999023,0.659564069249545,2.0,16.0
Y,R,"[3, 2]",0.0,2.0,0.17926478385925293,1.64497709274292,0.47137248710067703,2.0,17.0
B,L,"[3, 1]",0.0,2.0,0.14527201652526855,1.838123083114624,0.6925592228797122,2.0,18.0
,,"(3, 3)",,,,,,2.0,
Y,R,"[3, 4]",-1.0,-1.0,0.7008628845214844,4.0931079387664795,0.5859895371171486,,19.0
B,L,"[3, 3]",0.0,-1.0,0.1401839256286621,1.6975178718566895,0.5501771999047386,3.0,20.0
G,D,"[4, 3]",-1.0,-2.0,0.23245906829833984,1.8934788703918457,0.6435836914986833,3.0,21.0
R,U,"[3, 3]",0.0,-2.0,0.15101289749145508,1.7467131614685059,0.5904207145828885,3.0,22.0
R,U,"[2, 3]",-1.0,-3.0,0.12803912162780762,1.8002851009368896,0.6738394668240476,3.0,23.0
Y,R,"[2, 4]",-1.0,-4.0,0.15507197380065918,1.5141339302062988,0.3717303761724427,3.0,24.0
,,"(3, 3)",,,,,,3.0,
B,L,"[3, 2]",1.0,1.0,0.5830140113830566,3.0085091590881348,0.3304137327896606,,25.0
B,L,"[3, 1]",1.0,2.0,0.17574095726013184,1.6782801151275635,0.49177734178317944,4.0,26.0
B,L,"[3, 0]",-1.0,2.0,0.029979944229125977,5.711750030517578,0.55368912404235,4.0,27.0
B,L,"[3, 0]",0.0,2.0,0.24661493301391602,1.6012849807739258,0.35506089702881166,4.0,28.0
R,U,"[2, 0]",0.0,2.0,0.2896730899810791,1.6389660835266113,0.34420787620416843,4.0,29.0
R,U,"[1, 0]",0.0,2.0,0.17457008361816406,1.886254072189331,0.7133980399255886,4.0,30.0
,,"(3, 3)",,,,,,4.0,
B,L,"[3, 2]",1.0,1.0,0.40306520462036133,3.9356558322906494,0.7324564690395725,,31.0
B,L,"[3, 1]",1.0,2.0,0.1552119255065918,1.8856391906738281,0.7180652260274011,5.0,32.0
Y,R,"[3, 2]",0.0,2.0,0.1630420684814453,1.687195062637329,0.5220983840368036,5.0,33.0
Y,R,"[3, 3]",0.0,2.0,0.1848440170288086,1.5942580699920654,0.41661953418508635,5.0,34.0
Y,R,"[3, 4]",-1.0,1.0,0.1728808879852295,1.848341941833496,0.6647218896106666,5.0,35.0
G,D,"[4, 4]",-1.0,0.0,0.21316003799438477,1.7413840293884277,0.5227928955517555,5.0,36.0
,,"(3, 3)",,,,,,5.0,
B,L,"[3, 2]",1.0,1.0,0.33124709129333496,3.471142053604126,0.5940684613631126,,37.0
B,L,"[3, 1]",1.0,2.0,0.1528780460357666,1.8854210376739502,0.7293012698809078,6.0,38.0
R,U,"[2, 1]",-1.0,2.0,0.015141963958740234,5.817682981491089,0.6638959173450035,6.0,39.0
R,U,"[1, 1]",-1.0,1.0,0.30025291442871094,1.9345169067382812,0.6151256953252173,6.0,40.0
G,D,"[2, 1]",0.0,1.0,0.2924039363861084,1.8580451011657715,0.5566515859782082,6.0,41.0
Y,R,"[2, 2]",1.0,2.0,0.23842716217041016,1.8830821514129639,0.6564086770831894,6.0,42.0
,,"(3, 3)",,,,,,6.0,
B,L,"[3, 2]",1.0,1.0,0.47971320152282715,4.113739967346191,0.503472018273791,,43.0
B,L,"[3, 1]",1.0,2.0,0.18974089622497559,1.789626121520996,0.5931015443969345,7.0,44.0
R,U,"[2, 1]",1.0,3.0,0.18132996559143066,1.4666430950164795,0.27670087258792087,7.0,45.0
Y,R,"[2, 2]",1.0,4.0,0.26670289039611816,1.96431303024292,0.6905886167861268,7.0,46.0
Y,R,"[2, 3]",-1.0,3.0,0.2072439193725586,1.5752599239349365,0.36632263485511773,7.0,47.0
B,L,"[2, 2]",0.0,3.0,0.18324899673461914,1.5004820823669434,0.31691245469518237,7.0,48.0
,,"(3, 3)",,,,,,7.0,
B,L,"[3, 2]",1.0,1.0,0.3517749309539795,4.577688932418823,0.49432103446011094,,49.0
B,L,"[3, 1]",1.0,2.0,0.17063188552856445,1.7741608619689941,0.6017575148522409,8.0,50.0
R,U,"[2, 1]",1.0,3.0,0.20613384246826172,1.883800983428955,0.6689199407969241,8.0,51.0
Y,R,"[2, 2]",1.0,4.0,0.17087507247924805,1.7952940464019775,0.6142152322117764,8.0,52.0
G,D,"[3, 2]",0.0,4.0,0.18395209312438965,1.5561540126800537,0.33745071874780463,8.0,53.0
G,D,"[4, 2]",-1.0,3.0,0.19202804565429688,1.5760648250579834,0.38008032931177665,8.0,54.0
,,"(3, 3)",,,,,,8.0,
B,L,"[3, 2]",1.0,1.0,0.5875561237335205,4.2676451206207275,0.647357772552972,,55.0
B,L,"[3, 1]",1.0,2.0,0.16428303718566895,1.8502600193023682,0.6809430912511534,9.0,56.0
R,U,"[2, 1]",-1.0,2.0,0.07695484161376953,5.813670873641968,0.595068394156085,9.0,57.0
R,U,"[1, 1]",-1.0,1.0,0.2974541187286377,1.9439888000488281,0.6389056604015132,9.0,58.0
Y,R,"[1, 2]",1.0,2.0,0.20162010192871094,1.8439898490905762,0.6329441772167574,9.0,59.0
Y,R,"[1, 3]",1.0,3.0,0.19146203994750977,1.8469109535217285,0.6465032948395679,9.0,60.0
,,"(3, 3)",,,,,,9.0,
B,L,"[3, 2]",1.0,1.0,0.4301109313964844,6.86006498336792,0.2570555815252792,,61.0
B,L,"[3, 1]",1.0,2.0,0.22089195251464844,1.761267900466919,0.551542714583878,10.0,62.0
R,U,"[2, 1]",1.0,3.0,0.19930315017700195,1.7043662071228027,0.5060080886333999,10.0,63.0
Y,R,"[2, 2]",1.0,4.0,0.18221211433410645,1.7458469867706299,0.5517986005966453,10.0,64.0
Y,R,"[2, 3]",-1.0,3.0,0.18829011917114258,1.758188009262085,0.559886957540894,10.0,65.0
G,D,"[3, 3]",0.0,3.0,0.3015937805175781,1.7836639881134033,0.4770222739386915,10.0,66.0
,,"(3, 3)",,,,,,10.0,
B,L,"[3, 2]",1.0,1.0,0.34700894355773926,4.130061864852905,0.5071612753946666,,67.0
B,L,"[3, 1]",1.0,2.0,0.16001391410827637,1.4310598373413086,0.27178376936752696,11.0,68.0
R,U,"[2, 1]",1.0,3.0,0.20976805686950684,1.8793768882751465,0.6674049614843345,11.0,69.0
Y,R,"[2, 2]",1.0,4.0,0.18147516250610352,1.7865891456604004,0.604148577469066,11.0,70.0
R,U,"[1, 2]",1.0,5.0,0.18236398696899414,1.4599599838256836,0.26457576265747385,11.0,71.0
R,U,"[0, 2]",0.0,5.0,0.23755192756652832,1.6933469772338867,0.4409853015227722,11.0,72.0
,,"(3, 3)",,,,,,11.0,
B,L,"[3, 2]",1.0,1.0,0.44179487228393555,3.6043410301208496,0.46222472179595814,,73.0
B,L,"[3, 1]",1.0,2.0,0.13922381401062012,1.6672289371490479,0.5293594991433419,12.0,74.0
R,U,"[2, 1]",1.0,3.0,0.14984703063964844,1.7540829181671143,0.5998873905360641,12.0,75.0
Y,R,"[2, 2]",1.0,4.0,0.1981830596923828,1.4517881870269775,0.25212892827300665,12.0,76.0
R,U,"[1, 2]",1.0,5.0,0.1942000389099121,1.7605299949645996,0.5623318036565905,12.0,77.0
R,U,"[0, 2]",0.0,5.0,0.17734599113464355,1.458184003829956,0.287446557201354,12.0,78.0
,,"(3, 3)",,,,,,12.0,
B,L,"[3, 2]",1.0,1.0,0.35083699226379395,3.9402248859405518,0.3279397307960985,,79.0
B,L,"[3, 1]",1.0,2.0,0.17331600189208984,1.7922821044921875,0.6198110492551459,13.0,80.0
R,U,"[2, 1]",1.0,3.0,0.18540501594543457,1.8017370700836182,0.6048588709832008,13.0,81.0
Y,R,"[2, 2]",1.0,4.0,0.17691397666931152,1.5541050434112549,0.3758506655447376,13.0,82.0
R,U,"[1, 2]",1.0,5.0,0.2325890064239502,1.8344459533691406,0.5934822811183293,13.0,83.0
R,U,"[0, 2]",0.0,5.0,0.20461010932922363,1.911311149597168,0.704622677476306,13.0,84.0
,,"(3, 3)",,,,,,13.0,
B,L,"[3, 2]",1.0,1.0,0.39241909980773926,3.477199077606201,0.3157507083077497,,85.0
B,L,"[3, 1]",1.0,2.0,0.1775519847869873,1.8018720149993896,0.6173456365916807,14.0,86.0
R,U,"[2, 1]",1.0,3.0,0.15955495834350586,1.4665958881378174,0.30099889823684695,14.0,87.0
Y,R,"[2, 2]",1.0,4.0,0.17484688758850098,1.5757288932800293,0.3932334598791853,14.0,88.0
R,U,"[1, 2]",1.0,5.0,0.17338895797729492,1.7076318264007568,0.5340712456551986,14.0,89.0
Y,R,"[1, 3]",1.0,6.0,0.14985108375549316,1.4940910339355469,0.34514540260651616,14.0,90.0
,,"(3, 3)",,,,,,14.0,
B,L,"[3, 2]",1.0,1.0,0.473330020904541,3.2628729343414307,0.2747350343465796,,91.0
B,L,"[3, 1]",1.0,2.0,0.17389607429504395,1.793015956878662,0.6174776222759797,15.0,92.0
R,U,"[2, 1]",1.0,3.0,0.19803500175476074,1.7072370052337646,0.5081236430481519,15.0,93.0
Y,R,"[2, 2]",1.0,4.0,0.1861100196838379,1.7555418014526367,0.5636922582799861,15.0,94.0
R,U,"[1, 2]",1.0,5.0,0.193681001663208,1.5974528789520264,0.3946082139668124,15.0,95.0
Y,R,"[1, 3]",1.0,6.0,0.22632503509521484,1.6238150596618652,0.4018444126143202,15.0,96.0
,,"(3, 3)",,,,,,15.0,
B,L,"[3, 2]",1.0,1.0,0.5020439624786377,3.079219102859497,0.431217250916985,,97.0
B,L,"[3, 1]",1.0,2.0,0.19963502883911133,1.7885940074920654,0.5696022489359918,16.0,98.0
R,U,"[2, 1]",1.0,3.0,0.17942595481872559,1.6922438144683838,0.511785091746541,16.0,99.0
Y,R,"[2, 2]",1.0,4.0,0.15005707740783691,1.5823948383331299,0.427628681017341,16.0,100.0
R,U,"[1, 2]",1.0,5.0,0.17012906074523926,1.4679059982299805,0.2957791473518929,16.0,101.0
Y,R,"[1, 3]",1.0,6.0,0.22629714012145996,1.9158270359039307,0.6945012502076536,16.0,102.0
,,"(3, 3)",,,,,,16.0,
B,L,"[3, 2]",1.0,1.0,0.22272300720214844,3.6365439891815186,0.6810764992399146,,103.0
B,L,"[3, 1]",1.0,2.0,0.16953396797180176,1.7143080234527588,0.528938871492459,17.0,104.0
R,U,"[2, 1]",1.0,3.0,0.19977498054504395,1.855402946472168,0.6508520458367701,17.0,105.0
Y,R,"[2, 2]",1.0,4.0,0.1679379940032959,1.5547089576721191,0.37263675266787394,17.0,106.0
R,U,"[1, 2]",1.0,5.0,0.1651599407196045,1.421116828918457,0.26063897202200403,17.0,107.0
Y,R,"[1, 3]",1.0,6.0,0.20682001113891602,1.5983209609985352,0.3920594371577409,17.0,108.0
,,"(3, 3)",,,,,,17.0,
B,L,"[3, 2]",1.0,1.0,0.34141016006469727,3.261960983276367,0.6038015983294883,,109.0
B,L,"[3, 1]",1.0,2.0,0.18703794479370117,1.5716359615325928,0.37573679733653065,18.0,110.0
R,U,"[2, 1]",1.0,3.0,0.19653105735778809,1.8333239555358887,0.6421223472020752,18.0,111.0
Y,R,"[2, 2]",1.0,4.0,0.17707490921020508,1.7559258937835693,0.5814307380575325,18.0,112.0
R,U,"[1, 2]",1.0,5.0,0.19864392280578613,1.4720640182495117,0.2707296817148746,18.0,113.0
Y,R,"[1, 3]",1.0,6.0,0.2618279457092285,1.7676470279693604,0.5046406412072626,18.0,114.0
,,"(3, 3)",,,,,,18.0,
B,L,"[3, 2]",1.0,1.0,0.20104098320007324,3.123265027999878,0.5113483068041003,,115.0
B,L,"[3, 1]",1.0,2.0,0.19079089164733887,1.563115119934082,0.3746593468581202,19.0,116.0
R,U,"[2, 1]",1.0,3.0,0.2211151123046875,1.7896859645843506,0.5640609532212106,19.0,117.0
Y,R,"[2, 2]",1.0,4.0,0.1882319450378418,1.8773632049560547,0.6747995632291037,19.0,118.0
R,U,"[1, 2]",1.0,5.0,0.16980314254760742,1.613461971282959,0.43857562919569343,19.0,119.0
Y,R,"[1, 3]",1.0,6.0,0.21306896209716797,1.869438886642456,0.6576514423037875,19.0,120.0
,,"(3, 3)",,,,,,19.0,
B,L,"[3, 2]",1.0,1.0,0.3461000919342041,6.673827171325684,0.31542049433738995,,121.0
B,L,"[3, 1]",1.0,2.0,0.17637205123901367,1.8873250484466553,0.702203332642378,20.0,122.0
R,U,"[2, 1]",1.0,3.0,0.203078031539917,1.5802290439605713,0.3661728320207578,20.0,123.0
Y,R,"[2, 2]",1.0,4.0,0.1538698673248291,1.8415980339050293,0.6741567439719041,20.0,124.0
R,U,"[1, 2]",1.0,5.0,0.18632006645202637,1.7879259586334229,0.5954388504282365,20.0,125.0
Y,R,"[1, 3]",1.0,6.0,0.16423892974853516,1.7264001369476318,0.5720502651734645,20.0,126.0
,,"(3, 3)",,,,,,20.0,
B,L,"[3, 2]",1.0,1.0,0.1377110481262207,3.2897989749908447,0.6617614991983776,,127.0
B,L,"[3, 1]",1.0,2.0,0.15987586975097656,1.8418920040130615,0.6869259697516239,21.0,128.0
R,U,"[2, 1]",1.0,3.0,0.17962002754211426,1.8030469417572021,0.6235562684714179,21.0,129.0
Y,R,"[2, 2]",-1.0,3.0,0.09770393371582031,5.860713005065918,0.6343716971067608,21.0,130.0
Y,R,"[2, 3]",-1.0,2.0,0.2501399517059326,1.9293529987335205,0.663753240344384,21.0,131.0
R,U,"[1, 3]",1.0,3.0,0.18709993362426758,1.5288591384887695,0.32617802652511063,21.0,132.0
,,"(3, 3)",,,,,,21.0,
B,L,"[3, 2]",1.0,1.0,0.16468310356140137,38.51756310462952,0.5106783942386925,,133.0
B,L,"[3, 1]",1.0,2.0,0.17991304397583008,1.5589349269866943,0.38652175236876346,22.0,134.0
R,U,"[2, 1]",1.0,3.0,0.1924149990081787,1.7656779289245605,0.5688013585964079,22.0,135.0
Y,R,"[2, 2]",1.0,4.0,0.19693708419799805,1.7278320789337158,0.5299079611289709,22.0,136.0
R,U,"[1, 2]",1.0,5.0,0.17958617210388184,1.702812910079956,0.5161370732220596,22.0,137.0
Y,R,"[1, 3]",1.0,6.0,0.1850290298461914,1.8326749801635742,0.632121418689639,22.0,138.0
,,"(3, 3)",,,,,,22.0,
B,L,"[3, 2]",1.0,1.0,0.24419093132019043,3.167375087738037,0.5330764293560717,,139.0
B,L,"[3, 1]",1.0,2.0,0.21683907508850098,1.9289228916168213,0.6950364925729742,23.0,140.0
R,U,"[2, 1]",1.0,3.0,0.178070068359375,1.7339320182800293,0.5625429591912015,23.0,141.0
Y,R,"[2, 2]",1.0,4.0,0.17472386360168457,1.5571458339691162,0.3864606423560354,23.0,142.0
R,U,"[1, 2]",1.0,5.0,0.16831612586975098,1.5407829284667969,0.3606516372850551,23.0,143.0
Y,R,"[1, 3]",1.0,6.0,0.19702506065368652,1.936798095703125,0.7471715384411365,23.0,144.0
,,"(3, 3)",,,,,,23.0,
B,L,"[3, 2]",1.0,1.0,0.19526886940002441,3.0781209468841553,0.5255730630007991,,145.0
B,L,"[3, 1]",1.0,2.0,0.1633288860321045,1.8890209197998047,0.7310537471831146,24.0,146.0
R,U,"[2, 1]",1.0,3.0,0.17246794700622559,1.7525649070739746,0.5670229772614673,24.0,147.0
Y,R,"[2, 2]",-1.0,3.0,0.0058400630950927734,5.422627925872803,0.2900669596017238,24.0,148.0
R,U,"[1, 2]",1.0,4.0,0.2445211410522461,1.7121667861938477,0.4687020792445589,24.0,149.0
Y,R,"[1, 3]",1.0,5.0,0.17649102210998535,1.5492539405822754,0.36818965943600473,24.0,150.0
,,"(3, 3)",,,,,,24.0,
B,L,"[3, 2]",1.0,1.0,0.19433903694152832,2.9525718688964844,0.5706169625810534,,151.0
B,L,"[3, 1]",1.0,2.0,0.14650201797485352,1.8746662139892578,0.7284234218034874,25.0,152.0
R,U,"[2, 1]",1.0,3.0,0.1831200122833252,1.9504048824310303,0.7453886258690304,25.0,153.0
Y,R,"[2, 2]",1.0,4.0,0.21456289291381836,1.856529951095581,0.6521079923488273,25.0,154.0
R,U,"[1, 2]",1.0,5.0,0.1813950538635254,1.9109230041503906,0.7296481871996405,25.0,155.0
B,L,"[1, 1]",-1.0,4.0,0.6398680210113525,2.3713090419769287,0.7177400226156673,25.0,156.0
,,"(3, 3)",,,,,,25.0,
B,L,"[3, 2]",1.0,1.0,0.492901086807251,3.583786964416504,0.7181610676005838,,157.0
B,L,"[3, 1]",1.0,2.0,0.19218683242797852,1.9393880367279053,0.7408740716121416,26.0,158.0
R,U,"[2, 1]",1.0,3.0,0.1989600658416748,1.5507090091705322,0.3586371087836878,26.0,159.0
Y,R,"[2, 2]",1.0,4.0,0.2529489994049072,1.946824073791504,0.6885096094704739,26.0,160.0
R,U,"[1, 2]",1.0,5.0,0.17882800102233887,1.8376359939575195,0.6597022986148332,26.0,161.0
Y,R,"[1, 3]",1.0,6.0,0.17769503593444824,1.8526740074157715,0.6788898928811228,26.0,162.0
,,"(3, 3)",,,,,,26.0,
B,L,"[3, 2]",1.0,1.0,0.16970610618591309,4.026338815689087,0.37217824661233023,,163.0
B,L,"[3, 1]",1.0,2.0,0.18450403213500977,1.7083430290222168,0.5138267920890703,27.0,164.0
R,U,"[2, 1]",1.0,3.0,0.19095587730407715,1.867427110671997,0.6644516453722435,27.0,165.0
Y,R,"[2, 2]",1.0,4.0,0.16234707832336426,1.50907301902771,0.3406320486194021,27.0,166.0
R,U,"[1, 2]",1.0,5.0,0.2013859748840332,1.4938530921936035,0.2845661818559459,27.0,167.0
Y,R,"[1, 3]",1.0,6.0,0.19640803337097168,1.535383939743042,0.33643319038968217,27.0,168.0
,,"(3, 3)",,,,,,27.0,
B,L,"[3, 2]",1.0,1.0,0.1615769863128662,3.488062858581543,0.3581040647340642,,169.0
B,L,"[3, 1]",1.0,2.0,0.16981101036071777,1.7510669231414795,0.5755076640730751,28.0,170.0
R,U,"[2, 1]",1.0,3.0,0.1668550968170166,1.7431631088256836,0.5686628636696361,28.0,171.0
Y,R,"[2, 2]",1.0,4.0,0.1840219497680664,1.7200570106506348,0.5222383515029865,28.0,172.0
R,U,"[1, 2]",1.0,5.0,0.17948698997497559,1.635577917098999,0.45792174459061474,28.0,173.0
Y,R,"[1, 3]",1.0,6.0,0.17400813102722168,1.5406501293182373,0.3653628698120255,28.0,174.0
,,"(3, 3)",,,,,,28.0,
B,L,"[3, 2]",1.0,1.0,0.2347550392150879,3.558960199356079,0.5076181309130146,,175.0
B,L,"[3, 1]",1.0,2.0,0.16019582748413086,1.4189000129699707,0.2600521230007564,29.0,176.0
R,U,"[2, 1]",1.0,3.0,0.2516191005706787,1.8900549411773682,0.6331332100676345,29.0,177.0
Y,R,"[2, 2]",1.0,4.0,0.17079615592956543,1.7008957862854004,0.517495730938603,29.0,178.0
R,U,"[1, 2]",1.0,5.0,0.1666250228881836,1.8608479499816895,0.6781883131614055,29.0,179.0
Y,R,"[1, 3]",1.0,6.0,0.16487908363342285,1.6617610454559326,0.5067070078726226,29.0,180.0
,,"(3, 3)",,,,,,29.0,
B,L,"[3, 2]",1.0,1.0,0.10253691673278809,3.4667930603027344,0.6733121667529683,,181.0
B,L,"[3, 1]",1.0,2.0,0.15665102005004883,1.6454780101776123,0.4858836797916189,30.0,182.0
R,U,"[2, 1]",1.0,3.0,0.19261407852172852,1.510145902633667,0.31279375878665217,30.0,183.0
Y,R,"[2, 2]",1.0,4.0,0.15987300872802734,1.6233479976654053,0.4360382661013256,30.0,184.0
R,U,"[1, 2]",1.0,5.0,0.18040084838867188,1.746635913848877,0.5659822311484175,30.0,185.0
Y,R,"[1, 3]",-1.0,5.0,0.05292105674743652,5.766954183578491,0.5828702057396964,30.0,186.0
,,"(3, 3)",,,,,,30.0,
B,L,"[3, 2]",1.0,1.0,0.15519094467163086,6.964403867721558,0.48080059156174243,,187.0
B,L,"[3, 1]",-1.0,1.0,0.09673309326171875,5.942415952682495,0.7063838936443668,31.0,188.0
B,L,"[3, 0]",0.0,1.0,0.21166706085205078,1.5762500762939453,0.3663770102024217,31.0,189.0
Y,R,"[3, 1]",0.0,1.0,0.18724989891052246,1.600389003753662,0.40024739297317846,31.0,190.0
Y,R,"[3, 2]",0.0,1.0,0.17232894897460938,1.5433809757232666,0.3602705087418041,31.0,191.0
Y,R,"[3, 3]",0.0,1.0,0.18308210372924805,1.714836835861206,0.5415734809413368,31.0,192.0
,,"(3, 3)",,,,,,31.0,
B,L,"[3, 2]",1.0,1.0,0.32906007766723633,3.5267438888549805,0.4352011720394831,,193.0
B,L,"[3, 1]",1.0,2.0,0.1670999526977539,1.478585958480835,0.29725243810700086,32.0,194.0
R,U,"[2, 1]",1.0,3.0,0.22306299209594727,1.9389169216156006,0.7025384271289716,32.0,195.0
Y,R,"[2, 2]",1.0,4.0,0.18557214736938477,1.7118098735809326,0.5146075239834664,32.0,196.0
R,U,"[1, 2]",1.0,5.0,0.18010187149047852,1.578603982925415,0.39330483107719166,32.0,197.0
Y,R,"[1, 3]",1.0,6.0,0.18146204948425293,1.6246910095214844,0.4513117019215033,32.0,198.0
,,"(3, 3)",,,,,,32.0,
B,L,"[3, 2]",1.0,1.0,0.15609002113342285,2.9395430088043213,0.4909627484961622,,199.0
B,L,"[3, 1]",1.0,2.0,0.18279194831848145,1.9180059432983398,0.7252120744336927,33.0,200.0
R,U,"[2, 1]",1.0,3.0,0.1864030361175537,1.5495800971984863,0.3586227201287443,33.0,201.0
Y,R,"[2, 2]",1.0,4.0,0.1973578929901123,1.9169719219207764,0.7251792289948373,33.0,202.0
R,U,"[1, 2]",1.0,5.0,0.1688690185546875,1.4458458423614502,0.2715245883003221,33.0,203.0
Y,R,"[1, 3]",1.0,6.0,0.24388885498046875,1.6093709468841553,0.3640450019862373,33.0,204.0
,,"(3, 3)",,,,,,33.0,
B,L,"[3, 2]",1.0,1.0,0.24197101593017578,4.26498007774353,0.4624036511696889,,205.0
B,L,"[3, 1]",1.0,2.0,0.14943695068359375,1.7101340293884277,0.5724721795912111,34.0,206.0
R,U,"[2, 1]",1.0,3.0,0.17357587814331055,1.6229867935180664,0.44557693830747686,34.0,207.0
Y,R,"[2, 2]",1.0,4.0,0.17313909530639648,1.6330809593200684,0.46204972558417395,34.0,208.0
R,U,"[1, 2]",1.0,5.0,0.18590307235717773,1.7706000804901123,0.5825404041654141,34.0,209.0
Y,R,"[1, 3]",1.0,6.0,0.1660778522491455,1.8897349834442139,0.7054862444763996,34.0,210.0
,,"(3, 3)",,,,,,34.0,
B,L,"[3, 2]",-1.0,0.0,0.09714508056640625,7.406134843826294,0.6284619371078283,,211.0
R,U,"[2, 2]",1.0,1.0,0.30260205268859863,1.9250409603118896,0.6202335704550976,35.0,212.0
Y,R,"[2, 3]",-1.0,0.0,0.15520405769348145,1.6636099815368652,0.5006375732059105,35.0,213.0
R,U,"[1, 3]",1.0,1.0,0.2535548210144043,1.8247849941253662,0.5586558245726536,35.0,214.0
Y,R,"[1, 4]",-1.0,0.0,0.16219711303710938,1.8707098960876465,0.679318337605185,35.0,215.0
B,L,"[1, 3]",0.0,0.0,0.5326030254364014,1.8009250164031982,0.2641135515956192,35.0,216.0
,,"(3, 3)",,,,,,35.0,
B,L,"[3, 2]",1.0,1.0,0.29425477981567383,2.572726011276245,0.3701786823803576,,217.0
B,L,"[3, 1]",1.0,2.0,0.16725707054138184,1.840075969696045,0.659848570609906,36.0,218.0
R,U,"[2, 1]",1.0,3.0,0.20800018310546875,1.718384027481079,0.5116839002230213,36.0,219.0
Y,R,"[2, 2]",1.0,4.0,0.18827414512634277,1.528306007385254,0.34037635256772597,36.0,220.0
R,U,"[1, 2]",1.0,5.0,0.20101594924926758,1.8884811401367188,0.6785213625126061,36.0,221.0
Y,R,"[1, 3]",1.0,6.0,0.1908130645751953,1.784372091293335,0.5963291157906121,36.0,222.0
,,"(3, 3)",,,,,,36.0,
B,L,"[3, 2]",1.0,1.0,0.17119812965393066,3.1100990772247314,0.47317200290883904,,223.0
B,L,"[3, 1]",1.0,2.0,0.14400196075439453,1.4771151542663574,0.3339195711046239,37.0,224.0
R,U,"[2, 1]",1.0,3.0,0.2367238998413086,1.8635060787200928,0.6136576774184184,37.0,225.0
Y,R,"[2, 2]",1.0,4.0,0.16801118850708008,1.701030969619751,0.5147998890281487,37.0,226.0
R,U,"[1, 2]",1.0,5.0,0.23802709579467773,1.873042106628418,0.6211726584543478,37.0,227.0
Y,R,"[1, 3]",1.0,6.0,0.19238996505737305,1.6913831233978271,0.496059057020045,37.0,228.0
,,"(3, 3)",,,,,,37.0,
B,L,"[3, 2]",1.0,1.0,0.11458086967468262,3.379060983657837,0.49190825379555986,,229.0
B,L,"[3, 1]",1.0,2.0,0.16493988037109375,1.4921119213104248,0.3341282575111098,38.0,230.0
R,U,"[2, 1]",1.0,3.0,0.20912909507751465,1.9570419788360596,0.7407281978191936,38.0,231.0
Y,R,"[2, 2]",1.0,4.0,0.17630290985107422,1.843531847000122,0.6677549514830439,38.0,232.0
R,U,"[1, 2]",1.0,5.0,0.26715993881225586,1.8481688499450684,0.5661339449345706,38.0,233.0
Y,R,"[1, 3]",1.0,6.0,0.20819091796875,1.7715439796447754,0.5544295653051747,38.0,234.0
,,"(3, 3)",,,,,,38.0,
B,L,"[3, 2]",1.0,1.0,0.16422486305236816,3.4244349002838135,0.6954123733142779,,235.0
B,L,"[3, 1]",1.0,2.0,0.15593886375427246,1.638375997543335,0.4839837538392191,39.0,236.0
R,U,"[2, 1]",1.0,3.0,0.18406200408935547,1.7448539733886719,0.5453168167632901,39.0,237.0
Y,R,"[2, 2]",1.0,4.0,0.17227911949157715,1.5811898708343506,0.4102063436542669,39.0,238.0
R,U,"[1, 2]",1.0,5.0,0.18067693710327148,1.6641149520874023,0.4909193614484548,39.0,239.0
Y,R,"[1, 3]",1.0,6.0,0.19627594947814941,1.4534480571746826,0.26125196842037973,39.0,240.0
,,"(3, 3)",,,,,,39.0,
B,L,"[3, 2]",1.0,1.0,0.16715121269226074,2.697309970855713,0.3086442678469947,,241.0
B,L,"[3, 1]",1.0,2.0,0.19199299812316895,1.62241792678833,0.4308285357241569,40.0,242.0
R,U,"[2, 1]",1.0,3.0,0.19989800453186035,1.524651050567627,0.3056559007558135,40.0,243.0
Y,R,"[2, 2]",1.0,4.0,0.1951589584350586,1.918936014175415,0.7241923331508837,40.0,244.0
R,U,"[1, 2]",1.0,5.0,0.1766529083251953,1.5159289836883545,0.3405879463351107,40.0,245.0
Y,R,"[1, 3]",1.0,6.0,0.1909329891204834,1.7923610210418701,0.5992019990999964,40.0,246.0
,,"(3, 3)",,,,,,40.0,
B,L,"[3, 2]",1.0,1.0,0.204636812210083,2.924010992050171,0.3235958219109368,,247.0
B,L,"[3, 1]",1.0,2.0,0.17349910736083984,1.7569258213043213,0.5804155248267551,41.0,248.0
R,U,"[2, 1]",1.0,3.0,0.2119591236114502,1.7532799243927002,0.5337438156862466,41.0,249.0
Y,R,"[2, 2]",1.0,4.0,0.18098711967468262,1.7358779907226562,0.5528514707895174,41.0,250.0
R,U,"[1, 2]",1.0,5.0,0.17656779289245605,1.4712259769439697,0.2911019579958267,41.0,251.0
Y,R,"[1, 3]",1.0,6.0,0.19514799118041992,1.8949189186096191,0.7022430186935806,41.0,252.0
,,"(3, 3)",,,,,,41.0,
B,L,"[3, 2]",1.0,1.0,0.1354691982269287,2.7758219242095947,0.44509345864897515,,253.0
B,L,"[3, 1]",1.0,2.0,0.16900205612182617,1.496222972869873,0.32472341904345653,42.0,254.0
R,U,"[2, 1]",1.0,3.0,0.18250584602355957,1.7798678874969482,0.587713718044262,42.0,255.0
Y,R,"[2, 2]",1.0,4.0,0.17040205001831055,1.8308491706848145,0.6518366703947029,42.0,256.0
R,U,"[1, 2]",-1.0,4.0,0.06588292121887207,5.497254848480225,0.29954291314446874,42.0,257.0
Y,R,"[1, 3]",1.0,5.0,0.279224157333374,1.9064750671386719,0.6224938009042735,42.0,258.0
,,"(3, 3)",,,,,,42.0,
B,L,"[3, 2]",1.0,1.0,0.20795607566833496,3.157696008682251,0.730105302838783,,259.0
B,L,"[3, 1]",1.0,2.0,0.16082406044006348,1.5238189697265625,0.3542207701526202,43.0,260.0
R,U,"[2, 1]",1.0,3.0,0.2174370288848877,1.6967949867248535,0.46752836503366474,43.0,261.0
Y,R,"[2, 2]",1.0,4.0,0.1792011260986328,1.5797688961029053,0.3974216195987691,43.0,262.0
R,U,"[1, 2]",1.0,5.0,0.20675301551818848,1.470073938369751,0.2510838832214103,43.0,263.0
Y,R,"[1, 3]",1.0,6.0,0.20920014381408691,1.4825630187988281,0.26702910961514276,43.0,264.0
,,"(3, 3)",,,,,,43.0,
B,L,"[3, 2]",-1.0,0.0,0.09302186965942383,7.064658164978027,0.44828538082351926,,265.0
B,L,"[3, 1]",1.0,1.0,0.20044493675231934,1.6234920024871826,0.42174445982148345,44.0,266.0
R,U,"[2, 1]",1.0,2.0,0.19302988052368164,1.7058308124542236,0.5109678210518946,44.0,267.0
Y,R,"[2, 2]",1.0,3.0,0.18721699714660645,1.5201239585876465,0.3313267958147154,44.0,268.0
R,U,"[1, 2]",1.0,4.0,0.2336440086364746,1.7930231094360352,0.5407252562217093,44.0,269.0
Y,R,"[1, 3]",1.0,5.0,0.1893019676208496,1.883120059967041,0.6904444740467914,44.0,270.0
,,"(3, 3)",,,,,,44.0,
B,L,"[3, 2]",1.0,1.0,0.2026081085205078,2.686030149459839,0.29366476701788613,,271.0
B,L,"[3, 1]",1.0,2.0,0.2048778533935547,1.9226560592651367,0.7323873948676616,45.0,272.0
R,U,"[2, 1]",1.0,3.0,0.18358302116394043,1.582679033279419,0.3822063820868222,45.0,273.0
Y,R,"[2, 2]",1.0,4.0,0.2004389762878418,1.6393489837646484,0.42150276423170513,45.0,274.0
R,U,"[1, 2]",1.0,5.0,0.2740030288696289,2.013476848602295,0.7346879874929295,45.0,275.0
Y,R,"[1, 3]",1.0,6.0,0.1954050064086914,1.6445729732513428,0.4463120755473385,45.0,276.0
,,"(3, 3)",,,,,,45.0,
B,L,"[3, 2]",1.0,1.0,0.1710951328277588,2.857119083404541,0.33689965432710706,,277.0
B,L,"[3, 1]",1.0,2.0,0.20340490341186523,1.8124608993530273,0.5989996055287764,46.0,278.0
R,U,"[2, 1]",1.0,3.0,0.20227909088134766,1.7664220333099365,0.565581933703017,46.0,279.0
Y,R,"[2, 2]",1.0,4.0,0.19159412384033203,1.8747389316558838,0.6735119258723712,46.0,280.0
R,U,"[1, 2]",1.0,5.0,0.17974114418029785,1.8524858951568604,0.6761410527642202,46.0,281.0
Y,R,"[1, 3]",1.0,6.0,0.2407698631286621,1.6331870555877686,0.392981429045489,46.0,282.0
,,"(3, 3)",,,,,,46.0,
B,L,"[3, 2]",1.0,1.0,0.18112683296203613,2.8291749954223633,0.6552989225254755,,283.0
B,L,"[3, 1]",1.0,2.0,0.18013906478881836,1.8855299949645996,0.707394783785766,47.0,284.0
R,U,"[2, 1]",1.0,3.0,0.20301318168640137,1.618028163909912,0.4089898847844677,47.0,285.0
Y,R,"[2, 2]",1.0,4.0,0.2504730224609375,1.9555120468139648,0.6976879783462501,47.0,286.0
R,U,"[1, 2]",1.0,5.0,0.19463300704956055,1.6658899784088135,0.4637246838244511,47.0,287.0
Y,R,"[1, 3]",1.0,6.0,0.19514894485473633,1.4703140258789062,0.26766619947322917,47.0,288.0
,,"(3, 3)",,,,,,47.0,
B,L,"[3, 2]",1.0,1.0,0.18247222900390625,3.200615882873535,0.5514209399655013,,289.0
B,L,"[3, 1]",1.0,2.0,0.15662407875061035,1.8817391395568848,0.7163758782328533,48.0,290.0
R,U,"[2, 1]",1.0,3.0,0.1916208267211914,1.8789739608764648,0.6787434624905198,48.0,291.0
Y,R,"[2, 2]",1.0,4.0,0.17574691772460938,1.4391169548034668,0.26831265061776666,48.0,292.0
R,U,"[1, 2]",1.0,5.0,0.2520320415496826,1.8325560092926025,0.5671683202785823,48.0,293.0
Y,R,"[1, 3]",1.0,6.0,0.17370104789733887,1.775320053100586,0.5923792516623541,48.0,294.0
,,"(3, 3)",,,,,,48.0,
B,L,"[3, 2]",1.0,1.0,0.23261094093322754,2.421799898147583,0.33150548882923747,,295.0
B,L,"[3, 1]",1.0,2.0,0.18158388137817383,1.8749639987945557,0.6892435075447749,49.0,296.0
R,U,"[2, 1]",1.0,3.0,0.16663479804992676,1.6881439685821533,0.510889962266768,49.0,297.0
Y,R,"[2, 2]",1.0,4.0,0.17128705978393555,1.831017017364502,0.6585638618799655,49.0,298.0
R,U,"[1, 2]",1.0,5.0,0.22742509841918945,1.5658519268035889,0.341249940793591,49.0,299.0
Y,R,"[1, 3]",1.0,6.0,0.19910001754760742,1.4679429531097412,0.2761764575599757,49.0,300.0
,,"(3, 3)",,,,,,49.0,
B,L,"[3, 2]",1.0,1.0,0.19295406341552734,2.966994047164917,0.7425593741834958,,301.0
B,L,"[3, 1]",1.0,2.0,0.15464496612548828,1.8178999423980713,0.6605629622622613,50.0,302.0
R,U,"[2, 1]",1.0,3.0,0.1792590618133545,1.5543720722198486,0.3820194897209361,50.0,303.0
Y,R,"[2, 2]",1.0,4.0,0.19051599502563477,1.9122381210327148,0.7103516968212796,50.0,304.0
R,U,"[1, 2]",1.0,5.0,0.171828031539917,1.591599941253662,0.41909361683892743,50.0,305.0
Y,R,"[1, 3]",1.0,6.0,0.24673008918762207,1.5162770748138428,0.2688664599320148,50.0,306.0
,,"(3, 3)",,,,,,50.0,
B,L,"[3, 2]",1.0,1.0,0.1447129249572754,4.6805219650268555,0.332755151914032,,307.0
B,L,"[3, 1]",1.0,2.0,0.1739180088043213,1.533393144607544,0.3497347410364809,51.0,308.0
R,U,"[2, 1]",1.0,3.0,0.1926720142364502,1.934460163116455,0.7335627182823051,51.0,309.0
Y,R,"[2, 2]",1.0,4.0,0.17536592483520508,1.588541030883789,0.40579025757501175,51.0,310.0
R,U,"[1, 2]",1.0,5.0,0.17609095573425293,1.430873155593872,0.25366349750979805,51.0,311.0
Y,R,"[1, 3]",1.0,6.0,0.28589391708374023,1.9556658267974854,0.6587312765274151,51.0,312.0
,,"(3, 3)",,,,,,51.0,
B,L,"[3, 2]",1.0,1.0,0.19417619705200195,15.802985906600952,0.49551953509087876,,313.0
B,L,"[3, 1]",1.0,2.0,0.17409706115722656,1.8045380115509033,0.6334262751275026,52.0,314.0
R,U,"[2, 1]",1.0,3.0,0.19157195091247559,1.6436238288879395,0.4433651315921031,52.0,315.0
Y,R,"[2, 2]",1.0,4.0,0.1754448413848877,1.8870398998260498,0.7139566023959001,52.0,316.0
R,U,"[1, 2]",1.0,5.0,0.18247318267822266,1.542863130569458,0.34054534370321426,52.0,317.0
Y,R,"[1, 3]",1.0,6.0,0.19830799102783203,1.8074150085449219,0.6143549510502865,52.0,318.0
,,"(3, 3)",,,,,,52.0,
B,L,"[3, 2]",1.0,1.0,0.26642394065856934,3.1808321475982666,0.5287513732938198,,319.0
B,L,"[3, 1]",1.0,2.0,0.17304611206054688,1.7512269020080566,0.5798749803171838,53.0,320.0
R,U,"[2, 1]",1.0,3.0,0.1984081268310547,1.766232967376709,0.5628177431545519,53.0,321.0
Y,R,"[2, 2]",1.0,4.0,0.20123291015625,1.9508671760559082,0.7301117925560805,53.0,322.0
R,U,"[1, 2]",1.0,5.0,0.23487305641174316,1.885138988494873,0.6488472789443291,53.0,323.0
Y,R,"[1, 3]",1.0,6.0,0.19685602188110352,1.6313061714172363,0.4304510773728072,53.0,324.0
,,"(3, 3)",,,,,,53.0,
B,L,"[3, 2]",1.0,1.0,0.17884111404418945,3.323230028152466,0.5370145724548456,,325.0
B,L,"[3, 1]",1.0,2.0,0.16374802589416504,1.7720630168914795,0.6089066886741412,54.0,326.0
R,U,"[2, 1]",1.0,3.0,0.21024513244628906,1.8161730766296387,0.6083688480086109,54.0,327.0
Y,R,"[2, 2]",1.0,4.0,0.17569303512573242,1.8989720344543457,0.7239724256735529,54.0,328.0
R,U,"[1, 2]",1.0,5.0,0.18772482872009277,1.888171911239624,0.6955564831305844,54.0,329.0
Y,R,"[1, 3]",1.0,6.0,0.20235419273376465,1.6018390655517578,0.39765653819875435,54.0,330.0
,,"(3, 3)",,,,,,54.0,
B,L,"[3, 2]",1.0,1.0,0.171921968460083,3.297553062438965,0.5617353035186898,,331.0
B,L,"[3, 1]",1.0,2.0,0.18210196495056152,1.4513092041015625,0.2634435777341673,55.0,332.0
R,U,"[2, 1]",1.0,3.0,0.23784899711608887,1.9489929676055908,0.6953080254691053,55.0,333.0
Y,R,"[2, 2]",1.0,4.0,0.18268918991088867,1.758063793182373,0.5702317944530507,55.0,334.0
R,U,"[1, 2]",1.0,5.0,0.19318199157714844,1.8548269271850586,0.6584444021636647,55.0,335.0
Y,R,"[1, 3]",1.0,6.0,0.17628002166748047,1.541262149810791,0.3665840315173903,55.0,336.0
,,"(3, 3)",,,,,,55.0,
B,L,"[3, 2]",1.0,1.0,0.1648850440979004,8.547479152679443,0.33107409907309016,,337.0
B,L,"[3, 1]",1.0,2.0,0.16740083694458008,1.6326849460601807,0.4469049069991697,56.0,338.0
R,U,"[2, 1]",1.0,3.0,0.20114398002624512,1.8735439777374268,0.6535142332706848,56.0,339.0
Y,R,"[2, 2]",1.0,4.0,0.18321490287780762,1.4516189098358154,0.25558078980857524,56.0,340.0
R,U,"[1, 2]",1.0,5.0,0.2715771198272705,1.6539020538330078,0.3760319352329344,56.0,341.0
Y,R,"[1, 3]",1.0,6.0,0.21750807762145996,1.6904199123382568,0.4663420396645718,56.0,342.0
,,"(3, 3)",,,,,,56.0,
B,L,"[3, 2]",1.0,1.0,0.25708794593811035,2.406242847442627,0.272875434831994,,343.0
B,L,"[3, 1]",1.0,2.0,0.21660995483398438,1.5880441665649414,0.37764025559151504,57.0,344.0
R,U,"[2, 1]",1.0,3.0,0.193450927734375,1.7996790409088135,0.6102303553482988,57.0,345.0
Y,R,"[2, 2]",1.0,4.0,0.16742897033691406,1.8845479488372803,0.7112446967503125,57.0,346.0
R,U,"[1, 2]",1.0,5.0,0.18939995765686035,1.7171368598937988,0.5287219551849014,57.0,347.0
Y,R,"[1, 3]",1.0,6.0,0.18685317039489746,1.6843199729919434,0.49650228122985984,57.0,348.0
,,"(3, 3)",,,,,,57.0,
B,L,"[3, 2]",1.0,1.0,0.16740918159484863,3.3136141300201416,0.42712063569267655,,349.0
B,L,"[3, 1]",1.0,2.0,0.18394017219543457,1.5669569969177246,0.37725529642075506,58.0,350.0
R,U,"[2, 1]",1.0,3.0,0.19519901275634766,1.8423399925231934,0.6527827204904568,58.0,351.0
Y,R,"[2, 2]",1.0,4.0,0.15429902076721191,1.7372939586639404,0.5734856275807043,58.0,352.0
R,U,"[1, 2]",1.0,5.0,0.1660311222076416,1.599656105041504,0.4232398866724709,58.0,353.0
Y,R,"[1, 3]",1.0,6.0,0.17127299308776855,1.4791629314422607,0.3026407650153677,58.0,354.0
,,"(3, 3)",,,,,,58.0,
B,L,"[3, 2]",-1.0,0.0,0.09479308128356934,7.033369064331055,0.5691101880506215,,355.0
B,L,"[3, 1]",1.0,1.0,0.20769810676574707,1.9593899250030518,0.7449925389551287,59.0,356.0
R,U,"[2, 1]",1.0,2.0,0.1937720775604248,1.8398380279541016,0.6516947232414501,59.0,357.0
Y,R,"[2, 2]",1.0,3.0,0.16411399841308594,1.579516887664795,0.4148874714935894,59.0,358.0
R,U,"[1, 2]",1.0,4.0,0.21976089477539062,1.8622400760650635,0.6268946644710739,59.0,359.0
Y,R,"[1, 3]",1.0,5.0,0.17459511756896973,1.42964506149292,0.25687986031995963,59.0,360.0
,,"(3, 3)",,,,,,59.0,
B,L,"[3, 2]",1.0,1.0,0.2616159915924072,3.0976390838623047,0.30448626795474637,,361.0
B,L,"[3, 1]",1.0,2.0,0.2384779453277588,1.8051731586456299,0.5594392007745463,60.0,362.0
R,U,"[2, 1]",1.0,3.0,0.21442890167236328,1.521833896636963,0.31497403534478763,60.0,363.0
Y,R,"[2, 2]",1.0,4.0,0.362030029296875,1.9203789234161377,0.5517150294324071,60.0,364.0
R,U,"[1, 2]",1.0,5.0,0.16967511177062988,1.6181437969207764,0.43676370000649856,60.0,365.0
Y,R,"[1, 3]",1.0,6.0,0.18691802024841309,1.8873069286346436,0.6904221118515238,60.0,366.0
,,"(3, 3)",,,,,,60.0,
B,L,"[3, 2]",1.0,1.0,0.23646306991577148,3.117483139038086,0.3248842934711518,,367.0
B,L,"[3, 1]",1.0,2.0,0.18733596801757812,1.8109281063079834,0.618965764197198,61.0,368.0
R,U,"[2, 1]",1.0,3.0,0.1904919147491455,1.8671729564666748,0.6693995251491494,61.0,369.0
Y,R,"[2, 2]",1.0,4.0,0.18792486190795898,1.4908850193023682,0.2939980702108953,61.0,370.0
R,U,"[1, 2]",1.0,5.0,0.22483396530151367,1.905094861984253,0.6821997359870315,61.0,371.0
Y,R,"[1, 3]",1.0,6.0,0.19746112823486328,1.5752699375152588,0.3744799894389582,61.0,372.0
,,"(3, 3)",,,,,,61.0,
B,L,"[3, 2]",1.0,1.0,0.320620059967041,2.570358991622925,0.3615995364652652,,373.0
B,L,"[3, 1]",1.0,2.0,0.1879439353942871,1.5079169273376465,0.3195987014069832,62.0,374.0
R,U,"[2, 1]",1.0,3.0,0.23227715492248535,1.580787181854248,0.33358866106518187,62.0,375.0
Y,R,"[2, 2]",1.0,4.0,0.18132305145263672,1.4560010433197021,0.27300508530227563,62.0,376.0
R,U,"[1, 2]",1.0,5.0,0.19123506546020508,1.5880439281463623,0.3941061801400043,62.0,377.0
Y,R,"[1, 3]",1.0,6.0,0.20610308647155762,1.7875230312347412,0.5818170222149073,62.0,378.0
,,"(3, 3)",,,,,,62.0,
B,L,"[3, 2]",1.0,1.0,0.19239211082458496,3.774195909500122,0.6561362491377536,,379.0
B,L,"[3, 1]",1.0,2.0,0.15915298461914062,1.6007170677185059,0.44015468832158045,63.0,380.0
R,U,"[2, 1]",1.0,3.0,0.21124005317687988,1.6491918563842773,0.43937134057997934,63.0,381.0
Y,R,"[2, 2]",1.0,4.0,0.18729519844055176,1.5352809429168701,0.3414432143773739,63.0,382.0
R,U,"[1, 2]",1.0,5.0,0.21905517578125,1.5480420589447021,0.32280995246498717,63.0,383.0
Y,R,"[1, 3]",1.0,6.0,0.21217894554138184,1.638796091079712,0.4282476475611677,63.0,384.0
,,"(3, 3)",,,,,,63.0,
B,L,"[3, 2]",1.0,1.0,0.14788413047790527,3.1012279987335205,0.4131307559121948,,385.0
B,L,"[3, 1]",1.0,2.0,0.1812751293182373,1.5086300373077393,0.3219200149130344,64.0,386.0
R,U,"[2, 1]",1.0,3.0,0.2154388427734375,1.7257580757141113,0.49720670847015414,64.0,387.0
Y,R,"[2, 2]",1.0,4.0,0.1761929988861084,1.5029451847076416,0.3170454539737046,64.0,388.0
R,U,"[1, 2]",1.0,5.0,0.1990358829498291,1.6925950050354004,0.4761312025486657,64.0,389.0
Y,R,"[1, 3]",1.0,6.0,0.19190597534179688,1.720088005065918,0.5294116147019148,64.0,390.0
,,"(3, 3)",,,,,,64.0,
B,L,"[3, 2]",1.0,1.0,0.23257899284362793,2.511672019958496,0.35835158913118553,,391.0
B,L,"[3, 1]",1.0,2.0,0.18460702896118164,1.520617961883545,0.3289939030062301,65.0,392.0
R,U,"[2, 1]",1.0,3.0,0.2121138572692871,1.7141919136047363,0.5094919204765512,65.0,393.0
Y,R,"[2, 2]",-1.0,3.0,0.05622220039367676,5.62877893447876,0.45507609412600464,65.0,394.0
R,U,"[1, 2]",1.0,4.0,0.27729010581970215,1.8409011363983154,0.562631802632807,65.0,395.0
Y,R,"[1, 3]",1.0,5.0,0.26256608963012695,1.995617151260376,0.7080468372359867,65.0,396.0
,,"(3, 3)",,,,,,65.0,
B,L,"[3, 2]",1.0,1.0,0.2712879180908203,4.202041864395142,0.7436881388354242,,397.0
B,L,"[3, 1]",1.0,2.0,0.18716812133789062,1.4468190670013428,0.2575070423321745,66.0,398.0
R,U,"[2, 1]",1.0,3.0,0.24834799766540527,1.7590570449829102,0.5162628410724881,66.0,399.0
Y,R,"[2, 2]",1.0,4.0,0.20457816123962402,1.7990949153900146,0.5819961436086503,66.0,400.0
R,U,"[1, 2]",1.0,5.0,0.20483803749084473,1.8336119651794434,0.6156687440285111,66.0,401.0
Y,R,"[1, 3]",1.0,6.0,0.1904771327972412,1.5053670406341553,0.3046319074462371,66.0,402.0
,,"(3, 3)",,,,,,66.0,
B,L,"[3, 2]",-1.0,-1.0,0.19086909294128418,3.0464510917663574,0.4844968924287214,,403.0
G,D,"[4, 2]",1.0,0.0,0.30663394927978516,1.6730730533599854,0.3575424909391101,67.0,404.0
G,D,"[5, 2]",1.0,1.0,0.30792784690856934,1.5837810039520264,0.27465696840652076,67.0,405.0
Y,R,"[5, 3]",1.0,2.0,0.2298569679260254,1.7380740642547607,0.5126371164632726,67.0,406.0
G,D,"[6, 3]",0.0,2.0,0.18918395042419434,1.7721121311187744,0.5514788254351846,67.0,407.0
R,U,"[5, 3]",1.0,3.0,0.18511319160461426,1.58341383934021,0.3848849942740838,67.0,408.0
,,"(3, 3)",,,,,,67.0,
G,D,"[4, 3]",1.0,1.0,0.23102784156799316,4.924140930175781,0.39268488714972066,,409.0
G,D,"[5, 3]",1.0,2.0,0.19837403297424316,1.730051040649414,0.5391679795081604,68.0,410.0
Y,R,"[5, 4]",-1.0,1.0,0.20129108428955078,1.7001547813415527,0.48927848916554373,68.0,411.0
R,U,"[4, 4]",-1.0,0.0,0.22163891792297363,1.8323109149932861,0.6048350438168579,68.0,412.0
R,U,"[3, 4]",-1.0,-1.0,0.17493700981140137,1.8848459720611572,0.7062652659882299,68.0,413.0
Y,R,"[3, 5]",-1.0,-2.0,0.20073199272155762,1.7508869171142578,0.5407507805751749,68.0,414.0
,,"(3, 3)",,,,,,68.0,
G,D,"[4, 3]",-1.0,0.0,0.09694099426269531,7.9221720695495605,0.3132109014788497,,415.0
G,D,"[5, 3]",1.0,1.0,0.26392102241516113,1.7497408390045166,0.4628215554423784,69.0,416.0
G,D,"[6, 3]",0.0,1.0,0.20853090286254883,1.8290369510650635,0.6085293108664862,69.0,417.0
B,L,"[6, 2]",0.0,1.0,0.17600488662719727,1.6573410034179688,0.48266649392969047,69.0,418.0
Y,R,"[6, 3]",0.0,1.0,0.19638586044311523,1.6671419143676758,0.4666592977644367,69.0,419.0
Y,R,"[6, 4]",0.0,1.0,0.210982084274292,1.529383897781372,0.3127868938564264,69.0,420.0
,,"(3, 3)",,,,,,69.0,
G,D,"[4, 3]",1.0,1.0,0.21357297897338867,3.7273690700531006,0.6398862186322192,,421.0
G,D,"[5, 3]",1.0,2.0,0.1253049373626709,1.7048251628875732,0.578124488905338,70.0,422.0
G,D,"[6, 3]",0.0,2.0,0.18304800987243652,1.6416480541229248,0.46988268270126515,70.0,423.0
R,U,"[5, 3]",1.0,3.0,0.19629716873168945,1.6669650077819824,0.4536068568766208,70.0,424.0
Y,R,"[5, 4]",-1.0,2.0,0.19144105911254883,1.7075941562652588,0.511065461834337,70.0,425.0
R,U,"[4, 4]",-1.0,1.0,0.18362712860107422,1.5831549167633057,0.39447202224585726,70.0,426.0
,,"(3, 3)",,,,,,70.0,
G,D,"[4, 3]",1.0,1.0,0.20120000839233398,3.220561981201172,0.4649089720766203,,427.0
G,D,"[5, 3]",1.0,2.0,0.19405198097229004,1.807218074798584,0.6053317405565765,71.0,428.0
B,L,"[5, 2]",1.0,3.0,0.16219401359558105,1.5529251098632812,0.3920660699329842,71.0,429.0
R,U,"[4, 2]",1.0,4.0,0.20217609405517578,1.7679870128631592,0.5596569506477485,71.0,430.0
R,U,"[3, 2]",-1.0,3.0,0.17943692207336426,1.786186933517456,0.5959141506081912,71.0,431.0
R,U,"[2, 2]",-1.0,2.0,0.18616199493408203,1.8633649349212646,0.6757544070246508,71.0,432.0
,,"(3, 3)",,,,,,71.0,
G,D,"[4, 3]",1.0,1.0,0.17214083671569824,2.6836302280426025,0.40980771143507083,,433.0
G,D,"[5, 3]",1.0,2.0,0.19144582748413086,1.890275001525879,0.6999060235898127,72.0,434.0
B,L,"[5, 2]",1.0,3.0,0.13257503509521484,1.6664330959320068,0.5164484718789913,72.0,435.0
R,U,"[4, 2]",1.0,4.0,0.16483688354492188,1.8840420246124268,0.7168830124295551,72.0,436.0
Y,R,"[4, 3]",1.0,5.0,0.16368579864501953,1.6976118087768555,0.5315498008570252,72.0,437.0
Y,R,"[4, 4]",-1.0,4.0,0.2075657844543457,1.6172258853912354,0.3989194148487051,72.0,438.0
,,"(3, 3)",,,,,,72.0,
G,D,"[4, 3]",1.0,1.0,0.11586809158325195,2.5811569690704346,0.28017687672585806,,439.0
G,D,"[5, 3]",1.0,2.0,0.23766803741455078,1.9249389171600342,0.6714044861837962,73.0,440.0
B,L,"[5, 2]",-1.0,2.0,0.04807400703430176,5.540166854858398,0.36205838710102306,73.0,441.0
R,U,"[4, 2]",1.0,3.0,0.2271289825439453,1.6381959915161133,0.4169004160429107,73.0,442.0
Y,R,"[4, 3]",1.0,4.0,0.19805598258972168,1.8472840785980225,0.6471183588189825,73.0,443.0
G,D,"[5, 3]",1.0,5.0,0.17524290084838867,1.58787202835083,0.4021758289718512,73.0,444.0
,,"(3, 3)",,,,,,73.0,
G,D,"[4, 3]",1.0,1.0,0.2042829990386963,2.602213144302368,0.25443271237594667,,445.0
G,D,"[5, 3]",1.0,2.0,0.20517897605895996,1.8509900569915771,0.6383013280806349,74.0,446.0
B,L,"[5, 2]",1.0,3.0,0.17290687561035156,1.8721020221710205,0.6938207091126236,74.0,447.0
R,U,"[4, 2]",1.0,4.0,0.19651293754577637,1.442817211151123,0.2536086664725386,74.0,448.0
Y,R,"[4, 3]",1.0,5.0,0.21041202545166016,1.8241758346557617,0.6109006490378205,74.0,449.0
G,D,"[5, 3]",1.0,6.0,0.185028076171875,1.7265210151672363,0.5374050466208016,74.0,450.0
,,"(3, 3)",,,,,,74.0,
G,D,"[4, 3]",1.0,1.0,0.1711728572845459,2.340029001235962,0.42780728943458024,,451.0
G,D,"[5, 3]",1.0,2.0,0.19535589218139648,1.723336935043335,0.5342665167175978,75.0,452.0
B,L,"[5, 2]",1.0,3.0,0.20699286460876465,1.6979548931121826,0.48236336555750786,75.0,453.0
R,U,"[4, 2]",1.0,4.0,0.1851351261138916,1.5763788223266602,0.37556848372248763,75.0,454.0
Y,R,"[4, 3]",1.0,5.0,0.20335602760314941,1.4812359809875488,0.27356325616379434,75.0,455.0
G,D,"[5, 3]",1.0,6.0,0.23817992210388184,1.513498067855835,0.27042336119817434,75.0,456.0
,,"(3, 3)",,,,,,75.0,
G,D,"[4, 3]",1.0,1.0,0.10779285430908203,2.483941078186035,0.6206637331398168,,457.0
G,D,"[5, 3]",1.0,2.0,0.17051100730895996,1.8865461349487305,0.7072229470713305,76.0,458.0
B,L,"[5, 2]",1.0,3.0,0.15320682525634766,1.4547240734100342,0.2956801394447412,76.0,459.0
R,U,"[4, 2]",1.0,4.0,0.2540609836578369,1.6986198425292969,0.4443320458572214,76.0,460.0
Y,R,"[4, 3]",1.0,5.0,0.20030999183654785,1.704829216003418,0.4990327471571402,76.0,461.0
G,D,"[5, 3]",1.0,6.0,0.20548295974731445,1.5390799045562744,0.3216054915507692,76.0,462.0
,,"(3, 3)",,,,,,76.0,
G,D,"[4, 3]",1.0,1.0,0.3427140712738037,4.9641430377960205,0.7021408794133193,,463.0
G,D,"[5, 3]",-1.0,1.0,0.04678606986999512,5.6067259311676025,0.42583806411826497,77.0,464.0
B,L,"[5, 2]",1.0,2.0,0.3620011806488037,2.0481581687927246,0.6904672024852692,77.0,465.0
R,U,"[4, 2]",1.0,3.0,0.2520937919616699,1.6111829280853271,0.3521581900201699,77.0,466.0
Y,R,"[4, 3]",1.0,4.0,0.25168299674987793,1.5698418617248535,0.30527715353609697,77.0,467.0
G,D,"[5, 3]",1.0,5.0,0.23983287811279297,1.6564538478851318,0.4117610169888366,77.0,468.0
,,"(3, 3)",,,,,,77.0,
G,D,"[4, 3]",1.0,1.0,0.219681978225708,3.33199405670166,0.39361804994277483,,469.0
G,D,"[5, 3]",1.0,2.0,0.21483683586120605,1.791754961013794,0.5687213529536219,78.0,470.0
B,L,"[5, 2]",1.0,3.0,0.197706937789917,1.5373477935791016,0.3396655650801091,78.0,471.0
R,U,"[4, 2]",1.0,4.0,0.19832396507263184,1.6620550155639648,0.46815770444505855,78.0,472.0
Y,R,"[4, 3]",1.0,5.0,0.1749560832977295,1.5047059059143066,0.323206066966992,78.0,473.0
G,D,"[5, 3]",1.0,6.0,0.2079451084136963,1.846587896347046,0.635889154669389,78.0,474.0
,,"(3, 3)",,,,,,78.0,
G,D,"[4, 3]",1.0,1.0,0.27088499069213867,3.2282159328460693,0.5809580235733454,,475.0
G,D,"[5, 3]",1.0,2.0,0.17968416213989258,1.7328150272369385,0.5473652749273689,79.0,476.0
B,L,"[5, 2]",1.0,3.0,0.19447994232177734,1.856910228729248,0.6540819923007712,79.0,477.0
R,U,"[4, 2]",1.0,4.0,0.2034001350402832,1.7127609252929688,0.5003247560171078,79.0,478.0
Y,R,"[4, 3]",1.0,5.0,0.2131791114807129,1.571821928024292,0.3557010136189029,79.0,479.0
G,D,"[5, 3]",1.0,6.0,0.19835710525512695,1.7534129619598389,0.5588600385181046,79.0,480.0
,,"(3, 3)",,,,,,79.0,
G,D,"[4, 3]",1.0,1.0,0.19621992111206055,2.500308036804199,0.259644282335742,,481.0
G,D,"[5, 3]",1.0,2.0,0.20318102836608887,1.9291419982910156,0.7215303548169859,80.0,482.0
B,L,"[5, 2]",1.0,3.0,0.17823004722595215,1.7606921195983887,0.5823109795490535,80.0,483.0
R,U,"[4, 2]",1.0,4.0,0.1958179473876953,1.6409249305725098,0.44020721094279197,80.0,484.0
Y,R,"[4, 3]",1.0,5.0,0.19728517532348633,1.7309880256652832,0.5377009814814198,80.0,485.0
G,D,"[5, 3]",1.0,6.0,0.1928858757019043,1.5854771137237549,0.3900913252692941,80.0,486.0
,,"(3, 3)",,,,,,80.0,
G,D,"[4, 3]",-1.0,0.0,0.0975189208984375,6.659873008728027,0.3669042572517071,,487.0
G,D,"[5, 3]",1.0,1.0,0.22153306007385254,1.6544411182403564,0.42145085137991417,81.0,488.0
B,L,"[5, 2]",1.0,2.0,0.2013561725616455,1.6184279918670654,0.406312286073807,81.0,489.0
R,U,"[4, 2]",1.0,3.0,0.2106339931488037,1.5841691493988037,0.37401845817814666,81.0,490.0
Y,R,"[4, 3]",1.0,4.0,0.20032119750976562,1.6510350704193115,0.4415484040379105,81.0,491.0
G,D,"[5, 3]",1.0,5.0,0.17941498756408691,1.5884308815002441,0.4135090472466182,81.0,492.0
,,"(3, 3)",,,,,,81.0,
G,D,"[4, 3]",1.0,1.0,0.29152798652648926,2.537425994873047,0.4342609192923855,,493.0
G,D,"[5, 3]",1.0,2.0,0.22729086875915527,1.5581560134887695,0.3257630855687943,82.0,494.0
B,L,"[5, 2]",1.0,3.0,0.19036102294921875,1.6485590934753418,0.4575647293320392,82.0,495.0
R,U,"[4, 2]",1.0,4.0,0.18729591369628906,1.8228561878204346,0.6303722440557975,82.0,496.0
Y,R,"[4, 3]",1.0,5.0,0.1810159683227539,1.4701159000396729,0.28421063799062807,82.0,497.0
G,D,"[5, 3]",1.0,6.0,0.31892895698547363,1.8966598510742188,0.5638914605701891,82.0,498.0
,,"(3, 3)",,,,,,82.0,
G,D,"[4, 3]",-1.0,0.0,0.09685683250427246,6.949123859405518,0.712892994559132,,499.0
G,D,"[5, 3]",1.0,1.0,0.36585092544555664,1.8987479209899902,0.5118635488229416,83.0,500.0
B,L,"[5, 2]",1.0,2.0,0.19339489936828613,1.5506370067596436,0.362784179859002,83.0,501.0
R,U,"[4, 2]",1.0,3.0,0.22250795364379883,1.5878329277038574,0.3672290301280326,83.0,502.0
Y,R,"[4, 3]",1.0,4.0,0.2147078514099121,1.6195011138916016,0.40345135292965695,83.0,503.0
G,D,"[5, 3]",1.0,5.0,0.20703816413879395,1.955902099609375,0.7422814730348823,83.0,504.0
,,"(3, 3)",,,,,,83.0,
G,D,"[4, 3]",1.0,1.0,0.18420791625976562,2.6806681156158447,0.4399293831198558,,505.0
G,D,"[5, 3]",1.0,2.0,0.19681096076965332,1.7205700874328613,0.5271012913734842,84.0,506.0
B,L,"[5, 2]",1.0,3.0,0.23212409019470215,1.7892320156097412,0.5663759199717463,84.0,507.0
R,U,"[4, 2]",1.0,4.0,0.21214580535888672,1.772871971130371,0.555951350193255,84.0,508.0
Y,R,"[4, 3]",1.0,5.0,0.18868494033813477,1.8605530261993408,0.6664181185739164,84.0,509.0
G,D,"[5, 3]",1.0,6.0,0.21011710166931152,1.9077200889587402,0.6908846314401559,84.0,510.0
,,"(3, 3)",,,,,,84.0,
G,D,"[4, 3]",1.0,1.0,0.23137617111206055,3.0720930099487305,0.662948016189201,,511.0
G,D,"[5, 3]",1.0,2.0,0.16791105270385742,1.6613578796386719,0.47450956520072496,85.0,512.0
B,L,"[5, 2]",1.0,3.0,0.21596097946166992,1.9618489742279053,0.7363093019460143,85.0,513.0
R,U,"[4, 2]",1.0,4.0,0.19619297981262207,1.8363330364227295,0.639254455899118,85.0,514.0
Y,R,"[4, 3]",1.0,5.0,0.22628092765808105,1.5572431087493896,0.330317092767861,85.0,515.0
G,D,"[5, 3]",1.0,6.0,0.21543407440185547,1.8781321048736572,0.641416441428649,85.0,516.0
,,"(3, 3)",,,,,,85.0,
G,D,"[4, 3]",1.0,1.0,0.20956182479858398,2.762299060821533,0.7370204315445852,,517.0
G,D,"[5, 3]",1.0,2.0,0.2263479232788086,1.852694034576416,0.6231855645914667,86.0,518.0
B,L,"[5, 2]",1.0,3.0,0.2261810302734375,1.756606101989746,0.5296779247151906,86.0,519.0
R,U,"[4, 2]",1.0,4.0,0.26288294792175293,1.9048631191253662,0.6346950214926382,86.0,520.0
Y,R,"[4, 3]",1.0,5.0,0.27567601203918457,1.9606010913848877,0.6785328171354197,86.0,521.0
G,D,"[5, 3]",1.0,6.0,0.23084783554077148,1.7647068500518799,0.5434517590987469,86.0,522.0
,,"(3, 3)",,,,,,86.0,
G,D,"[4, 3]",1.0,1.0,0.2949039936065674,2.868943929672241,0.4294773307088613,,523.0
G,D,"[5, 3]",1.0,2.0,0.21259117126464844,1.7793030738830566,0.5750245760879178,87.0,524.0
B,L,"[5, 2]",1.0,3.0,0.22265005111694336,1.5521152019500732,0.32758810339386746,87.0,525.0
R,U,"[4, 2]",1.0,4.0,0.32848405838012695,1.8491899967193604,0.5265843434408101,87.0,526.0
Y,R,"[4, 3]",1.0,5.0,0.26238179206848145,1.5667150020599365,0.31008787345956074,87.0,527.0
G,D,"[5, 3]",1.0,6.0,0.24895000457763672,1.5677988529205322,0.32779806096460246,87.0,528.0
,,"(3, 3)",,,,,,87.0,
G,D,"[4, 3]",1.0,1.0,0.2614130973815918,2.716789960861206,0.4278774154786011,,529.0
G,D,"[5, 3]",1.0,2.0,0.19675493240356445,1.6052370071411133,0.4165849656322397,88.0,530.0
B,L,"[5, 2]",1.0,3.0,0.22002816200256348,1.7677021026611328,0.5340546078811481,88.0,531.0
R,U,"[4, 2]",1.0,4.0,0.23234796524047852,1.6946790218353271,0.46226424385976583,88.0,532.0
Y,R,"[4, 3]",1.0,5.0,0.22424697875976562,1.724128007888794,0.5030429038994992,88.0,533.0
G,D,"[5, 3]",1.0,6.0,0.2589898109436035,1.7623908519744873,0.4988217988147117,88.0,534.0
,,"(3, 3)",,,,,,88.0,
G,D,"[4, 3]",1.0,1.0,0.31641101837158203,2.517575979232788,0.3333666456038847,,535.0
G,D,"[5, 3]",1.0,2.0,0.19475483894348145,1.5020439624786377,0.302093128666842,89.0,536.0
B,L,"[5, 2]",1.0,3.0,0.20283889770507812,1.5559332370758057,0.34130548890352597,89.0,537.0
R,U,"[4, 2]",1.0,4.0,0.18189501762390137,1.66764497756958,0.492067906010771,89.0,538.0
Y,R,"[4, 3]",1.0,5.0,0.16829204559326172,1.7828350067138672,0.6081933161762874,89.0,539.0
G,D,"[5, 3]",1.0,6.0,0.17883610725402832,1.6009838581085205,0.4260278287525721,89.0,540.0
,,"(3, 3)",,,,,,89.0,
G,D,"[4, 3]",1.0,1.0,0.20334696769714355,2.6050069332122803,0.4643888339933771,,541.0
G,D,"[5, 3]",1.0,2.0,0.16429805755615234,1.832366943359375,0.6632083840513067,90.0,542.0
B,L,"[5, 2]",1.0,3.0,0.17410588264465332,1.4950339794158936,0.3087783208289824,90.0,543.0
R,U,"[4, 2]",1.0,4.0,0.2619459629058838,1.780893087387085,0.5227294805752954,90.0,544.0
Y,R,"[4, 3]",1.0,5.0,0.22372221946716309,1.877319097518921,0.649939311688337,90.0,545.0
G,D,"[5, 3]",1.0,6.0,0.1720719337463379,1.5536189079284668,0.3705609075050202,90.0,546.0
,,"(3, 3)",,,,,,90.0,
G,D,"[4, 3]",1.0,1.0,0.15784192085266113,2.6457889080047607,0.36664444029994264,,547.0
G,D,"[5, 3]",1.0,2.0,0.20437216758728027,1.710571050643921,0.49357692474840636,91.0,548.0
B,L,"[5, 2]",1.0,3.0,0.17961692810058594,1.4913218021392822,0.3182929300042512,91.0,549.0
R,U,"[4, 2]",1.0,4.0,0.2464759349822998,1.9234700202941895,0.6747827595719056,91.0,550.0
Y,R,"[4, 3]",1.0,5.0,0.18711280822753906,1.665795087814331,0.4743015172313941,91.0,551.0
G,D,"[5, 3]",1.0,6.0,0.14743590354919434,1.420464038848877,0.27822286295021414,91.0,552.0
,,"(3, 3)",,,,,,91.0,
G,D,"[4, 3]",1.0,1.0,0.28488802909851074,2.9782941341400146,0.48996478312415787,,553.0
G,D,"[5, 3]",1.0,2.0,0.13228678703308105,1.6533598899841309,0.5263227824125082,92.0,554.0
B,L,"[5, 2]",1.0,3.0,0.23549103736877441,1.5865378379821777,0.3464289577593874,92.0,555.0
R,U,"[4, 2]",1.0,4.0,0.2608458995819092,2.019918918609619,0.7493064790279013,92.0,556.0
Y,R,"[4, 3]",1.0,5.0,0.20705294609069824,1.53987717628479,0.3229503996006232,92.0,557.0
G,D,"[5, 3]",1.0,6.0,0.25650501251220703,1.9553890228271484,0.6946580630796184,92.0,558.0
,,"(3, 3)",,,,,,92.0,
G,D,"[4, 3]",1.0,1.0,0.2802090644836426,2.6549761295318604,0.6999770991217149,,559.0
G,D,"[5, 3]",1.0,2.0,0.17336392402648926,1.8842248916625977,0.7009122566822257,93.0,560.0
B,L,"[5, 2]",1.0,3.0,0.21891021728515625,1.8372268676757812,0.6047144414078478,93.0,561.0
R,U,"[4, 2]",1.0,4.0,0.22649312019348145,1.7613019943237305,0.5325547050303623,93.0,562.0
Y,R,"[4, 3]",1.0,5.0,0.2029430866241455,1.7178339958190918,0.5006117493749099,93.0,563.0
G,D,"[5, 3]",1.0,6.0,0.1843280792236328,1.7190461158752441,0.519583911421708,93.0,564.0
,,"(3, 3)",,,,,,93.0,
G,D,"[4, 3]",1.0,1.0,0.15244102478027344,2.5456490516662598,0.5654641420577193,,565.0
G,D,"[5, 3]",1.0,2.0,0.18786382675170898,1.8827331066131592,0.6814477730295116,94.0,566.0
B,L,"[5, 2]",1.0,3.0,0.19970393180847168,1.6304800510406494,0.41205434731669227,94.0,567.0
R,U,"[4, 2]",1.0,4.0,0.24611687660217285,1.8512780666351318,0.6131318263545278,94.0,568.0
Y,R,"[4, 3]",1.0,5.0,0.19134902954101562,1.8230280876159668,0.6195192172249999,94.0,569.0
G,D,"[5, 3]",1.0,6.0,0.20269012451171875,1.4886000156402588,0.27504015268329135,94.0,570.0
,,"(3, 3)",,,,,,94.0,
G,D,"[4, 3]",1.0,1.0,0.18697595596313477,2.3836989402770996,0.29222677272728104,,571.0
G,D,"[5, 3]",1.0,2.0,0.1923980712890625,1.4932098388671875,0.3021984799013332,95.0,572.0
B,L,"[5, 2]",1.0,3.0,0.19857215881347656,1.8053998947143555,0.6071856792695914,95.0,573.0
R,U,"[4, 2]",1.0,4.0,0.18551182746887207,1.4948911666870117,0.30239320787249796,95.0,574.0
Y,R,"[4, 3]",1.0,5.0,0.23149704933166504,1.7556679248809814,0.5246765609757854,95.0,575.0
G,D,"[5, 3]",1.0,6.0,0.1823899745941162,1.9239909648895264,0.7483771838245619,95.0,576.0
,,"(3, 3)",,,,,,95.0,
G,D,"[4, 3]",1.0,1.0,0.24072885513305664,3.672008991241455,0.4209295102457291,,577.0
G,D,"[5, 3]",-1.0,1.0,0.052867889404296875,5.592317819595337,0.4131455314335358,96.0,578.0
B,L,"[5, 2]",1.0,2.0,0.23896193504333496,1.8335769176483154,0.5967311911548916,96.0,579.0
R,U,"[4, 2]",1.0,3.0,0.21965599060058594,1.6724298000335693,0.4525349109083451,96.0,580.0
Y,R,"[4, 3]",1.0,4.0,0.19287395477294922,1.679090976715088,0.481645022493046,96.0,581.0
G,D,"[5, 3]",1.0,5.0,0.18460798263549805,1.9175620079040527,0.7325698822134272,96.0,582.0
,,"(3, 3)",,,,,,96.0,
G,D,"[4, 3]",1.0,1.0,0.19637393951416016,6.687927007675171,0.5704648682437217,,583.0
G,D,"[5, 3]",1.0,2.0,0.18899106979370117,1.6399829387664795,0.4440979858544996,97.0,584.0
B,L,"[5, 2]",1.0,3.0,0.2198190689086914,1.560171127319336,0.33747951643102864,97.0,585.0
R,U,"[4, 2]",1.0,4.0,0.21817398071289062,1.5198891162872314,0.30758145856782254,97.0,586.0
Y,R,"[4, 3]",1.0,5.0,0.20153403282165527,1.5253260135650635,0.31609734920571186,97.0,587.0
G,D,"[5, 3]",1.0,6.0,0.19909095764160156,1.7761240005493164,0.5755611877713616,97.0,588.0
,,"(3, 3)",,,,,,97.0,
G,D,"[4, 3]",1.0,1.0,0.2511100769042969,2.746454954147339,0.48884643304422254,,589.0
G,D,"[5, 3]",1.0,2.0,0.18860697746276855,1.9274539947509766,0.732630236349455,98.0,590.0
B,L,"[5, 2]",1.0,3.0,0.19028902053833008,1.662583827972412,0.4623145962818846,98.0,591.0
R,U,"[4, 2]",1.0,4.0,0.21953701972961426,1.6890418529510498,0.46797926565113357,98.0,592.0
Y,R,"[4, 3]",1.0,5.0,0.2076098918914795,1.6637389659881592,0.4483809938711433,98.0,593.0
G,D,"[5, 3]",1.0,6.0,0.19331789016723633,1.670320987701416,0.46874100490121307,98.0,594.0
,,"(3, 3)",,,,,,98.0,
G,D,"[4, 3]",1.0,1.0,0.19143891334533691,2.6240320205688477,0.4262157495778465,,595.0
G,D,"[5, 3]",1.0,2.0,0.1976490020751953,1.5798020362854004,0.38924015521243915,99.0,596.0
B,L,"[5, 2]",1.0,3.0,0.19251513481140137,1.5238490104675293,0.32990745399736665,99.0,597.0
R,U,"[4, 2]",1.0,4.0,0.20508193969726562,1.876114845275879,0.655842693513628,99.0,598.0
Y,R,"[4, 3]",1.0,5.0,0.23861002922058105,1.6133179664611816,0.3693329686945775,99.0,599.0
G,D,"[5, 3]",1.0,6.0,0.21794915199279785,1.9529550075531006,0.7220648849525517,99.0,600.0
,,"(3, 3)",,,,,,99.0,
G,D,"[4, 3]",1.0,1.0,0.18618988990783691,3.061717987060547,0.5672151271734207,,601.0
G,D,"[5, 3]",1.0,2.0,0.19328594207763672,1.9161410331726074,0.7165439765373258,100.0,602.0
B,L,"[5, 2]",1.0,3.0,0.18378114700317383,1.6124560832977295,0.4128727378506154,100.0,603.0
R,U,"[4, 2]",1.0,4.0,0.2458820343017578,1.9866740703582764,0.749133159451712,100.0,604.0
Y,R,"[4, 3]",1.0,5.0,0.1760709285736084,1.5252289772033691,0.3414231878477589,100.0,605.0
G,D,"[5, 3]",1.0,6.0,0.2117781639099121,1.5236709117889404,0.3151097150849172,100.0,606.0
,,"(3, 3)",,,,,,100.0,
G,D,"[4, 3]",1.0,1.0,0.23270797729492188,3.173114061355591,0.6545730094159832,,607.0
G,D,"[5, 3]",1.0,2.0,0.18589305877685547,1.7027311325073242,0.5074847650395341,101.0,608.0
B,L,"[5, 2]",1.0,3.0,0.1998000144958496,1.4746220111846924,0.2659238364775784,101.0,609.0
R,U,"[4, 2]",1.0,4.0,0.24862408638000488,1.8554699420928955,0.5876415181310197,101.0,610.0
Y,R,"[4, 3]",1.0,5.0,0.18136000633239746,1.5178091526031494,0.33903806334065495,101.0,611.0
G,D,"[5, 3]",1.0,6.0,0.2148740291595459,1.5546419620513916,0.3436764430005247,101.0,612.0
,,"(3, 3)",,,,,,101.0,
G,D,"[4, 3]",1.0,1.0,0.20966005325317383,2.6594510078430176,0.3698957702839382,,613.0
G,D,"[5, 3]",1.0,2.0,0.17729496955871582,1.680344820022583,0.500118332397157,102.0,614.0
B,L,"[5, 2]",1.0,3.0,0.18914079666137695,1.5882740020751953,0.38832061871297696,102.0,615.0
R,U,"[4, 2]",1.0,4.0,0.2026209831237793,1.7863249778747559,0.5745676700009443,102.0,616.0
Y,R,"[4, 3]",1.0,5.0,0.1714620590209961,1.826474905014038,0.6511530353192057,102.0,617.0
G,D,"[5, 3]",1.0,6.0,0.17727088928222656,1.6989622116088867,0.5168959743751218,102.0,618.0
,,"(3, 3)",,,,,,102.0,
G,D,"[4, 3]",1.0,1.0,0.1822969913482666,2.8007209300994873,0.5175716215011762,,619.0
G,D,"[5, 3]",1.0,2.0,0.15427088737487793,1.878188133239746,0.7123582805061515,103.0,620.0
B,L,"[5, 2]",1.0,3.0,0.19054317474365234,1.7180190086364746,0.5305979268147389,103.0,621.0
R,U,"[4, 2]",1.0,4.0,0.20834994316101074,1.7571580410003662,0.5376448731283932,103.0,622.0
Y,R,"[4, 3]",1.0,5.0,0.23047900199890137,1.576340913772583,0.3475647835941418,103.0,623.0
G,D,"[5, 3]",1.0,6.0,0.24007081985473633,1.7235841751098633,0.4710628180828415,103.0,624.0
,,"(3, 3)",,,,,,103.0,
G,D,"[4, 3]",1.0,1.0,0.12991595268249512,3.023185968399048,0.6609577058365306,,625.0
G,D,"[5, 3]",1.0,2.0,0.18583202362060547,1.472581148147583,0.283707216007009,104.0,626.0
B,L,"[5, 2]",1.0,3.0,0.2225501537322998,1.7922730445861816,0.5591225668162625,104.0,627.0
R,U,"[4, 2]",1.0,4.0,0.16864609718322754,1.8793649673461914,0.7050637409266979,104.0,628.0
Y,R,"[4, 3]",1.0,5.0,0.18007206916809082,1.74216890335083,0.5639731293945615,104.0,629.0
G,D,"[5, 3]",1.0,6.0,0.18760204315185547,1.6291401386260986,0.42676025635243053,104.0,630.0
,,"(3, 3)",,,,,,104.0,
G,D,"[4, 3]",1.0,1.0,0.20823001861572266,2.6984431743621826,0.5585868187887528,,631.0
G,D,"[5, 3]",1.0,2.0,0.1945788860321045,1.9222748279571533,0.730474220260668,105.0,632.0
B,L,"[5, 2]",1.0,3.0,0.1993100643157959,1.7812738418579102,0.5619833420620679,105.0,633.0
R,U,"[4, 2]",1.0,4.0,0.23516106605529785,1.695058822631836,0.457292884966405,105.0,634.0
Y,R,"[4, 3]",1.0,5.0,0.24886202812194824,1.8808319568634033,0.6378913441821841,105.0,635.0
G,D,"[5, 3]",1.0,6.0,0.20245099067687988,1.5147731304168701,0.3030601813613469,105.0,636.0
,,"(3, 3)",,,,,,105.0,
G,D,"[4, 3]",1.0,1.0,0.2024228572845459,2.447204113006592,0.26697408166487085,,637.0
G,D,"[5, 3]",1.0,2.0,0.25017499923706055,1.8607449531555176,0.593964295435773,106.0,638.0
B,L,"[5, 2]",1.0,3.0,0.19108295440673828,1.918463945388794,0.72904377297111,106.0,639.0
R,U,"[4, 2]",1.0,4.0,0.19336414337158203,1.6673290729522705,0.4799233291388775,106.0,640.0
Y,R,"[4, 3]",1.0,5.0,0.25124597549438477,1.8249571323394775,0.5548729644661249,106.0,641.0
G,D,"[5, 3]",1.0,6.0,0.20850801467895508,1.933115005493164,0.7212670545198195,106.0,642.0
,,"(3, 3)",,,,,,106.0,
G,D,"[4, 3]",1.0,1.0,0.2035810947418213,2.5847489833831787,0.6396516104603305,,643.0
G,D,"[5, 3]",1.0,2.0,0.19022393226623535,1.7229030132293701,0.5293358033031065,107.0,644.0
B,L,"[5, 2]",1.0,3.0,0.17838478088378906,1.537398099899292,0.3667771914164117,107.0,645.0
R,U,"[4, 2]",1.0,4.0,0.2266979217529297,1.5255489349365234,0.29237842592734137,107.0,646.0
Y,R,"[4, 3]",1.0,5.0,0.21206283569335938,1.6342442035675049,0.426586778744579,107.0,647.0
G,D,"[5, 3]",1.0,6.0,0.17166495323181152,1.7193379402160645,0.5457062696922954,107.0,648.0
,,"(3, 3)",,,,,,107.0,
G,D,"[4, 3]",1.0,1.0,0.15984892845153809,2.642899990081787,0.30585152432020113,,649.0
G,D,"[5, 3]",1.0,2.0,0.1930379867553711,1.7922470569610596,0.5975362489221174,108.0,650.0
B,L,"[5, 2]",1.0,3.0,0.1841120719909668,1.6799368858337402,0.4775318069823737,108.0,651.0
R,U,"[4, 2]",1.0,4.0,0.13851308822631836,1.4950370788574219,0.35617027433105375,108.0,652.0
Y,R,"[4, 3]",1.0,5.0,0.2299048900604248,1.5291969776153564,0.30202579183605127,108.0,653.0
G,D,"[5, 3]",1.0,6.0,0.1763908863067627,1.5998339653015137,0.4185253945999222,108.0,654.0
,,"(3, 3)",,,,,,108.0,
G,D,"[4, 3]",1.0,1.0,0.18457603454589844,4.852128028869629,0.6538147306771396,,655.0
G,D,"[5, 3]",1.0,2.0,0.16250205039978027,1.4720609188079834,0.30956428223453425,109.0,656.0
B,L,"[5, 2]",1.0,3.0,0.17073798179626465,1.8341169357299805,0.6601319360210587,109.0,657.0
R,U,"[4, 2]",1.0,4.0,0.17251014709472656,1.7679519653320312,0.594678492819406,109.0,658.0
Y,R,"[4, 3]",1.0,5.0,0.18213796615600586,1.5684928894042969,0.36346579978501903,109.0,659.0
G,D,"[5, 3]",1.0,6.0,0.17881989479064941,1.8335139751434326,0.6467058461529954,109.0,660.0
,,"(3, 3)",,,,,,109.0,
G,D,"[4, 3]",1.0,1.0,0.1862339973449707,2.977281093597412,0.34103647041539686,,661.0
G,D,"[5, 3]",1.0,2.0,0.16075897216796875,1.8853299617767334,0.7259710387839716,110.0,662.0
B,L,"[5, 2]",1.0,3.0,0.1686699390411377,1.8226590156555176,0.6489080795330856,110.0,663.0
R,U,"[4, 2]",1.0,4.0,0.18627619743347168,1.5644440650939941,0.36347153976181856,110.0,664.0
Y,R,"[4, 3]",1.0,5.0,0.21682095527648926,1.9592089653015137,0.7225049848733511,110.0,665.0
G,D,"[5, 3]",1.0,6.0,0.17484498023986816,1.5240960121154785,0.34699898085103875,110.0,666.0
,,"(3, 3)",,,,,,110.0,
G,D,"[4, 3]",1.0,1.0,0.2120959758758545,2.893709897994995,0.7402783628086707,,667.0
G,D,"[5, 3]",1.0,2.0,0.18329596519470215,1.5718848705291748,0.3792173466453503,111.0,668.0
B,L,"[5, 2]",1.0,3.0,0.21366405487060547,1.915578842163086,0.6945855300954311,111.0,669.0
R,U,"[4, 2]",1.0,4.0,0.1860189437866211,1.5228397846221924,0.3345517757651432,111.0,670.0
Y,R,"[4, 3]",1.0,5.0,0.22068309783935547,1.7115478515625,0.4791080902443494,111.0,671.0
G,D,"[5, 3]",1.0,6.0,0.17188382148742676,1.623175859451294,0.4523481786451952,111.0,672.0
,,"(3, 3)",,,,,,111.0,
G,D,"[4, 3]",1.0,1.0,0.17041802406311035,2.87125301361084,0.5404935042360426,,673.0
G,D,"[5, 3]",1.0,2.0,0.16898488998413086,1.7796308994293213,0.6198872587124284,112.0,674.0
B,L,"[5, 2]",1.0,3.0,0.15500092506408691,1.7049171924591064,0.5582413812331251,112.0,675.0
R,U,"[4, 2]",1.0,4.0,0.19366788864135742,1.597883939743042,0.4062314795496913,112.0,676.0
Y,R,"[4, 3]",1.0,5.0,0.20177316665649414,1.6623079776763916,0.46849700032685293,112.0,677.0
G,D,"[5, 3]",1.0,6.0,0.18127799034118652,1.6594181060791016,0.4779403483838061,112.0,678.0
,,"(3, 3)",,,,,,112.0,
G,D,"[4, 3]",1.0,1.0,0.23198890686035156,2.8179779052734375,0.6793258290081483,,679.0
G,D,"[5, 3]",1.0,2.0,0.19566011428833008,1.6748578548431396,0.4874506198077925,113.0,680.0
B,L,"[5, 2]",1.0,3.0,0.17931079864501953,1.6550660133361816,0.4759515098326356,113.0,681.0
R,U,"[4, 2]",1.0,4.0,0.17848992347717285,1.757220983505249,0.5831398306353148,113.0,682.0
Y,R,"[4, 3]",1.0,5.0,0.17979907989501953,1.79311203956604,0.6095335555043047,113.0,683.0
G,D,"[5, 3]",1.0,6.0,0.16543102264404297,1.8865368366241455,0.712729058668558,113.0,684.0
,,"(3, 3)",,,,,,113.0,
G,D,"[4, 3]",-1.0,0.0,0.09935712814331055,7.136638879776001,0.5329648532410942,,685.0
G,D,"[5, 3]",1.0,1.0,0.23443913459777832,1.7354989051818848,0.48461283025152446,114.0,686.0
B,L,"[5, 2]",1.0,2.0,0.1911787986755371,1.4877760410308838,0.28995120554014037,114.0,687.0
R,U,"[4, 2]",1.0,3.0,0.20789098739624023,1.506662130355835,0.29651085194700616,114.0,688.0
Y,R,"[4, 3]",1.0,4.0,0.21729683876037598,1.61069917678833,0.37386255838026394,114.0,689.0
G,D,"[5, 3]",1.0,5.0,0.2154371738433838,1.7110459804534912,0.48491155989549667,114.0,690.0
,,"(3, 3)",,,,,,114.0,
G,D,"[4, 3]",1.0,1.0,0.22330188751220703,2.896768093109131,0.6647340704143319,,691.0
G,D,"[5, 3]",1.0,2.0,0.18477106094360352,1.6576581001281738,0.45594255724114396,115.0,692.0
B,L,"[5, 2]",1.0,3.0,0.17905783653259277,1.6598899364471436,0.4825853052550703,115.0,693.0
R,U,"[4, 2]",1.0,4.0,0.19870996475219727,1.8246920108795166,0.6238758410633596,115.0,694.0
Y,R,"[4, 3]",1.0,5.0,0.19074702262878418,1.469299077987671,0.27676193439696,115.0,695.0
G,D,"[5, 3]",1.0,6.0,0.2211599349975586,1.6716680526733398,0.44833283585758865,115.0,696.0
,,"(3, 3)",,,,,,115.0,
G,D,"[4, 3]",1.0,1.0,0.22863316535949707,2.5844249725341797,0.5163146990659941,,697.0
G,D,"[5, 3]",1.0,2.0,0.16364216804504395,1.6589231491088867,0.49194273850926085,116.0,698.0
B,L,"[5, 2]",1.0,3.0,0.1785600185394287,1.6133599281311035,0.4385594944811454,116.0,699.0
R,U,"[4, 2]",1.0,4.0,0.21909785270690918,1.496790885925293,0.2686284307654362,116.0,700.0
Y,R,"[4, 3]",1.0,5.0,0.24513792991638184,1.8309040069580078,0.5825870732529033,116.0,701.0
G,D,"[5, 3]",1.0,6.0,0.18383097648620605,1.5101988315582275,0.3098431336690414,116.0,702.0
,,"(3, 3)",,,,,,116.0,
G,D,"[4, 3]",1.0,1.0,0.16498398780822754,2.568532943725586,0.3786662133017626,,703.0
G,D,"[5, 3]",1.0,2.0,0.20923399925231934,1.8358290195465088,0.6307206652418751,117.0,704.0
B,L,"[5, 2]",1.0,3.0,0.18536806106567383,1.5143311023712158,0.3119600555648701,117.0,705.0
R,U,"[4, 2]",1.0,4.0,0.2514951229095459,1.7054200172424316,0.4505428820403097,117.0,706.0
Y,R,"[4, 3]",1.0,5.0,0.1918189525604248,1.82503080368042,0.6254974787423855,117.0,707.0
G,D,"[5, 3]",1.0,6.0,0.2002100944519043,1.5288968086242676,0.32139060997341007,117.0,708.0
,,"(3, 3)",,,,,,117.0,
G,D,"[4, 3]",1.0,1.0,0.13765501976013184,2.58225679397583,0.3704443461394576,,709.0
G,D,"[5, 3]",1.0,2.0,0.23453617095947266,1.7542297840118408,0.5077904415289967,118.0,710.0
B,L,"[5, 2]",1.0,3.0,0.17276692390441895,1.4323148727416992,0.25711175734870384,118.0,711.0
R,U,"[4, 2]",1.0,4.0,0.23237085342407227,1.686187982559204,0.4431877944928048,118.0,712.0
Y,R,"[4, 3]",1.0,5.0,0.21617794036865234,1.6280741691589355,0.404525519035256,118.0,713.0
G,D,"[5, 3]",1.0,6.0,0.19888997077941895,1.8516299724578857,0.6392017556115102,118.0,714.0
,,"(3, 3)",,,,,,118.0,
G,D,"[4, 3]",1.0,1.0,0.2750511169433594,8.886142015457153,0.4257918148869722,,715.0
G,D,"[5, 3]",1.0,2.0,0.1848900318145752,1.845721960067749,0.6545389237139507,119.0,716.0
B,L,"[5, 2]",1.0,3.0,0.18403291702270508,1.5834431648254395,0.3883882609193445,119.0,717.0
R,U,"[4, 2]",1.0,4.0,0.17885994911193848,1.5666139125823975,0.3883437379114565,119.0,718.0
Y,R,"[4, 3]",1.0,5.0,0.2050468921661377,1.5712559223175049,0.35963454583826476,119.0,719.0
G,D,"[5, 3]",1.0,6.0,0.19749903678894043,1.7498281002044678,0.5261190768072879,119.0,720.0
,,"(3, 3)",,,,,,119.0,
G,D,"[4, 3]",1.0,1.0,0.2389237880706787,3.2150321006774902,0.6908485883711231,,721.0
G,D,"[5, 3]",1.0,2.0,0.163956880569458,1.7350051403045654,0.5761392557013318,120.0,722.0
B,L,"[5, 2]",1.0,3.0,0.16957998275756836,1.7202870845794678,0.54642665758976,120.0,723.0
R,U,"[4, 2]",1.0,4.0,0.19745802879333496,1.8108289241790771,0.6072571737761381,120.0,724.0
Y,R,"[4, 3]",1.0,5.0,0.1883840560913086,1.87748384475708,0.6845501227515522,120.0,725.0
G,D,"[5, 3]",1.0,6.0,0.1702561378479004,1.6385250091552734,0.45684729716528183,120.0,726.0
,,"(3, 3)",,,,,,120.0,
G,D,"[4, 3]",1.0,1.0,0.21589994430541992,2.3077049255371094,0.3480511087076656,,727.0
G,D,"[5, 3]",1.0,2.0,0.1784069538116455,1.9129619598388672,0.7271726440984789,121.0,728.0
B,L,"[5, 2]",1.0,3.0,0.19051003456115723,1.8104591369628906,0.621216726929562,121.0,729.0
R,U,"[4, 2]",1.0,4.0,0.18874096870422363,1.5652000904083252,0.37000606474447345,121.0,730.0
Y,R,"[4, 3]",1.0,5.0,0.1982259750366211,1.831132173538208,0.6341858973751386,121.0,731.0
G,D,"[5, 3]",1.0,6.0,0.20298385620117188,1.957287073135376,0.7413504421151764,121.0,732.0
,,"(3, 3)",,,,,,121.0,
G,D,"[4, 3]",1.0,1.0,0.23650622367858887,2.6559789180755615,0.5810911688376024,,733.0
G,D,"[5, 3]",1.0,2.0,0.1712779998779297,1.5124180316925049,0.3268907918395863,122.0,734.0
B,L,"[5, 2]",1.0,3.0,0.21126198768615723,1.7704219818115234,0.5640385473323435,122.0,735.0
R,U,"[4, 2]",1.0,4.0,0.1841280460357666,1.5886049270629883,0.3858774022032223,122.0,736.0
Y,R,"[4, 3]",1.0,5.0,0.2068181037902832,1.8278369903564453,0.6135499890185795,122.0,737.0
G,D,"[5, 3]",1.0,6.0,0.17969107627868652,1.8041019439697266,0.6176621789154493,122.0,738.0
,,"(3, 3)",,,,,,122.0,
G,D,"[4, 3]",1.0,1.0,0.21847796440124512,2.8648738861083984,0.43284011228071745,,739.0
G,D,"[5, 3]",1.0,2.0,0.16895198822021484,1.8405790328979492,0.6566254716805802,123.0,740.0
B,L,"[5, 2]",1.0,3.0,0.1867821216583252,1.6688158512115479,0.49217923422257437,123.0,741.0
R,U,"[4, 2]",1.0,4.0,0.18711495399475098,1.650404930114746,0.45931004389848606,123.0,742.0
Y,R,"[4, 3]",1.0,5.0,0.22029995918273926,1.9472930431365967,0.7230249575466037,123.0,743.0
G,D,"[5, 3]",1.0,6.0,0.20519399642944336,1.6943919658660889,0.48434781153185463,123.0,744.0
,,"(3, 3)",,,,,,123.0,
G,D,"[4, 3]",1.0,1.0,0.19066905975341797,2.9374749660491943,0.5385188895889013,,745.0
G,D,"[5, 3]",1.0,2.0,0.1411290168762207,1.8597161769866943,0.71471019845832,124.0,746.0
B,L,"[5, 2]",1.0,3.0,0.1725327968597412,1.500378131866455,0.31561544522074797,124.0,747.0
R,U,"[4, 2]",1.0,4.0,0.28147101402282715,1.9540960788726807,0.6692881392324693,124.0,748.0
Y,R,"[4, 3]",1.0,5.0,0.1866168975830078,1.5707910060882568,0.3737699850517363,124.0,749.0
G,D,"[5, 3]",1.0,6.0,0.23491787910461426,1.8436689376831055,0.6004984790706838,124.0,750.0
,,"(3, 3)",,,,,,124.0,
G,D,"[4, 3]",1.0,1.0,0.22461485862731934,3.4571850299835205,0.3080776001708352,,751.0
G,D,"[5, 3]",1.0,2.0,0.23818588256835938,1.9687309265136719,0.7264338109437528,125.0,752.0
B,L,"[5, 2]",1.0,3.0,0.19758009910583496,1.5209298133850098,0.33123872496931,125.0,753.0
R,U,"[4, 2]",1.0,4.0,0.23758792877197266,1.8178589344024658,0.5821266094674917,125.0,754.0
Y,R,"[4, 3]",1.0,5.0,0.22861003875732422,1.980870008468628,0.7460819976790368,125.0,755.0
G,D,"[5, 3]",1.0,6.0,0.24228215217590332,1.8164558410644531,0.5628138113729774,125.0,756.0
,,"(3, 3)",,,,,,125.0,
G,D,"[4, 3]",1.0,1.0,0.24077820777893066,2.287458896636963,0.28393566498510975,,757.0
G,D,"[5, 3]",1.0,2.0,0.22664904594421387,1.6936218738555908,0.46073192077679315,126.0,758.0
B,L,"[5, 2]",1.0,3.0,0.19236993789672852,1.9091849327087402,0.7196871062079113,126.0,759.0
R,U,"[4, 2]",1.0,4.0,0.23676490783691406,1.6013481616973877,0.3547907069503629,126.0,760.0
Y,R,"[4, 3]",1.0,5.0,0.317824125289917,1.9468159675598145,0.6179731656108125,126.0,761.0
G,D,"[5, 3]",1.0,6.0,0.22680211067199707,1.735733985900879,0.5038310521547023,126.0,762.0
,,"(3, 3)",,,,,,126.0,
G,D,"[4, 3]",1.0,1.0,0.42382097244262695,3.1402690410614014,0.3944672975926181,,763.0
G,D,"[5, 3]",1.0,2.0,0.20630311965942383,1.7747769355773926,0.5690177713853071,127.0,764.0
B,L,"[5, 2]",1.0,3.0,0.1942908763885498,1.8458809852600098,0.6480896430293861,127.0,765.0
R,U,"[4, 2]",1.0,4.0,0.20716595649719238,1.4687941074371338,0.25069612235545136,127.0,766.0
Y,R,"[4, 3]",1.0,5.0,0.22266793251037598,1.7295210361480713,0.4967294157380869,127.0,767.0
G,D,"[5, 3]",1.0,6.0,0.2074880599975586,1.8866350650787354,0.6664047276908555,127.0,768.0
,,"(3, 3)",,,,,,127.0,
G,D,"[4, 3]",1.0,1.0,0.2802448272705078,3.195474147796631,0.5621411994657428,,769.0
G,D,"[5, 3]",1.0,2.0,0.16962409019470215,1.865515947341919,0.6942455319280403,128.0,770.0
B,L,"[5, 2]",1.0,3.0,0.4141669273376465,1.8529598712921143,0.44740263472548586,128.0,771.0
R,U,"[4, 2]",1.0,4.0,0.19348692893981934,1.5759868621826172,0.37349009976156167,128.0,772.0
Y,R,"[4, 3]",1.0,5.0,0.26775693893432617,1.8476920127868652,0.5710377299689318,128.0,773.0
G,D,"[5, 3]",1.0,6.0,0.21390080451965332,1.855583906173706,0.6431623578108827,128.0,774.0
,,"(3, 3)",,,,,,128.0,
G,D,"[4, 3]",1.0,1.0,0.22315287590026855,10.892559051513672,0.6357348650566927,,775.0
G,D,"[5, 3]",1.0,2.0,0.19230914115905762,1.8458049297332764,0.6483177943321856,129.0,776.0
B,L,"[5, 2]",1.0,3.0,0.23636293411254883,1.6456599235534668,0.3944633543755085,129.0,777.0
R,U,"[4, 2]",1.0,4.0,0.227308988571167,1.6790580749511719,0.45675048805898577,129.0,778.0
Y,R,"[4, 3]",1.0,5.0,0.19887304306030273,1.5676231384277344,0.37452336896868066,129.0,779.0
G,D,"[5, 3]",1.0,6.0,0.21831893920898438,1.8153541088104248,0.5896734585301254,129.0,780.0
,,"(3, 3)",,,,,,129.0,
G,D,"[4, 3]",1.0,1.0,0.19625306129455566,3.0311429500579834,0.4543930621729733,,781.0
G,D,"[5, 3]",1.0,2.0,0.17673683166503906,1.5719058513641357,0.39305099806324356,130.0,782.0
B,L,"[5, 2]",1.0,3.0,0.18169689178466797,1.431678056716919,0.2581077234433784,130.0,783.0
R,U,"[4, 2]",1.0,4.0,0.19349384307861328,1.7743828296661377,0.5820419311830349,130.0,784.0
Y,R,"[4, 3]",1.0,5.0,0.18922686576843262,1.8143889904022217,0.613225340378293,130.0,785.0
G,D,"[5, 3]",1.0,6.0,0.18949604034423828,1.648068904876709,0.4447251476169756,130.0,786.0
,,"(3, 3)",,,,,,130.0,
G,D,"[4, 3]",1.0,1.0,0.1843109130859375,3.068812847137451,0.6302985265816619,,787.0
G,D,"[5, 3]",1.0,2.0,0.17522001266479492,1.9029438495635986,0.7163668757858145,131.0,788.0
B,L,"[5, 2]",1.0,3.0,0.1861579418182373,1.644946813583374,0.4449973381058213,131.0,789.0
R,U,"[4, 2]",1.0,4.0,0.24479007720947266,1.5301599502563477,0.2919880979092547,131.0,790.0
Y,R,"[4, 3]",1.0,5.0,0.2737760543823242,1.7136640548706055,0.4388399812809181,131.0,791.0
G,D,"[5, 3]",1.0,6.0,0.18389415740966797,1.6980831623077393,0.5036106924403732,131.0,792.0
,,"(3, 3)",,,,,,131.0,
G,D,"[4, 3]",1.0,1.0,0.18454408645629883,3.1271800994873047,0.3142295634666753,,793.0
G,D,"[5, 3]",1.0,2.0,0.21771907806396484,1.815181016921997,0.5792312750234394,132.0,794.0
B,L,"[5, 2]",1.0,3.0,0.19122004508972168,1.770423173904419,0.5663250928445327,132.0,795.0
R,U,"[4, 2]",1.0,4.0,0.22263598442077637,1.5159649848937988,0.28270621997543177,132.0,796.0
Y,R,"[4, 3]",1.0,5.0,0.2368929386138916,1.6918871402740479,0.4410908219675033,132.0,797.0
G,D,"[5, 3]",1.0,6.0,0.17975211143493652,1.5172810554504395,0.34185665352457384,132.0,798.0
,,"(3, 3)",,,,,,132.0,
G,D,"[4, 3]",1.0,1.0,0.16735219955444336,9.351948976516724,0.7272955267398074,,799.0
G,D,"[5, 3]",1.0,2.0,0.1843268871307373,1.6198768615722656,0.4304194634572037,133.0,800.0
B,L,"[5, 2]",1.0,3.0,0.23328399658203125,1.663132905960083,0.41027470895467794,133.0,801.0
R,U,"[4, 2]",1.0,4.0,0.1941680908203125,1.5484387874603271,0.3588432098563835,133.0,802.0
Y,R,"[4, 3]",1.0,5.0,0.2434539794921875,1.5044949054718018,0.2634058205823341,133.0,803.0
G,D,"[5, 3]",1.0,6.0,0.24352693557739258,1.6835639476776123,0.4300958130816154,133.0,804.0
,,"(3, 3)",,,,,,133.0,
G,D,"[4, 3]",-1.0,-1.0,0.19845294952392578,2.8004860877990723,0.3308649627861264,,805.0
B,L,"[4, 2]",-1.0,-2.0,0.23125100135803223,1.870007038116455,0.6339320328417971,134.0,806.0
R,U,"[3, 2]",-1.0,-3.0,0.1947951316833496,1.8279240131378174,0.6284049589536634,134.0,807.0
R,U,"[2, 2]",1.0,-2.0,0.1945328712463379,1.4431819915771484,0.2553899535094143,134.0,808.0
R,U,"[1, 2]",1.0,-1.0,0.25626397132873535,1.8974659442901611,0.635843400224287,134.0,809.0
R,U,"[0, 2]",0.0,-1.0,0.18954706192016602,1.849532127380371,0.6520803571204739,134.0,810.0
,,"(3, 3)",,,,,,134.0,
Y,R,"[3, 4]",-1.0,-1.0,0.1930990219116211,4.062735080718994,0.33186421468359173,,811.0
B,L,"[3, 3]",-2.0,-3.0,0.1967639923095703,1.6924800872802734,0.4741300661794877,135.0,812.0
Y,R,"[3, 4]",-1.0,-4.0,0.19870400428771973,1.587463140487671,0.3782681176296553,135.0,813.0
G,D,"[4, 4]",-1.0,-5.0,0.19330191612243652,1.9282019138336182,0.7396829143701221,135.0,814.0
R,U,"[3, 4]",-1.0,-6.0,0.20311594009399414,1.4871349334716797,0.2772523443808705,135.0,815.0
B,L,"[3, 3]",-2.0,-8.0,0.22286510467529297,1.9216151237487793,0.6984562335710733,135.0,816.0
,,"(3, 3)",,,,,,135.0,
B,L,"[3, 2]",-1.0,-1.0,0.19815897941589355,5.566325902938843,0.44847085805078535,,817.0
R,U,"[2, 2]",1.0,0.0,0.19009113311767578,1.816525936126709,0.6315614146296977,136.0,818.0
R,U,"[1, 2]",1.0,1.0,0.17450499534606934,1.741966962814331,0.5570105806215948,136.0,819.0
R,U,"[0, 2]",0.0,1.0,0.18141603469848633,1.850442886352539,0.6739259587655797,136.0,820.0
Y,R,"[0, 3]",0.0,1.0,0.21013712882995605,1.8566648960113525,0.6473388651017993,136.0,821.0
B,L,"[0, 2]",0.0,1.0,0.1794288158416748,1.5725469589233398,0.3868745796136118,136.0,822.0
,,"(3, 3)",,,,,,136.0,
R,U,"[2, 3]",1.0,1.0,0.17864108085632324,3.399261951446533,0.252809777770909,,823.0
R,U,"[1, 3]",-1.0,0.0,0.21202588081359863,1.6258459091186523,0.4119274200081719,137.0,824.0
G,D,"[2, 3]",1.0,1.0,0.18734312057495117,1.5198900699615479,0.3319459723637643,137.0,825.0
R,U,"[1, 3]",-1.0,0.0,0.18618488311767578,1.947026014328003,0.745285044629119,137.0,826.0
G,D,"[2, 3]",1.0,1.0,0.16097784042358398,1.8071818351745605,0.6525837647614909,137.0,827.0
G,D,"[3, 3]",-2.0,-1.0,0.19829893112182617,1.730909824371338,0.5168884144766055,137.0,828.0
,,"(3, 3)",,,,,,137.0,
R,U,"[2, 3]",1.0,1.0,0.18130183219909668,3.367379903793335,0.3180213426322456,,829.0
R,U,"[1, 3]",-1.0,0.0,0.20621705055236816,1.8504199981689453,0.6346860692714129,138.0,830.0
G,D,"[2, 3]",1.0,1.0,0.17339205741882324,1.7255220413208008,0.5437893281945158,138.0,831.0
G,D,"[3, 3]",-2.0,-1.0,0.1789560317993164,1.541511058807373,0.35213584379089763,138.0,832.0
Y,R,"[3, 4]",-1.0,-2.0,0.21195101737976074,1.833946943283081,0.619069902395888,138.0,833.0
R,U,"[2, 4]",-1.0,-3.0,0.20163297653198242,1.959455966949463,0.7451330577026465,138.0,834.0
,,"(3, 3)",,,,,,138.0,
G,D,"[4, 3]",-1.0,-1.0,0.15051484107971191,5.837119102478027,0.6992234159089572,,835.0
R,U,"[3, 3]",-2.0,-3.0,0.2108750343322754,1.5219881534576416,0.3050066945458928,139.0,836.0
G,D,"[4, 3]",-1.0,-4.0,0.25714707374572754,1.709820032119751,0.44786000007798865,139.0,837.0
B,L,"[4, 2]",-1.0,-5.0,0.19604110717773438,1.6773488521575928,0.4751899426276398,139.0,838.0
G,D,"[5, 2]",-1.0,-6.0,0.18829798698425293,1.637786865234375,0.44658807782671045,139.0,839.0
Y,R,"[5, 3]",-1.0,-7.0,0.2232198715209961,1.7934069633483887,0.5563032439678106,139.0,840.0
,,"(3, 3)",,,,,,139.0,
R,U,"[2, 3]",1.0,1.0,0.11942887306213379,4.897416114807129,0.5041896659920015,,841.0
G,D,"[3, 3]",-2.0,-1.0,0.19691801071166992,1.5788989067077637,0.3663040650216873,140.0,842.0
R,U,"[2, 3]",1.0,0.0,0.2100691795349121,1.6616270542144775,0.4445204668157286,140.0,843.0
R,U,"[1, 3]",-1.0,-1.0,0.18593192100524902,1.7892661094665527,0.6003357340907438,140.0,844.0
Y,R,"[1, 4]",-1.0,-2.0,0.2077488899230957,1.5780029296875,0.3620566132147529,140.0,845.0
B,L,"[1, 3]",-1.0,-3.0,0.19518208503723145,1.8252952098846436,0.6370926894154325,140.0,846.0
,,"(3, 3)",,,,,,140.0,
R,U,"[2, 3]",1.0,1.0,0.2341170310974121,4.373647928237915,0.6940025707278721,,847.0
R,U,"[1, 3]",-1.0,0.0,0.19559001922607422,1.6296579837799072,0.42400526451295034,141.0,848.0
G,D,"[2, 3]",1.0,1.0,0.20831704139709473,1.552353858947754,0.34322878159316716,141.0,849.0
B,L,"[2, 2]",1.0,2.0,0.2212049961090088,1.5838959217071533,0.37703750776036565,141.0,850.0
R,U,"[1, 2]",1.0,3.0,0.3208730220794678,2.004415988922119,0.6809831910863662,141.0,851.0
G,D,"[2, 2]",1.0,4.0,0.18929815292358398,1.7553889751434326,0.5533264547422183,141.0,852.0
,,"(3, 3)",,,,,,141.0,
R,U,"[2, 3]",1.0,1.0,0.18458294868469238,2.4470741748809814,0.317618528386502,,853.0
G,D,"[3, 3]",-2.0,-1.0,0.19742393493652344,1.4907209873199463,0.27511252956264864,142.0,854.0
B,L,"[3, 2]",-1.0,-2.0,0.23328089714050293,1.8584890365600586,0.6163916008001241,142.0,855.0
R,U,"[2, 2]",1.0,-1.0,0.19861507415771484,1.5880670547485352,0.3713639097316743,142.0,856.0
R,U,"[1, 2]",1.0,0.0,0.21721410751342773,1.8627071380615234,0.6337584794823541,142.0,857.0
G,D,"[2, 2]",1.0,1.0,0.2157609462738037,1.6537830829620361,0.43773563855249514,142.0,858.0
,,"(3, 3)",,,,,,142.0,
R,U,"[2, 3]",1.0,1.0,0.19948101043701172,2.9637858867645264,0.7346480437946925,,859.0
R,U,"[1, 3]",-1.0,0.0,0.23212909698486328,1.5198040008544922,0.271607078262774,143.0,860.0
G,D,"[2, 3]",1.0,1.0,0.2087249755859375,1.4814791679382324,0.2698532048928319,143.0,861.0
B,L,"[2, 2]",1.0,2.0,0.21631217002868652,1.6840169429779053,0.4702617253963554,143.0,862.0
R,U,"[1, 2]",1.0,3.0,0.18214702606201172,1.6431279182434082,0.463470810510353,143.0,863.0
G,D,"[2, 2]",1.0,4.0,0.19918084144592285,1.7823030948638916,0.5789989199205625,143.0,864.0
,,"(3, 3)",,,,,,143.0,
R,U,"[2, 3]",1.0,1.0,0.23494601249694824,2.3889400959014893,0.36827877423380584,,865.0
Y,R,"[2, 4]",-1.0,0.0,0.22415399551391602,1.6846680641174316,0.4529166230949735,144.0,866.0
G,D,"[3, 4]",-1.0,-1.0,0.19416499137878418,1.8721559047698975,0.6747394503904505,144.0,867.0
B,L,"[3, 3]",-1.0,-1.0,0.058634042739868164,5.439526796340942,0.26477289800677667,144.0,868.0
Y,R,"[3, 4]",-1.0,-2.0,0.2743370532989502,1.8199708461761475,0.5346155115541236,144.0,869.0
R,U,"[2, 4]",-1.0,-3.0,0.1973559856414795,1.8024909496307373,0.6036564500356387,144.0,870.0
,,"(3, 3)",,,,,,144.0,
R,U,"[2, 3]",1.0,1.0,0.3321499824523926,2.5611610412597656,0.6481915488859833,,871.0
R,U,"[1, 3]",-1.0,0.0,0.18083500862121582,1.743549108505249,0.5417420921588428,145.0,872.0
G,D,"[2, 3]",1.0,1.0,0.20020794868469238,1.4804930686950684,0.272547741796891,145.0,873.0
B,L,"[2, 2]",1.0,2.0,0.21725201606750488,1.9294788837432861,0.7016424851920443,145.0,874.0
R,U,"[1, 2]",1.0,3.0,0.1911320686340332,1.8336760997772217,0.6354511711852013,145.0,875.0
G,D,"[2, 2]",1.0,4.0,0.20860695838928223,1.6294291019439697,0.4151846621540969,145.0,876.0
,,"(3, 3)",,,,,,145.0,
R,U,"[2, 3]",1.0,1.0,0.24865007400512695,2.533200979232788,0.39833759371217875,,877.0
G,D,"[3, 3]",-2.0,-1.0,0.18587112426757812,1.5223121643066406,0.320846318224919,146.0,878.0
B,L,"[3, 2]",-1.0,-2.0,0.20655512809753418,1.7284159660339355,0.5156128794505301,146.0,879.0
Y,R,"[3, 3]",-2.0,-4.0,0.2191910743713379,1.7902038097381592,0.5559415317022915,146.0,880.0
R,U,"[2, 3]",1.0,-3.0,0.19883203506469727,1.718808889389038,0.5080088829237388,146.0,881.0
R,U,"[1, 3]",-1.0,-4.0,0.19019198417663574,1.9189949035644531,0.726863918453504,146.0,882.0
,,"(3, 3)",,,,,,146.0,
R,U,"[2, 3]",1.0,1.0,0.20489716529846191,2.411928176879883,0.6223414972584007,,883.0
Y,R,"[2, 4]",-1.0,0.0,0.20621395111083984,1.9095280170440674,0.6985903047817082,147.0,884.0
G,D,"[3, 4]",-1.0,-1.0,0.17957401275634766,1.7344660758972168,0.5498566676891576,147.0,885.0
R,U,"[2, 4]",-1.0,-2.0,0.19611501693725586,1.6268258094787598,0.42675751378469795,147.0,886.0
B,L,"[2, 3]",1.0,-1.0,0.19468188285827637,1.8933398723602295,0.6864986549394996,147.0,887.0
B,L,"[2, 2]",1.0,0.0,0.1928260326385498,1.5280699729919434,0.3315729070737517,147.0,888.0
,,"(3, 3)",,,,,,147.0,
R,U,"[2, 3]",1.0,1.0,0.20446395874023438,3.048341989517212,0.6463323500736855,,889.0
B,L,"[2, 2]",1.0,2.0,0.20450282096862793,1.552229881286621,0.3322458490964836,148.0,890.0
G,D,"[3, 2]",-1.0,1.0,0.23265695571899414,1.7801401615142822,0.5288935138958357,148.0,891.0
B,L,"[3, 1]",1.0,2.0,0.22085094451904297,1.707625150680542,0.48653734887787864,148.0,892.0
R,U,"[2, 1]",1.0,3.0,0.17668604850769043,1.531567096710205,0.35145948348181183,148.0,893.0
B,L,"[2, 0]",0.0,3.0,0.3032100200653076,1.6528689861297607,0.3379953703037356,148.0,894.0
,,"(3, 3)",,,,,,148.0,
R,U,"[2, 3]",1.0,1.0,0.12209296226501465,5.5837931632995605,0.3386635134292037,,895.0
G,D,"[3, 3]",-2.0,-1.0,0.1807420253753662,1.9302630424499512,0.7351061597595074,149.0,896.0
B,L,"[3, 2]",-1.0,-2.0,0.20691990852355957,1.8263318538665771,0.6115950622544093,149.0,897.0
R,U,"[2, 2]",1.0,-1.0,0.21898603439331055,1.887789011001587,0.6659628975135724,149.0,898.0
R,U,"[1, 2]",1.0,0.0,0.18706798553466797,1.9493920803070068,0.7485202682152413,149.0,899.0
G,D,"[2, 2]",1.0,1.0,0.2023770809173584,1.7350399494171143,0.5175173787244778,149.0,900.0
,,"(3, 3)",,,,,,149.0,
R,U,"[2, 3]",-1.0,0.0,0.06028389930725098,6.8134260177612305,0.48079976206618363,,901.0
R,U,"[1, 3]",-1.0,-1.0,0.2383558750152588,1.7509520053863525,0.49854370622356386,150.0,902.0
B,L,"[1, 2]",1.0,0.0,0.1954340934753418,1.8601670265197754,0.6417983488736743,150.0,903.0
R,U,"[0, 2]",0.0,0.0,0.1775360107421875,1.6242258548736572,0.4494668608432621,150.0,904.0
G,D,"[1, 2]",1.0,1.0,0.18738603591918945,1.6857190132141113,0.48537020499777855,150.0,905.0
B,L,"[1, 1]",1.0,2.0,0.21199703216552734,1.7997899055480957,0.5851233604789956,150.0,906.0
,,"(3, 3)",,,,,,150.0,
R,U,"[2, 3]",1.0,1.0,0.24835586547851562,2.679581880569458,0.44823518130946977,,907.0
B,L,"[2, 2]",1.0,2.0,0.2216658592224121,1.871671199798584,0.6362993793581441,151.0,908.0
R,U,"[1, 2]",1.0,3.0,0.1851489543914795,1.648313045501709,0.45159302447885535,151.0,909.0
B,L,"[1, 1]",1.0,4.0,0.19439196586608887,1.9403250217437744,0.7415395459163407,151.0,910.0
R,U,"[0, 1]",0.0,4.0,0.20583796501159668,1.9178249835968018,0.7094911330757663,151.0,911.0
B,L,"[0, 0]",0.0,4.0,0.20432090759277344,1.877971887588501,0.6875107073168236,151.0,912.0
,,"(3, 3)",,,,,,151.0,
R,U,"[2, 3]",1.0,1.0,0.18986201286315918,2.487217903137207,0.45854788152037024,,913.0
B,L,"[2, 2]",1.0,2.0,0.17870497703552246,1.5148961544036865,0.34009119383106684,152.0,914.0
R,U,"[1, 2]",1.0,3.0,0.2142200469970703,1.9194910526275635,0.7090739744633947,152.0,915.0
B,L,"[1, 1]",1.0,4.0,0.19199585914611816,1.9196410179138184,0.7288276345877478,152.0,916.0
R,U,"[0, 1]",0.0,4.0,0.21390700340270996,1.685615062713623,0.48144572464501617,152.0,917.0
B,L,"[0, 0]",0.0,4.0,0.23417091369628906,1.9392988681793213,0.7038101572433579,152.0,918.0
,,"(3, 3)",,,,,,152.0,
R,U,"[2, 3]",1.0,1.0,0.16533803939819336,1.9191827774047852,0.30676266600962016,,919.0
B,L,"[2, 2]",1.0,2.0,0.24332499504089355,1.828852891921997,0.5852896055214145,153.0,920.0
R,U,"[1, 2]",1.0,3.0,0.21431279182434082,1.8625268936157227,0.6477813037917677,153.0,921.0
B,L,"[1, 1]",1.0,4.0,0.1984860897064209,1.870133876800537,0.6679535007811139,153.0,922.0
G,D,"[2, 1]",1.0,5.0,0.21071600914001465,1.7771320343017578,0.5619050288540032,153.0,923.0
B,L,"[2, 0]",0.0,5.0,0.21045899391174316,1.5568909645080566,0.3524507037361149,153.0,924.0
,,"(3, 3)",,,,,,153.0,
R,U,"[2, 3]",1.0,1.0,0.39036107063293457,2.563326120376587,0.5157571656056275,,925.0
B,L,"[2, 2]",1.0,2.0,0.2199079990386963,1.9350450038909912,0.7004583353360475,154.0,926.0
R,U,"[1, 2]",1.0,3.0,0.18770503997802734,1.9159290790557861,0.7164697139419183,154.0,927.0
B,L,"[1, 1]",1.0,4.0,0.19120502471923828,1.483767032623291,0.28393331270056266,154.0,928.0
G,D,"[2, 1]",1.0,5.0,0.22618794441223145,1.7494800090789795,0.5166018584467569,154.0,929.0
R,U,"[1, 1]",1.0,6.0,0.20108509063720703,1.6685428619384766,0.45184682608050697,154.0,930.0
,,"(3, 3)",,,,,,154.0,
R,U,"[2, 3]",1.0,1.0,0.23238706588745117,2.926547050476074,0.5451132021337413,,931.0
B,L,"[2, 2]",1.0,2.0,0.2019960880279541,1.6920039653778076,0.48707643930836825,155.0,932.0
R,U,"[1, 2]",1.0,3.0,0.21279597282409668,1.823854923248291,0.6108174758346689,155.0,933.0
B,L,"[1, 1]",1.0,4.0,0.2282559871673584,1.691478967666626,0.46925958304525484,155.0,934.0
G,D,"[2, 1]",1.0,5.0,0.1853787899017334,1.5806150436401367,0.3833014139253061,155.0,935.0
R,U,"[1, 1]",1.0,6.0,0.24380898475646973,1.8899950981140137,0.6397550195854267,155.0,936.0
,,"(3, 3)",,,,,,155.0,
R,U,"[2, 3]",1.0,1.0,0.19899702072143555,2.8597350120544434,0.7496300486399632,,937.0
B,L,"[2, 2]",1.0,2.0,0.17040205001831055,1.6563999652862549,0.4728073752443214,156.0,938.0
R,U,"[1, 2]",1.0,3.0,0.24404406547546387,1.5298240184783936,0.28604652818810183,156.0,939.0
B,L,"[1, 1]",1.0,4.0,0.2779579162597656,1.9660310745239258,0.6850603279047469,156.0,940.0
G,D,"[2, 1]",1.0,5.0,0.30332303047180176,1.6496140956878662,0.3350713845116884,156.0,941.0
R,U,"[1, 1]",1.0,6.0,0.22824501991271973,1.8698041439056396,0.6379027234214113,156.0,942.0
,,"(3, 3)",,,,,,156.0,
R,U,"[2, 3]",1.0,1.0,0.1588761806488037,2.17284893989563,0.4277976816194339,,943.0
B,L,"[2, 2]",1.0,2.0,0.2103559970855713,1.6389751434326172,0.43331434194160234,157.0,944.0
R,U,"[1, 2]",1.0,3.0,0.20319509506225586,1.8740971088409424,0.6572532965281327,157.0,945.0
B,L,"[1, 1]",1.0,4.0,0.18176007270812988,1.7701079845428467,0.5942334128240345,157.0,946.0
G,D,"[2, 1]",1.0,5.0,0.21602582931518555,1.5081751346588135,0.28589071093827856,157.0,947.0
R,U,"[1, 1]",1.0,6.0,0.22234201431274414,1.7081620693206787,0.4772710986477221,157.0,948.0
,,"(3, 3)",,,,,,157.0,
R,U,"[2, 3]",1.0,1.0,0.19014596939086914,3.1331000328063965,0.6771281235024167,,949.0
B,L,"[2, 2]",1.0,2.0,0.1903069019317627,1.9335591793060303,0.7437718905213954,158.0,950.0
R,U,"[1, 2]",1.0,3.0,0.19683098793029785,1.5010271072387695,0.31203815073296515,158.0,951.0
B,L,"[1, 1]",1.0,4.0,0.20885109901428223,1.7480130195617676,0.5431249074993751,158.0,952.0
G,D,"[2, 1]",1.0,5.0,0.1811678409576416,1.5686049461364746,0.37860312359948334,158.0,953.0
R,U,"[1, 1]",1.0,6.0,0.15847086906433105,1.8422958850860596,0.6871326994554698,158.0,954.0
,,"(3, 3)",,,,,,158.0,
R,U,"[2, 3]",1.0,1.0,0.1876668930053711,2.928715944290161,0.5163018825763743,,955.0
B,L,"[2, 2]",1.0,2.0,0.18113279342651367,1.4709291458129883,0.2873110704356368,159.0,956.0
R,U,"[1, 2]",1.0,3.0,0.23900985717773438,1.7573459148406982,0.5111302160899417,159.0,957.0
B,L,"[1, 1]",1.0,4.0,0.1925811767578125,1.8123102188110352,0.6233192852224079,159.0,958.0
G,D,"[2, 1]",1.0,5.0,0.18613195419311523,1.7287631034851074,0.5355962132011076,159.0,959.0
R,U,"[1, 1]",1.0,6.0,0.2020728588104248,1.7325899600982666,0.5182911522309324,159.0,960.0
,,"(3, 3)",,,,,,159.0,
R,U,"[2, 3]",1.0,1.0,0.1883070468902588,2.5787580013275146,0.4970286332897206,,961.0
B,L,"[2, 2]",1.0,2.0,0.17626690864562988,1.6573119163513184,0.4710086287807217,160.0,962.0
R,U,"[1, 2]",1.0,3.0,0.20221805572509766,1.8542709350585938,0.6419452379988205,160.0,963.0
B,L,"[1, 1]",1.0,4.0,0.18580889701843262,1.5024709701538086,0.3113748626548765,160.0,964.0
G,D,"[2, 1]",1.0,5.0,0.21401214599609375,1.6475958824157715,0.44211973417338424,160.0,965.0
R,U,"[1, 1]",1.0,6.0,0.18553900718688965,1.5042498111724854,0.31332543304679505,160.0,966.0
,,"(3, 3)",,,,,,160.0,
R,U,"[2, 3]",1.0,1.0,0.17318987846374512,2.90791392326355,0.404402092542582,,967.0
B,L,"[2, 2]",1.0,2.0,0.19422101974487305,1.472527027130127,0.2771029432700544,161.0,968.0
R,U,"[1, 2]",1.0,3.0,0.22832798957824707,1.7091310024261475,0.48603956991029135,161.0,969.0
B,L,"[1, 1]",1.0,4.0,0.18464398384094238,1.898590087890625,0.7010800017710124,161.0,970.0
G,D,"[2, 1]",1.0,5.0,0.18587088584899902,1.461961030960083,0.2635371155079095,161.0,971.0
R,U,"[1, 1]",1.0,6.0,0.20723319053649902,1.5158030986785889,0.29609074749903297,161.0,972.0
,,"(3, 3)",,,,,,161.0,
R,U,"[2, 3]",1.0,1.0,0.19074606895446777,2.3601739406585693,0.2562862263019084,,973.0
B,L,"[2, 2]",1.0,2.0,0.21555089950561523,1.8723068237304688,0.6615343026463385,162.0,974.0
R,U,"[1, 2]",1.0,3.0,0.166945219039917,1.4654629230499268,0.29412821691608637,162.0,975.0
B,L,"[1, 1]",1.0,4.0,0.1864621639251709,1.8405389785766602,0.6508677685106237,162.0,976.0
G,D,"[2, 1]",1.0,5.0,0.1733839511871338,1.8668789863586426,0.6843623570960601,162.0,977.0
R,U,"[1, 1]",1.0,6.0,0.16495609283447266,1.788424015045166,0.6229071281326628,162.0,978.0
,,"(3, 3)",,,,,,162.0,
R,U,"[2, 3]",1.0,1.0,0.17975592613220215,3.374666929244995,0.3979529154863072,,979.0
B,L,"[2, 2]",1.0,2.0,0.19449496269226074,1.5567779541015625,0.35476018884394533,163.0,980.0
R,U,"[1, 2]",1.0,3.0,0.1954348087310791,1.6686348915100098,0.4733087594679272,163.0,981.0
B,L,"[1, 1]",1.0,4.0,0.16892099380493164,1.714169979095459,0.5373968895672798,163.0,982.0
G,D,"[2, 1]",1.0,5.0,0.18324804306030273,1.7246150970458984,0.5287787837768395,163.0,983.0
R,U,"[1, 1]",1.0,6.0,0.19554805755615234,1.7852239608764648,0.5972774578483866,163.0,984.0
,,"(3, 3)",,,,,,163.0,
R,U,"[2, 3]",1.0,1.0,0.17067694664001465,2.8041999340057373,0.3849409130842411,,985.0
B,L,"[2, 2]",1.0,2.0,0.19364213943481445,1.749161958694458,0.5507306741824233,164.0,986.0
R,U,"[1, 2]",1.0,3.0,0.18169307708740234,1.471890926361084,0.28956328973765755,164.0,987.0
B,L,"[1, 1]",1.0,4.0,0.20520806312561035,1.9035601615905762,0.6927671966844169,164.0,988.0
G,D,"[2, 1]",1.0,5.0,0.1924571990966797,1.8370120525360107,0.6466322237036559,164.0,989.0
R,U,"[1, 1]",1.0,6.0,0.21519684791564941,1.8037700653076172,0.583829482757023,164.0,990.0
,,"(3, 3)",,,,,,164.0,
R,U,"[2, 3]",-1.0,0.0,0.08784699440002441,7.184797048568726,0.41877495569819206,,991.0
B,L,"[2, 2]",1.0,1.0,0.22914791107177734,1.817903995513916,0.586555734514796,165.0,992.0
R,U,"[1, 2]",1.0,2.0,0.1865699291229248,1.626852035522461,0.4302220959244934,165.0,993.0
B,L,"[1, 1]",1.0,3.0,0.21877408027648926,1.5981369018554688,0.36175557042786144,165.0,994.0
G,D,"[2, 1]",1.0,4.0,0.233079195022583,1.5806629657745361,0.3425104068376477,165.0,995.0
R,U,"[1, 1]",1.0,5.0,0.19889378547668457,1.659010887145996,0.4681200474089446,165.0,996.0
,,"(3, 3)",,,,,,165.0,
R,U,"[2, 3]",1.0,1.0,0.23880696296691895,7.021277904510498,0.5729991602185662,,997.0
B,L,"[2, 2]",-1.0,1.0,0.04485511779785156,5.901976108551025,0.7413444864235668,166.0,998.0
R,U,"[1, 2]",1.0,2.0,0.2840561866760254,1.962170124053955,0.6868982429111248,166.0,999.0
B,L,"[1, 1]",1.0,3.0,0.21631407737731934,1.8368890285491943,0.6241406650970959,166.0,1000.0
G,D,"[2, 1]",1.0,4.0,0.23197102546691895,1.7073891162872314,0.4647798413838993,166.0,1001.0
R,U,"[1, 1]",1.0,5.0,0.33369994163513184,1.7187221050262451,0.3670304590824873,166.0,1002.0
,,"(3, 3)",,,,,,166.0,
R,U,"[2, 3]",1.0,1.0,0.12927794456481934,2.9432709217071533,0.37690583658781124,,1003.0
B,L,"[2, 2]",1.0,2.0,0.20453906059265137,1.7943899631500244,0.5877359140223635,167.0,1004.0
R,U,"[1, 2]",1.0,3.0,0.17702484130859375,1.7957229614257812,0.6168058937494635,167.0,1005.0
B,L,"[1, 1]",1.0,4.0,0.20182299613952637,1.5139131546020508,0.29777407503878944,167.0,1006.0
G,D,"[2, 1]",1.0,5.0,0.2511708736419678,1.7876949310302734,0.518588230367612,167.0,1007.0
R,U,"[1, 1]",1.0,6.0,0.27193784713745117,1.547278881072998,0.2661752631909348,167.0,1008.0
,,"(3, 3)",,,,,,167.0,
R,U,"[2, 3]",1.0,1.0,0.6162750720977783,3.6214280128479004,0.7204432274735674,,1009.0
B,L,"[2, 2]",1.0,2.0,0.1874399185180664,1.535871982574463,0.35688062779074126,168.0,1010.0
R,U,"[1, 2]",1.0,3.0,0.20296692848205566,1.9368400573730469,0.726670058076948,168.0,1011.0
B,L,"[1, 1]",1.0,4.0,0.20271801948547363,1.686324119567871,0.479877496165368,168.0,1012.0
G,D,"[2, 1]",1.0,5.0,0.21949195861816406,1.7055611610412598,0.4854171223265821,168.0,1013.0
R,U,"[1, 1]",1.0,6.0,0.20705103874206543,1.6138529777526855,0.3993847621801839,168.0,1014.0
,,"(3, 3)",,,,,,168.0,
R,U,"[2, 3]",1.0,1.0,0.24829912185668945,3.2983040809631348,0.6306956710550595,,1015.0
B,L,"[2, 2]",1.0,2.0,0.18139290809631348,1.8468031883239746,0.661102785841068,169.0,1016.0
R,U,"[1, 2]",1.0,3.0,0.18308591842651367,1.4946529865264893,0.3061353594633692,169.0,1017.0
B,L,"[1, 1]",1.0,4.0,0.2741379737854004,1.8870630264282227,0.6094463621719335,169.0,1018.0
G,D,"[2, 1]",1.0,5.0,0.1589980125427246,1.62034010887146,0.46330559386144754,169.0,1019.0
R,U,"[1, 1]",1.0,6.0,0.18156695365905762,1.8915331363677979,0.7045914317701908,169.0,1020.0
,,"(3, 3)",,,,,,169.0,
R,U,"[2, 3]",1.0,1.0,0.25624585151672363,2.8820199966430664,0.38696955805029104,,1021.0
B,L,"[2, 2]",1.0,2.0,0.251223087310791,1.8755230903625488,0.6123711100209003,170.0,1022.0
R,U,"[1, 2]",1.0,3.0,0.176375150680542,1.6789829730987549,0.508134172759467,170.0,1023.0
B,L,"[1, 1]",1.0,4.0,0.19329404830932617,1.4935779571533203,0.3019793021890106,170.0,1024.0
G,D,"[2, 1]",1.0,5.0,0.25521087646484375,1.7520229816436768,0.48716906283397027,170.0,1025.0
R,U,"[1, 1]",1.0,6.0,0.19525909423828125,1.4571750164031982,0.26121806172519163,170.0,1026.0
,,"(3, 3)",,,,,,170.0,
R,U,"[2, 3]",1.0,1.0,0.20930910110473633,3.11995792388916,0.5809286936871958,,1027.0
B,L,"[2, 2]",1.0,2.0,0.188248872756958,1.5476248264312744,0.34550274842552436,171.0,1028.0
R,U,"[1, 2]",1.0,3.0,0.21671199798583984,1.6199109554290771,0.41548187324210895,171.0,1029.0
B,L,"[1, 1]",1.0,4.0,0.19068694114685059,1.9096260070800781,0.7080808131490288,171.0,1030.0
G,D,"[2, 1]",1.0,5.0,0.18464279174804688,1.6693918704986572,0.49435716823085346,171.0,1031.0
R,U,"[1, 1]",1.0,6.0,0.19101691246032715,1.5955548286437988,0.4066298919331133,171.0,1032.0
,,"(3, 3)",,,,,,171.0,
R,U,"[2, 3]",1.0,1.0,0.23441195487976074,2.8661019802093506,0.7226509323338681,,1033.0
B,L,"[2, 2]",1.0,2.0,0.17571496963500977,1.7196409702301025,0.5423174432529043,172.0,1034.0
R,U,"[1, 2]",1.0,3.0,0.1848900318145752,1.8698701858520508,0.6787450907507355,172.0,1035.0
B,L,"[1, 1]",1.0,4.0,0.1734449863433838,1.597188949584961,0.42630402881512536,172.0,1036.0
G,D,"[2, 1]",1.0,5.0,0.20079302787780762,1.796501874923706,0.5892445596192717,172.0,1037.0
R,U,"[1, 1]",1.0,6.0,0.21643590927124023,1.5853698253631592,0.35826363966856356,172.0,1038.0
,,"(3, 3)",,,,,,172.0,
R,U,"[2, 3]",1.0,1.0,0.18075203895568848,12.10002589225769,0.7247673939220536,,1039.0
B,L,"[2, 2]",1.0,2.0,0.18767714500427246,1.897186040878296,0.7054244605314313,173.0,1040.0
R,U,"[1, 2]",1.0,3.0,0.17540907859802246,1.4357490539550781,0.2582305464046504,173.0,1041.0
B,L,"[1, 1]",1.0,4.0,0.26826000213623047,2.0077309608459473,0.7488117620303565,173.0,1042.0
G,D,"[2, 1]",1.0,5.0,0.17374300956726074,1.4655909538269043,0.2815557942128813,173.0,1043.0
R,U,"[1, 1]",1.0,6.0,0.21317505836486816,1.6102418899536133,0.3917005599528642,173.0,1044.0
,,"(3, 3)",,,,,,173.0,
R,U,"[2, 3]",1.0,1.0,0.1452929973602295,2.913905143737793,0.2891242631430711,,1045.0
B,L,"[2, 2]",1.0,2.0,0.20852088928222656,1.6400949954986572,0.42907185630465855,174.0,1046.0
R,U,"[1, 2]",1.0,3.0,0.17633318901062012,1.7847731113433838,0.613672756287472,174.0,1047.0
B,L,"[1, 1]",1.0,4.0,0.18252086639404297,1.7927320003509521,0.5729746078067219,174.0,1048.0
G,D,"[2, 1]",1.0,5.0,0.19721388816833496,1.8952548503875732,0.7015823425813834,174.0,1049.0
R,U,"[1, 1]",1.0,6.0,0.17425990104675293,1.8933978080749512,0.7118042234195459,174.0,1050.0
,,"(3, 3)",,,,,,174.0,
R,U,"[2, 3]",1.0,1.0,0.20891809463500977,2.6965010166168213,0.3754500307387418,,1051.0
B,L,"[2, 2]",1.0,2.0,0.1989459991455078,1.5329859256744385,0.30834876339120865,175.0,1052.0
R,U,"[1, 2]",1.0,3.0,0.19950103759765625,1.5604469776153564,0.3688829664566296,175.0,1053.0
B,L,"[1, 1]",1.0,4.0,0.1809828281402588,1.4453659057617188,0.26438836053596115,175.0,1054.0
G,D,"[2, 1]",1.0,5.0,0.1653439998626709,1.7699811458587646,0.5840514906904624,175.0,1055.0
R,U,"[1, 1]",1.0,6.0,0.3154489994049072,1.636775016784668,0.30447365773667895,175.0,1056.0
,,"(3, 3)",,,,,,175.0,
R,U,"[2, 3]",1.0,1.0,0.25353288650512695,3.101344108581543,0.4390525245728373,,1057.0
B,L,"[2, 2]",1.0,2.0,0.18610906600952148,1.9296071529388428,0.7350692452047609,176.0,1058.0
R,U,"[1, 2]",1.0,3.0,0.18912410736083984,1.6609790325164795,0.4629590955253728,176.0,1059.0
G,D,"[2, 2]",1.0,4.0,0.22370600700378418,1.6006100177764893,0.36352194093336615,176.0,1060.0
R,U,"[1, 2]",1.0,5.0,0.6614091396331787,2.3012988567352295,0.6312683754431554,176.0,1061.0
R,U,"[0, 2]",0.0,5.0,0.7156260013580322,2.3738999366760254,0.65525445078004,176.0,1062.0
,,"(3, 3)",,,,,,176.0,
R,U,"[2, 3]",1.0,1.0,0.19967389106750488,35.62187099456787,0.5445643428385816,,1063.0
B,L,"[2, 2]",1.0,2.0,0.22560620307922363,1.9260218143463135,0.7036679066953956,177.0,1064.0
R,U,"[1, 2]",1.0,3.0,0.1852719783782959,1.581238031387329,0.38536013175747197,177.0,1065.0
B,L,"[1, 1]",1.0,4.0,0.20705890655517578,1.5773670673370361,0.36273164636562255,177.0,1066.0
G,D,"[2, 1]",1.0,5.0,0.21832609176635742,1.688621997833252,0.4679164916656119,177.0,1067.0
R,U,"[1, 1]",1.0,6.0,0.22150301933288574,1.695972204208374,0.48058320542064625,177.0,1068.0
,,"(3, 3)",,,,,,177.0,
R,U,"[2, 3]",1.0,1.0,0.3249969482421875,3.9516870975494385,0.5488797484677914,,1069.0
B,L,"[2, 2]",1.0,2.0,0.2254490852355957,1.7077341079711914,0.47350066976568445,178.0,1070.0
R,U,"[1, 2]",1.0,3.0,0.20752811431884766,1.80116605758667,0.5911072247223268,178.0,1071.0
B,L,"[1, 1]",1.0,4.0,0.20274806022644043,1.5928030014038086,0.38421131213546406,178.0,1072.0
G,D,"[2, 1]",1.0,5.0,0.31682395935058594,1.7502400875091553,0.4178529212930225,178.0,1073.0
R,U,"[1, 1]",1.0,6.0,0.26294803619384766,1.641369104385376,0.3759671440811012,178.0,1074.0
