button_choice,action_choice,coordinate_choice,reward,cumulative_reward,rt,total_trial_time,iti,block_n,trial_n
Y,R,"[3, 4]",-2.0,0.0,7.409587860107422,8.785992860794067,0.3373413616805519,0.0,1.0
Y,R,"[3, 5]",-1.0,-1.0,0.857457160949707,2.3724708557128906,0.49279458355672134,0.0,2.0
B,L,"[3, 4]",-2.0,-1.0,1.0916528701782227,2.406585931777954,0.2828781598156653,0.0,3.0
G,D,"[4, 4]",-1.0,-2.0,0.7261300086975098,2.234102964401245,0.5000206704007497,0.0,4.0
R,U,"[3, 4]",0.0,-2.0,0.4030280113220215,1.8755152225494385,0.45898935366044735,0.0,5.0
R,U,"[2, 4]",-1.0,-3.0,0.8936049938201904,2.1895198822021484,0.29877397945279516,0.0,6.0
,,"(3, 3)",,,,,,0.0,
Y,R,"[3, 4]",-1.0,-1.0,0.9337389469146729,6.0281970500946045,0.3438445505685654,,7.0
B,L,"[3, 3]",0.0,-1.0,0.23786497116088867,1.920922040939331,0.6810581009060765,1.0,8.0
G,D,"[4, 3]",-1.0,-2.0,0.18377399444580078,1.7651751041412354,0.5630717739584965,1.0,9.0
Y,R,"[4, 4]",-1.0,-3.0,0.2209920883178711,1.826098918914795,0.5891523257092951,1.0,10.0
B,L,"[4, 3]",0.0,-3.0,0.363415002822876,1.6922600269317627,0.3316367688752893,1.0,11.0
R,U,"[3, 3]",0.0,-3.0,0.28673410415649414,1.8905420303344727,0.6053926575861,1.0,12.0
,,"(3, 3)",,,,,,1.0,
G,D,"[4, 3]",-1.0,-1.0,0.7590880393981934,4.8808839321136475,0.30320639747825945,,13.0
G,D,"[5, 3]",-1.0,-1.0,0.02807903289794922,5.5775368213653564,0.43071583050807094,2.0,14.0
B,L,"[5, 2]",-1.0,-2.0,0.6943600177764893,2.0640969276428223,0.3616347864611276,2.0,15.0
G,D,"[6, 2]",0.0,-2.0,0.8479270935058594,2.4783411026000977,0.6396334318274399,2.0,16.0
R,U,"[5, 2]",0.0,-2.0,0.4946939945220947,1.9861140251159668,0.49257938387614286,2.0,17.0
Y,R,"[5, 3]",0.0,-2.0,0.3624241352081299,1.929697036743164,0.5721743855278466,2.0,18.0
,,"(3, 3)",,,,,,2.0,
G,D,"[4, 3]",-1.0,-1.0,0.9924178123474121,4.970931053161621,0.6763602477015056,,19.0
G,D,"[5, 3]",-1.0,-2.0,0.7087929248809814,2.03574800491333,0.3292565676944303,3.0,20.0
B,L,"[5, 2]",-1.0,-3.0,0.5235028266906738,2.1706788539886475,0.6496184925233148,3.0,21.0
Y,R,"[5, 3]",0.0,-3.0,0.8381779193878174,2.4493908882141113,0.5989963604730795,3.0,22.0
R,U,"[4, 3]",0.0,-3.0,0.4062349796295166,2.131436824798584,0.7136197941157447,3.0,23.0
R,U,"[3, 3]",0.0,-3.0,0.48906493186950684,2.146155834197998,0.6432873384535549,3.0,24.0
,,"(3, 3)",,,,,,3.0,
G,D,"[4, 3]",-1.0,-1.0,0.8870408535003662,4.630306959152222,0.4406196767483127,,25.0
Y,R,"[4, 4]",-1.0,-2.0,0.2825310230255127,1.8975739479064941,0.6046748375756985,4.0,26.0
B,L,"[4, 3]",0.0,-2.0,0.24342989921569824,1.617238998413086,0.37241639432000045,4.0,27.0
R,U,"[3, 3]",0.0,-2.0,0.48494815826416016,1.9721200466156006,0.49435809200529407,4.0,28.0
B,L,"[3, 2]",1.0,-1.0,0.3293778896331787,2.066617012023926,0.7272755966405031,4.0,29.0
B,L,"[3, 1]",1.0,0.0,0.8568069934844971,2.116567850112915,0.26110028035286437,4.0,30.0
,,"(3, 3)",,,,,,4.0,
R,U,"[2, 3]",-1.0,-1.0,0.928333044052124,4.399049997329712,0.6929725745680375,,31.0
B,L,"[2, 2]",1.0,0.0,0.3933579921722412,1.8448691368103027,0.45516591715353294,5.0,32.0
B,L,"[2, 1]",1.0,1.0,0.445465087890625,1.704571008682251,0.2598693284364447,5.0,33.0
B,L,"[2, 0]",0.0,1.0,0.7084779739379883,2.0657989978790283,0.3589741662788749,5.0,34.0
Y,R,"[2, 1]",0.0,1.0,0.6050691604614258,2.1885809898376465,0.597273127916409,5.0,35.0
G,D,"[3, 1]",1.0,2.0,0.2991750240325928,1.6038529872894287,0.2848912622521829,5.0,36.0
,,"(3, 3)",,,,,,5.0,
G,D,"[4, 3]",-2.0,0.0,1.2993769645690918,4.80256199836731,0.42068577036028587,,37.0
G,D,"[5, 3]",-1.0,-1.0,0.8350739479064941,2.2548139095306396,0.4086429019510038,6.0,38.0
B,L,"[5, 2]",-1.0,-2.0,0.26563000679016113,1.7051358222961426,0.43043416510915056,6.0,39.0
Y,R,"[5, 3]",0.0,-2.0,0.20358705520629883,1.7949647903442383,0.5752813298402222,6.0,40.0
Y,R,"[5, 4]",-1.0,-3.0,0.21818900108337402,1.69417405128479,0.4695834113317,6.0,41.0
R,U,"[4, 4]",-1.0,-4.0,0.24246597290039062,1.630316972732544,0.3834224730781775,6.0,42.0
,,"(3, 3)",,,,,,6.0,
G,D,"[4, 3]",-1.0,-1.0,0.8883540630340576,4.033299207687378,0.39999425648165077,,43.0
B,L,"[4, 2]",-1.0,-2.0,0.2289888858795166,1.6040410995483398,0.37080857355723174,7.0,44.0
Y,R,"[4, 3]",0.0,-2.0,0.44689393043518066,1.847517967224121,0.36845883974131166,7.0,45.0
Y,R,"[4, 4]",-1.0,-3.0,0.30115294456481934,1.766517162322998,0.45159475125623666,7.0,46.0
R,U,"[3, 4]",-1.0,-4.0,0.23133015632629395,1.8133699893951416,0.5648303888005718,7.0,47.0
G,D,"[4, 4]",0.0,-4.0,0.2968919277191162,1.9947009086608887,0.6927038504926026,7.0,48.0
,,"(3, 3)",,,,,,7.0,
G,D,"[4, 3]",-1.0,-1.0,0.8556699752807617,3.679347038269043,0.37260937651022275,,49.0
B,L,"[4, 2]",-1.0,-2.0,0.190324068069458,1.549360990524292,0.3556023649206843,8.0,50.0
Y,R,"[4, 3]",0.0,-2.0,0.5454249382019043,2.0201549530029297,0.47532308195071504,8.0,51.0
R,U,"[3, 3]",0.0,-2.0,0.3110361099243164,1.6314899921417236,0.32372878728256166,8.0,52.0
R,U,"[2, 3]",-1.0,-3.0,0.3566470146179199,1.811939001083374,0.45202126381573343,8.0,53.0
Y,R,"[2, 4]",-1.0,-4.0,0.2668759822845459,1.6674251556396484,0.3863478636982226,8.0,54.0
,,"(3, 3)",,,,,,8.0,
G,D,"[4, 3]",-1.0,-1.0,0.7313599586486816,3.8155789375305176,0.7348419023980588,,55.0
G,D,"[5, 3]",-1.0,-2.0,0.2586669921875,1.7359859943389893,0.47113369566406627,9.0,56.0
B,L,"[5, 2]",-1.0,-3.0,0.19181585311889648,1.621809959411621,0.42654996678297974,9.0,57.0
Y,R,"[5, 3]",0.0,-3.0,0.2510340213775635,1.6246659755706787,0.3680720110957234,9.0,58.0
Y,R,"[5, 4]",-1.0,-4.0,0.2177128791809082,1.9556539058685303,0.7234033075868529,9.0,59.0
R,U,"[4, 4]",-1.0,-5.0,0.20970797538757324,1.9185972213745117,0.7086346959948955,9.0,60.0
,,"(3, 3)",,,,,,9.0,
G,D,"[4, 3]",-1.0,-1.0,0.807790994644165,4.859400033950806,0.4350274533589146,,61.0
B,L,"[4, 2]",-1.0,-2.0,0.23076295852661133,1.7135250568389893,0.48199005659693206,10.0,62.0
Y,R,"[4, 3]",0.0,-2.0,0.203995943069458,1.4738919734954834,0.2559914910145196,10.0,63.0
Y,R,"[4, 4]",-1.0,-3.0,0.26453495025634766,1.6079249382019043,0.3305095405796383,10.0,64.0
R,U,"[3, 4]",-1.0,-4.0,0.17379093170166016,1.6201550960540771,0.4339427241127304,10.0,65.0
R,U,"[2, 4]",-1.0,-5.0,0.2332758903503418,1.7046561241149902,0.4552557526629918,10.0,66.0
,,"(3, 3)",,,,,,10.0,
G,D,"[4, 3]",-1.0,-1.0,0.5266611576080322,3.414680004119873,0.41980045832852597,,67.0
B,L,"[4, 2]",-1.0,-1.0,0.06194305419921875,5.642518997192383,0.42909496076685816,11.0,68.0
Y,R,"[4, 3]",0.0,-1.0,0.8474349975585938,2.2745299339294434,0.43703314067614535,11.0,69.0
Y,R,"[4, 4]",-1.0,-2.0,0.38439011573791504,1.9138720035552979,0.5176797771709691,11.0,70.0
B,L,"[4, 3]",0.0,-2.0,0.19872283935546875,1.8235838413238525,0.6244091805210131,11.0,71.0
B,L,"[4, 2]",0.0,-2.0,0.19923114776611328,1.5318520069122314,0.3399144975690938,11.0,72.0
,,"(3, 3)",,,,,,11.0,
B,L,"[3, 2]",1.0,1.0,0.6681928634643555,3.6611430644989014,0.3344123607596708,,73.0
B,L,"[3, 1]",1.0,2.0,0.35702991485595703,1.9121081829071045,0.5462927912593372,12.0,74.0
B,L,"[3, 0]",0.0,2.0,0.4465961456298828,1.7211098670959473,0.26783423950359425,12.0,75.0
R,U,"[2, 0]",0.0,2.0,0.7408230304718018,2.264591932296753,0.5154425098345587,12.0,76.0
R,U,"[1, 0]",0.0,2.0,0.3053748607635498,2.0037407875061035,0.6857788810827656,12.0,77.0
R,U,"[0, 0]",0.0,2.0,0.2744460105895996,1.7615389823913574,0.4807976068086286,12.0,78.0
,,"(3, 3)",,,,,,12.0,
G,D,"[4, 3]",-2.0,0.0,1.3616840839385986,4.327757120132446,0.42543693927359927,,79.0
G,D,"[5, 3]",-1.0,-1.0,0.3102719783782959,1.9856700897216797,0.6608063729409133,13.0,80.0
B,L,"[5, 2]",-1.0,-2.0,0.22808098793029785,1.6236579418182373,0.40141055300289596,13.0,81.0
Y,R,"[5, 3]",0.0,-2.0,0.2078838348388672,1.8900699615478516,0.6745231630730086,13.0,82.0
Y,R,"[5, 4]",-1.0,-3.0,0.1015939712524414,1.49338698387146,0.3849610867819764,13.0,83.0
R,U,"[4, 4]",-1.0,-4.0,0.2436981201171875,1.8054699897766113,0.5570194406492885,13.0,84.0
,,"(3, 3)",,,,,,13.0,
Y,R,"[3, 4]",-1.0,-1.0,0.9815998077392578,3.658867120742798,0.34973682191882455,,85.0
R,U,"[2, 4]",-1.0,-2.0,0.24498200416564941,1.5942320823669434,0.3438990924776307,14.0,86.0
G,D,"[3, 4]",0.0,-2.0,0.18571901321411133,1.7200260162353516,0.5303057073300681,14.0,87.0
G,D,"[4, 4]",-1.0,-3.0,0.1934831142425537,1.53562593460083,0.33281413317134945,14.0,88.0
B,L,"[4, 3]",-1.0,-4.0,0.21626687049865723,1.8348040580749512,0.6006416382333444,14.0,89.0
Y,R,"[4, 4]",-2.0,-4.0,1.0578370094299316,2.5293478965759277,0.43011186571770166,14.0,90.0
,,"(3, 3)",,,,,,14.0,
R,U,"[2, 3]",-2.0,0.0,1.2996039390563965,3.910275936126709,0.4406835871008664,,91.0
R,U,"[1, 3]",1.0,1.0,0.7086999416351318,1.9817960262298584,0.27264112270846386,15.0,92.0
R,U,"[0, 3]",0.0,1.0,0.27951693534851074,1.9499092102050781,0.6721854383128927,15.0,93.0
Y,R,"[0, 4]",0.0,1.0,0.39253687858581543,2.0945138931274414,0.6998624062974538,15.0,94.0
Y,R,"[0, 5]",0.0,1.0,0.21753907203674316,1.5688459873199463,0.3524365707201032,15.0,95.0
Y,R,"[0, 6]",0.0,1.0,0.361083984375,1.6740150451660156,0.3099518593114216,15.0,96.0
,,"(3, 3)",,,,,,15.0,
G,D,"[4, 3]",-2.0,0.0,1.044990062713623,4.119610071182251,0.562753625330715,,97.0
R,U,"[3, 3]",0.0,0.0,0.28599095344543457,1.9329731464385986,0.6456950517500626,16.0,98.0
R,U,"[2, 3]",-1.0,-1.0,0.1706700325012207,1.5700280666351318,0.399351102675577,16.0,99.0
Y,R,"[2, 4]",-1.0,-2.0,0.3561880588531494,1.6938040256500244,0.3263910303116165,16.0,100.0
G,D,"[3, 4]",-1.0,-3.0,0.23698210716247559,1.576535940170288,0.33628427819968865,16.0,101.0
B,L,"[3, 3]",0.0,-3.0,0.26269102096557617,1.8604180812835693,0.5965579181481186,16.0,102.0
,,"(3, 3)",,,,,,16.0,
B,L,"[3, 2]",1.0,1.0,0.5673110485076904,3.4961249828338623,0.4430204364016482,,103.0
B,L,"[3, 1]",1.0,2.0,0.26922011375427246,1.9558930397033691,0.6820213737589252,17.0,104.0
B,L,"[3, 0]",0.0,2.0,0.3082468509674072,1.77473783493042,0.45687730123016906,17.0,105.0
Y,R,"[3, 1]",0.0,2.0,0.5536651611328125,2.291379928588867,0.7480548338375486,17.0,106.0
Y,R,"[3, 2]",0.0,2.0,0.20985102653503418,1.6561450958251953,0.43784464149576047,17.0,107.0
G,D,"[4, 2]",-1.0,1.0,0.8129580020904541,2.4088029861450195,0.5798572888956957,17.0,108.0
,,"(3, 3)",,,,,,17.0,
Y,R,"[3, 4]",-1.0,-1.0,0.6098480224609375,3.5972518920898438,0.6936329123519457,,109.0
B,L,"[3, 3]",0.0,-1.0,0.1640000343322754,1.4103209972381592,0.25462083792892826,18.0,110.0
B,L,"[3, 2]",1.0,0.0,0.34260106086730957,2.06337308883667,0.7175943180691718,18.0,111.0
B,L,"[3, 1]",1.0,1.0,0.30385303497314453,1.833050012588501,0.5172815684054852,18.0,112.0
B,L,"[3, 0]",0.0,1.0,0.3773789405822754,1.8835201263427734,0.5008354398313322,18.0,113.0
G,D,"[4, 0]",0.0,1.0,0.9094018936157227,2.605710983276367,0.6897415553453256,18.0,114.0
,,"(3, 3)",,,,,,18.0,
R,U,"[2, 3]",-2.0,0.0,1.00984787940979,4.047034978866577,0.687412250183064,,115.0
R,U,"[1, 3]",1.0,1.0,0.27768898010253906,1.8342740535736084,0.554827330447706,19.0,116.0
R,U,"[0, 3]",0.0,1.0,0.217210054397583,1.8154048919677734,0.5869028543501815,19.0,117.0
G,D,"[1, 3]",0.0,1.0,0.32460784912109375,1.9580888748168945,0.6282547868047428,19.0,118.0
G,D,"[2, 3]",0.0,1.0,0.2217729091644287,1.611043930053711,0.38958598211997464,19.0,119.0
G,D,"[3, 3]",0.0,1.0,0.5030841827392578,1.9261791706085205,0.43253489756910707,19.0,120.0
,,"(3, 3)",,,,,,19.0,
B,L,"[3, 2]",1.0,1.0,0.9872298240661621,3.755215883255005,0.6208963437674808,,121.0
B,L,"[3, 1]",1.0,2.0,0.21006393432617188,1.819490909576416,0.6070689230736803,20.0,122.0
B,L,"[3, 0]",0.0,2.0,0.30051398277282715,1.6837430000305176,0.37441737228853794,20.0,123.0
Y,R,"[3, 1]",0.0,2.0,0.3819708824157715,1.983978033065796,0.6081318889978551,20.0,124.0
Y,R,"[3, 2]",0.0,2.0,0.19377803802490234,1.5737049579620361,0.3822012809797438,20.0,125.0
Y,R,"[3, 3]",-2.0,2.0,1.097593069076538,2.577763080596924,0.44314703407313755,20.0,126.0
,,"(3, 3)",,,,,,20.0,
B,L,"[3, 2]",1.0,1.0,0.7487001419067383,3.2638731002807617,0.6070247977840899,,127.0
B,L,"[3, 1]",1.0,2.0,0.2563610076904297,1.7278358936309814,0.4682278544870501,21.0,128.0
B,L,"[3, 0]",0.0,2.0,0.3081820011138916,1.6153409481048584,0.3004007548953722,21.0,129.0
G,D,"[4, 0]",0.0,2.0,0.48475003242492676,1.9730861186981201,0.4900998760489114,21.0,130.0
G,D,"[5, 0]",0.0,2.0,0.19698596000671387,1.6096630096435547,0.4165348224258668,21.0,131.0
G,D,"[6, 0]",0.0,2.0,0.46724390983581543,1.970139980316162,0.5032350721216976,21.0,132.0
,,"(3, 3)",,,,,,21.0,
Y,R,"[3, 4]",-2.0,0.0,1.0468170642852783,3.9492149353027344,0.519432178798055,,133.0
Y,R,"[3, 5]",-1.0,-1.0,0.42070794105529785,1.6987049579620361,0.2681277241217559,22.0,134.0
B,L,"[3, 4]",0.0,-1.0,0.2480170726776123,1.7969849109649658,0.5481501210832989,22.0,135.0
B,L,"[3, 3]",0.0,-1.0,0.19497394561767578,1.7215869426727295,0.5196887766827905,22.0,136.0
B,L,"[3, 2]",1.0,0.0,0.33170604705810547,1.774454116821289,0.4275749723084952,22.0,137.0
B,L,"[3, 1]",1.0,1.0,0.22006607055664062,1.4996650218963623,0.2774465642374079,22.0,138.0
,,"(3, 3)",,,,,,22.0,
B,L,"[3, 2]",1.0,1.0,0.5070478916168213,3.4480881690979004,0.5753916871763121,,139.0
B,L,"[3, 1]",1.0,2.0,0.20074701309204102,1.5000360012054443,0.29250710557031073,23.0,140.0
B,L,"[3, 0]",0.0,2.0,0.34785890579223633,1.741476058959961,0.4003615924536011,23.0,141.0
B,L,"[3, 0]",0.0,2.0,0.24594593048095703,1.7170710563659668,0.46749143456314235,23.0,142.0
G,D,"[4, 0]",0.0,2.0,0.4423069953918457,1.9630818367004395,0.513793990820534,23.0,143.0
G,D,"[5, 0]",0.0,2.0,0.1757199764251709,1.5769119262695312,0.39097198071683925,23.0,144.0
,,"(3, 3)",,,,,,23.0,
R,U,"[2, 3]",-1.0,-1.0,0.6264951229095459,3.633763074874878,0.6743603093965955,,145.0
G,D,"[3, 3]",0.0,-1.0,0.16909289360046387,1.6498401165008545,0.47452430766373394,24.0,146.0
G,D,"[4, 3]",-1.0,-2.0,0.23688793182373047,1.6939401626586914,0.4517483461753166,24.0,147.0
B,L,"[4, 2]",-1.0,-3.0,0.22790193557739258,1.8890349864959717,0.6576963962272766,24.0,148.0
Y,R,"[4, 3]",0.0,-3.0,0.2210090160369873,1.6431641578674316,0.41755154611720674,24.0,149.0
Y,R,"[4, 4]",-1.0,-4.0,0.1779780387878418,1.4551360607147217,0.2728098243175242,24.0,150.0
,,"(3, 3)",,,,,,24.0,
B,L,"[3, 2]",1.0,1.0,0.4866361618041992,2.9862210750579834,0.3254997645065042,,151.0
B,L,"[3, 1]",1.0,2.0,0.20861291885375977,1.6046791076660156,0.39689460267788323,25.0,152.0
B,L,"[3, 0]",0.0,2.0,0.2009890079498291,1.6238369941711426,0.4041568579663679,25.0,153.0
B,L,"[3, 0]",0.0,2.0,0.23241186141967773,1.5788638591766357,0.349689154090459,25.0,154.0
Y,R,"[3, 1]",0.0,2.0,0.21959185600280762,1.530735969543457,0.3138976974306232,25.0,155.0
Y,R,"[3, 2]",0.0,2.0,0.19588398933410645,1.7533209323883057,0.5502692571268868,25.0,156.0
,,"(3, 3)",,,,,,25.0,
B,L,"[3, 2]",1.0,1.0,0.49475598335266113,3.195044994354248,0.5120154261244844,,157.0
B,L,"[3, 1]",1.0,2.0,0.19292616844177246,1.774644136428833,0.6032866437069528,26.0,158.0
B,L,"[3, 0]",0.0,2.0,0.23122596740722656,1.6517269611358643,0.42192358380459033,26.0,159.0
Y,R,"[3, 1]",0.0,2.0,0.8114900588989258,2.538681983947754,0.726912066713503,26.0,160.0
Y,R,"[3, 2]",0.0,2.0,0.22413992881774902,1.8128688335418701,0.5901065218250711,26.0,161.0
B,L,"[3, 1]",0.0,2.0,0.24244189262390137,1.584630012512207,0.3415415684954169,26.0,162.0
,,"(3, 3)",,,,,,26.0,
G,D,"[4, 3]",-1.0,-1.0,0.5686187744140625,3.1536951065063477,0.3953499443703021,,163.0
B,L,"[4, 2]",-1.0,-2.0,0.11432695388793945,1.8177590370178223,0.7126933121502501,27.0,164.0
Y,R,"[4, 3]",0.0,-2.0,0.1772007942199707,1.8629119396209717,0.675732022358684,27.0,165.0
Y,R,"[4, 4]",-1.0,-2.0,0.08969306945800781,5.687134027481079,0.47985117957203793,27.0,166.0
Y,R,"[4, 5]",-1.0,-3.0,0.28936290740966797,1.801995038986206,0.5150434871741527,27.0,167.0
R,U,"[3, 5]",-1.0,-4.0,0.19933795928955078,1.5320870876312256,0.3140651420836652,27.0,168.0
,,"(3, 3)",,,,,,27.0,
B,L,"[3, 2]",1.0,1.0,0.4427061080932617,3.282349109649658,0.47965004477354356,,169.0
B,L,"[3, 1]",1.0,2.0,0.1786479949951172,1.5809869766235352,0.3941764623301794,28.0,170.0
B,L,"[3, 0]",0.0,2.0,0.34443092346191406,1.6281559467315674,0.2891438778248799,28.0,171.0
B,L,"[3, 0]",0.0,2.0,0.4030039310455322,1.8408069610595703,0.4463861062331054,28.0,172.0
B,L,"[3, 0]",-1.0,2.0,0.09208798408508301,5.850321054458618,0.6133209403472504,28.0,173.0
B,L,"[3, 0]",0.0,2.0,0.7452170848846436,2.073503017425537,0.32053475870115117,28.0,174.0
,,"(3, 3)",,,,,,28.0,
B,L,"[3, 2]",1.0,1.0,0.6773109436035156,3.5652339458465576,0.5022052150125131,,175.0
B,L,"[3, 1]",1.0,2.0,0.23512601852416992,1.6901309490203857,0.4424527596998778,29.0,176.0
B,L,"[3, 0]",0.0,2.0,0.3827660083770752,1.782060146331787,0.4081385625217909,29.0,177.0
Y,R,"[3, 1]",0.0,2.0,0.2755398750305176,1.6178820133209229,0.34284072418950634,29.0,178.0
Y,R,"[3, 2]",0.0,2.0,0.23414111137390137,1.8278172016143799,0.6036051776502817,29.0,179.0
B,L,"[3, 1]",0.0,2.0,0.218858003616333,1.8435640335083008,0.6305745148663277,29.0,180.0
,,"(3, 3)",,,,,,29.0,
Y,R,"[3, 4]",-1.0,-1.0,0.6466648578643799,3.2965478897094727,0.3274520126360908,,181.0
B,L,"[3, 3]",0.0,-1.0,0.3213009834289551,1.679961919784546,0.3739765001324871,30.0,182.0
B,L,"[3, 2]",1.0,0.0,0.20119595527648926,1.7246549129486084,0.5152312085121318,30.0,183.0
B,L,"[3, 1]",1.0,1.0,0.24204611778259277,1.9234790802001953,0.671797261458347,30.0,184.0
B,L,"[3, 0]",0.0,1.0,0.23766589164733887,1.6066310405731201,0.3622457916603078,30.0,185.0
B,L,"[3, 0]",0.0,1.0,0.2223818302154541,1.7586979866027832,0.5373685613400293,30.0,186.0
,,"(3, 3)",,,,,,30.0,
B,L,"[3, 2]",1.0,1.0,0.5097639560699463,3.170524835586548,0.49161432019829865,,187.0
B,L,"[3, 1]",1.0,2.0,0.1991870403289795,1.6920688152313232,0.48360664105199264,31.0,188.0
B,L,"[3, 0]",0.0,2.0,0.2553398609161377,1.5853300094604492,0.31905948775691695,31.0,189.0
B,L,"[3, 0]",0.0,2.0,0.19615411758422852,1.6357660293579102,0.43805754035888195,31.0,190.0
B,L,"[3, 0]",-1.0,2.0,0.017947912216186523,5.567281007766724,0.42212392580571123,31.0,191.0
B,L,"[3, 0]",0.0,2.0,0.3532378673553467,1.7135131359100342,0.36899681133757467,31.0,192.0
,,"(3, 3)",,,,,,31.0,
B,L,"[3, 2]",1.0,1.0,0.6322970390319824,3.6193959712982178,0.48832103623995765,,193.0
B,L,"[3, 1]",1.0,2.0,0.2299480438232422,1.6306209564208984,0.40227493043158374,32.0,194.0
B,L,"[3, 0]",0.0,2.0,0.46476197242736816,2.0945639610290527,0.6302675023937685,32.0,195.0
B,L,"[3, 0]",0.0,2.0,0.8130409717559814,2.5289361476898193,0.709025158856942,32.0,196.0
Y,R,"[3, 1]",0.0,2.0,0.4652388095855713,1.9611430168151855,0.5037928162191265,32.0,197.0
Y,R,"[3, 2]",0.0,2.0,0.30068111419677734,1.8234198093414307,0.527159352826563,32.0,198.0
,,"(3, 3)",,,,,,32.0,
B,L,"[3, 2]",1.0,1.0,0.5305800437927246,3.2872979640960693,0.36487759079457227,,199.0
B,L,"[3, 1]",1.0,2.0,0.2531280517578125,1.7983388900756836,0.5463264379212714,33.0,200.0
B,L,"[3, 0]",0.0,2.0,0.33225202560424805,1.8152389526367188,0.4780214596274822,33.0,201.0
B,L,"[3, 0]",0.0,2.0,0.2702491283416748,1.6885418891906738,0.43360652156494883,33.0,202.0
Y,R,"[3, 1]",0.0,2.0,0.27951788902282715,1.695214033126831,0.41209469048787645,33.0,203.0
Y,R,"[3, 2]",0.0,2.0,0.16825199127197266,1.723332166671753,0.568596270492473,33.0,204.0
,,"(3, 3)",,,,,,33.0,
B,L,"[3, 2]",1.0,1.0,0.43520498275756836,3.4789350032806396,0.6473629134272922,,205.0
B,L,"[3, 1]",1.0,2.0,0.2096409797668457,1.9300239086151123,0.7106587475413624,34.0,206.0
B,L,"[3, 0]",0.0,2.0,0.24196982383728027,1.895043134689331,0.6559577570713298,34.0,207.0
B,L,"[3, 0]",0.0,2.0,0.1772139072418213,1.7600550651550293,0.5827790435326496,34.0,208.0
Y,R,"[3, 1]",0.0,2.0,0.1924140453338623,1.6520330905914307,0.45170563903929173,34.0,209.0
Y,R,"[3, 2]",0.0,2.0,0.22084689140319824,1.9398229122161865,0.7078430154158176,34.0,210.0
,,"(3, 3)",,,,,,34.0,
B,L,"[3, 2]",1.0,1.0,0.6842920780181885,3.271821975708008,0.5132739281965913,,211.0
B,L,"[3, 1]",1.0,2.0,0.2508230209350586,1.7486939430236816,0.47874713443101036,35.0,212.0
B,L,"[3, 0]",0.0,2.0,0.3198978900909424,1.664086103439331,0.34309134422691234,35.0,213.0
G,D,"[4, 0]",0.0,2.0,0.45308995246887207,2.0701911449432373,0.6293892742566214,35.0,214.0
G,D,"[5, 0]",0.0,2.0,0.21210503578186035,1.6009011268615723,0.38061060398831664,35.0,215.0
R,U,"[4, 0]",0.0,2.0,0.3687458038330078,2.0246670246124268,0.6550430830084909,35.0,216.0
,,"(3, 3)",,,,,,35.0,
B,L,"[3, 2]",1.0,1.0,0.611954927444458,3.3503000736236572,0.38900577055639324,,217.0
B,L,"[3, 1]",1.0,2.0,0.2685070037841797,1.682884931564331,0.4052490361879742,36.0,218.0
B,L,"[3, 0]",0.0,2.0,0.3386411666870117,1.9461967945098877,0.6012346551908849,36.0,219.0
G,D,"[4, 0]",0.0,2.0,0.1894240379333496,1.9217419624328613,0.7233830689422909,36.0,220.0
G,D,"[5, 0]",0.0,2.0,0.2617909908294678,1.8287880420684814,0.5684823132826242,36.0,221.0
R,U,"[4, 0]",0.0,2.0,0.22526812553405762,1.7487211227416992,0.5175164689478637,36.0,222.0
,,"(3, 3)",,,,,,36.0,
B,L,"[3, 2]",1.0,1.0,0.4997670650482178,3.326004981994629,0.6100922622955276,,223.0
B,L,"[3, 1]",1.0,2.0,0.15389108657836914,1.7427010536193848,0.586170794669688,37.0,224.0
B,L,"[3, 0]",0.0,2.0,0.4008340835571289,2.1456539630889893,0.7483111556699182,37.0,225.0
Y,R,"[3, 1]",0.0,2.0,0.345059871673584,1.8170790672302246,0.46557104433782703,37.0,226.0
Y,R,"[3, 2]",0.0,2.0,0.2662780284881592,1.8253271579742432,0.5574874212688249,37.0,227.0
G,D,"[4, 2]",-1.0,1.0,0.3436770439147949,1.7309401035308838,0.38874449105218795,37.0,228.0
,,"(3, 3)",,,,,,37.0,
B,L,"[3, 2]",1.0,1.0,0.5184838771820068,3.0537569522857666,0.3096271732519637,,229.0
B,L,"[3, 1]",1.0,2.0,0.263700008392334,1.9446420669555664,0.6705401215801475,38.0,230.0
B,L,"[3, 0]",0.0,2.0,0.23656988143920898,1.825850009918213,0.5796703640903424,38.0,231.0
Y,R,"[3, 1]",0.0,2.0,0.20962190628051758,1.9042961597442627,0.683916852675964,38.0,232.0
Y,R,"[3, 2]",0.0,2.0,0.1955127716064453,1.6233391761779785,0.4241483731886017,38.0,233.0
R,U,"[2, 2]",1.0,3.0,0.28291797637939453,1.5884339809417725,0.29615320033627845,38.0,234.0
,,"(3, 3)",,,,,,38.0,
B,L,"[3, 2]",1.0,1.0,0.6472270488739014,3.6943750381469727,0.6900575996132998,,235.0
B,L,"[3, 1]",1.0,2.0,0.46767592430114746,1.8721351623535156,0.3959295688786111,39.0,236.0
B,L,"[3, 0]",0.0,2.0,0.27594709396362305,1.9901800155639648,0.7191168320487691,39.0,237.0
Y,R,"[3, 1]",0.0,2.0,0.22417902946472168,1.574146032333374,0.3435817228620226,39.0,238.0
R,U,"[2, 1]",1.0,3.0,0.352506160736084,2.0704691410064697,0.7136845985322755,39.0,239.0
R,U,"[1, 1]",-1.0,2.0,0.4481990337371826,2.218756914138794,0.7491111686824916,39.0,240.0
,,"(3, 3)",,,,,,39.0,
B,L,"[3, 2]",1.0,1.0,0.6204099655151367,3.2271759510040283,0.5433335204464811,,241.0
B,L,"[3, 1]",1.0,2.0,0.27153515815734863,1.8592150211334229,0.5858728860944946,40.0,242.0
Y,R,"[3, 2]",0.0,2.0,0.7454540729522705,2.094966173171997,0.34783887244353395,40.0,243.0
R,U,"[2, 2]",1.0,3.0,0.373521089553833,1.9234440326690674,0.5377645673831554,40.0,244.0
G,D,"[3, 2]",0.0,3.0,0.4069359302520752,1.9834320545196533,0.5711986363267498,40.0,245.0
B,L,"[3, 1]",0.0,3.0,0.43358707427978516,1.9321250915527344,0.5033936511634134,40.0,246.0
,,"(3, 3)",,,,,,40.0,
B,L,"[3, 2]",1.0,1.0,0.9397001266479492,3.7461230754852295,0.44957291306874647,,247.0
B,L,"[3, 1]",1.0,2.0,0.35846495628356934,1.9480900764465332,0.5808847039833973,41.0,248.0
Y,R,"[3, 2]",0.0,2.0,0.3875389099121094,1.804443120956421,0.40215515011108,41.0,249.0
R,U,"[2, 2]",1.0,3.0,0.42758798599243164,1.9763000011444092,0.5450965317977048,41.0,250.0
B,L,"[2, 1]",1.0,4.0,0.4721188545227051,1.73042893409729,0.2593069488281466,41.0,251.0
B,L,"[2, 0]",0.0,4.0,0.49973511695861816,1.947735071182251,0.4567342922778103,41.0,252.0
,,"(3, 3)",,,,,,41.0,
B,L,"[3, 2]",1.0,1.0,0.6800248622894287,3.8751280307769775,0.6651287411160065,,253.0
B,L,"[3, 1]",1.0,2.0,0.2395780086517334,1.8093650341033936,0.5579833775642226,42.0,254.0
Y,R,"[3, 2]",0.0,2.0,0.43963098526000977,1.8661651611328125,0.4242211745054064,42.0,255.0
R,U,"[2, 2]",1.0,3.0,0.25200605392456055,1.8941431045532227,0.6346371187850529,42.0,256.0
B,L,"[2, 1]",1.0,4.0,0.2581310272216797,1.7644059658050537,0.4994557861898631,42.0,257.0
B,L,"[2, 0]",0.0,4.0,0.31963014602661133,1.9130640029907227,0.5790438691235049,42.0,258.0
,,"(3, 3)",,,,,,42.0,
B,L,"[3, 2]",1.0,1.0,0.642085075378418,3.6575839519500732,0.7033501536057526,,259.0
B,L,"[3, 1]",1.0,2.0,0.2201850414276123,1.7057249546051025,0.4758937100016032,43.0,260.0
Y,R,"[3, 2]",0.0,2.0,0.40507984161376953,1.9013950824737549,0.4939909763115589,43.0,261.0
R,U,"[2, 2]",1.0,3.0,0.23114800453186035,1.490015983581543,0.2510688822844724,43.0,262.0
B,L,"[2, 1]",1.0,4.0,0.38921689987182617,1.983752965927124,0.5841878497821269,43.0,263.0
B,L,"[2, 0]",0.0,4.0,0.2221062183380127,1.6259620189666748,0.3939024053148045,43.0,264.0
,,"(3, 3)",,,,,,43.0,
B,L,"[3, 2]",1.0,1.0,0.5930299758911133,3.5970840454101562,0.5741742497507996,,265.0
B,L,"[3, 1]",1.0,2.0,0.21219801902770996,1.889354944229126,0.6800398580011455,44.0,266.0
R,U,"[2, 1]",1.0,3.0,0.8784980773925781,2.360105037689209,0.4738213463929073,44.0,267.0
R,U,"[1, 1]",-1.0,2.0,0.34871482849121094,2.0101799964904785,0.6505405371427415,44.0,268.0
Y,R,"[1, 2]",1.0,3.0,0.1781141757965088,1.789504051208496,0.5902260182712413,44.0,269.0
Y,R,"[1, 3]",1.0,4.0,0.4106919765472412,1.8651859760284424,0.455486921168998,44.0,270.0
,,"(3, 3)",,,,,,44.0,
B,L,"[3, 2]",1.0,1.0,0.5974159240722656,4.83046817779541,0.6527145758537007,,271.0
B,L,"[3, 1]",1.0,2.0,0.2669699192047119,1.9072599411010742,0.6264522384341462,45.0,272.0
R,U,"[2, 1]",1.0,3.0,0.9600560665130615,2.3057098388671875,0.3489971568414007,45.0,273.0
Y,R,"[2, 2]",1.0,4.0,0.3555290699005127,1.8542540073394775,0.5033347131184283,45.0,274.0
G,D,"[3, 2]",0.0,4.0,0.37235116958618164,2.0666279792785645,0.6862858715494491,45.0,275.0
B,L,"[3, 1]",0.0,4.0,0.23903918266296387,1.6592450141906738,0.4125909112841258,45.0,276.0
,,"(3, 3)",,,,,,45.0,
B,L,"[3, 2]",1.0,1.0,0.546259880065918,3.6155200004577637,0.6611531485371966,,277.0
B,L,"[3, 1]",1.0,2.0,0.21954083442687988,1.596501111984253,0.37464020995442726,46.0,278.0
Y,R,"[3, 2]",0.0,2.0,0.5104291439056396,2.009186029434204,0.5003831396498812,46.0,279.0
R,U,"[2, 2]",1.0,3.0,0.525982141494751,2.025516986846924,0.4925846220341427,46.0,280.0
G,D,"[3, 2]",0.0,3.0,0.8084158897399902,2.4783778190612793,0.6710069670774557,46.0,281.0
B,L,"[3, 1]",0.0,3.0,0.2619619369506836,1.5952579975128174,0.33312882620658923,46.0,282.0
,,"(3, 3)",,,,,,46.0,
B,L,"[3, 2]",1.0,1.0,0.5878689289093018,3.279276132583618,0.4625423652625746,,283.0
B,L,"[3, 1]",1.0,2.0,0.3384737968444824,1.5937929153442383,0.2565210788527412,47.0,284.0
R,U,"[2, 1]",1.0,3.0,0.5704920291900635,2.076265811920166,0.4993193441486718,47.0,285.0
Y,R,"[2, 2]",1.0,4.0,0.4683048725128174,1.784916877746582,0.3177748622608182,47.0,286.0
Y,R,"[2, 3]",-1.0,3.0,0.6360650062561035,2.20686411857605,0.5574963830594146,47.0,287.0
B,L,"[2, 2]",0.0,3.0,0.22918391227722168,1.792492151260376,0.56679911336854,47.0,288.0
,,"(3, 3)",,,,,,47.0,
B,L,"[3, 2]",1.0,1.0,0.5890100002288818,3.1342689990997314,0.35153514301649397,,289.0
B,L,"[3, 1]",1.0,2.0,0.4542868137359619,1.9810152053833008,0.5157079930907229,48.0,290.0
B,L,"[3, 0]",0.0,2.0,0.4597320556640625,2.0388150215148926,0.5711748681036628,48.0,291.0
R,U,"[2, 0]",0.0,2.0,0.29961395263671875,1.8750171661376953,0.579524144334258,48.0,292.0
Y,R,"[2, 1]",1.0,3.0,0.2711799144744873,1.6401100158691406,0.3529023403135241,48.0,293.0
Y,R,"[2, 2]",1.0,4.0,0.34575414657592773,1.8187711238861084,0.4716779335407904,48.0,294.0
,,"(3, 3)",,,,,,48.0,
B,L,"[3, 2]",1.0,1.0,0.9829490184783936,3.748400926589966,0.2538235728928387,,295.0
B,L,"[3, 1]",1.0,2.0,0.4053640365600586,2.097151041030884,0.6838242845677553,49.0,296.0
R,U,"[2, 1]",1.0,3.0,0.38330793380737305,1.6956369876861572,0.29654201579670675,49.0,297.0
Y,R,"[2, 2]",1.0,4.0,0.4206399917602539,2.0157251358032227,0.578604403103703,49.0,298.0
G,D,"[3, 2]",0.0,4.0,0.31847214698791504,1.8252990245819092,0.5040402441936009,49.0,299.0
B,L,"[3, 1]",0.0,4.0,0.3573029041290283,2.0049960613250732,0.6422499677504494,49.0,300.0
,,"(3, 3)",,,,,,49.0,
B,L,"[3, 2]",-2.0,0.0,1.4500231742858887,3.8201608657836914,0.2795122123630663,,301.0
B,L,"[3, 1]",1.0,1.0,0.40683913230895996,1.864954948425293,0.46101633005777654,50.0,302.0
B,L,"[3, 0]",0.0,1.0,0.2994418144226074,1.8682410717010498,0.5791316366598276,50.0,303.0
Y,R,"[3, 1]",0.0,1.0,0.21808195114135742,1.4874510765075684,0.2669800058348696,50.0,304.0
R,U,"[2, 1]",1.0,2.0,0.29676294326782227,1.9062819480895996,0.5896424212533755,50.0,305.0
R,U,"[1, 1]",-1.0,1.0,0.2698068618774414,2.010392904281616,0.7330822152607379,50.0,306.0
,,"(3, 3)",,,,,,50.0,
B,L,"[3, 2]",1.0,1.0,0.6682741641998291,3.5004680156707764,0.683779774585902,,307.0
B,L,"[3, 1]",1.0,2.0,0.2828559875488281,1.6541190147399902,0.35486987115953833,51.0,308.0
Y,R,"[3, 2]",0.0,2.0,0.5722618103027344,2.1318230628967285,0.5531915230595769,51.0,309.0
R,U,"[2, 2]",1.0,3.0,0.42111706733703613,1.9752070903778076,0.5452368294479741,51.0,310.0
B,L,"[2, 1]",1.0,4.0,0.6025710105895996,2.1743881702423096,0.5695886161523944,51.0,311.0
R,U,"[1, 1]",-1.0,3.0,0.6420598030090332,2.1397969722747803,0.49284949882293183,51.0,312.0
,,"(3, 3)",,,,,,51.0,
B,L,"[3, 2]",1.0,1.0,0.6101980209350586,3.047895908355713,0.2908909370517409,,313.0
B,L,"[3, 1]",1.0,2.0,0.25090813636779785,1.8609609603881836,0.601572713028234,52.0,314.0
Y,R,"[3, 2]",0.0,2.0,0.5953211784362793,1.8562660217285156,0.2582236614874954,52.0,315.0
R,U,"[2, 2]",1.0,3.0,0.6623499393463135,2.263014078140259,0.5875141422573033,52.0,316.0
B,L,"[2, 1]",1.0,4.0,0.2948579788208008,1.7761261463165283,0.4805142879307594,52.0,317.0
B,L,"[2, 0]",0.0,4.0,0.4254031181335449,2.056786060333252,0.6205469960313628,52.0,318.0
,,"(3, 3)",,,,,,52.0,
B,L,"[3, 2]",1.0,1.0,0.5694019794464111,3.118422031402588,0.40595443236455236,,319.0
B,L,"[3, 1]",1.0,2.0,0.24186015129089355,1.8267500400543213,0.5825961328217477,53.0,320.0
Y,R,"[3, 2]",0.0,2.0,0.32269906997680664,2.080789089202881,0.7466081893116596,53.0,321.0
R,U,"[2, 2]",1.0,3.0,0.20673799514770508,1.6204891204833984,0.4008078820724314,53.0,322.0
B,L,"[2, 1]",1.0,4.0,0.30504798889160156,1.8762898445129395,0.5602575517147607,53.0,323.0
B,L,"[2, 0]",0.0,4.0,0.5642659664154053,1.9998059272766113,0.443569320044215,53.0,324.0
,,"(3, 3)",,,,,,53.0,
B,L,"[3, 2]",1.0,1.0,0.539762020111084,3.295943021774292,0.6560249922977612,,325.0
B,L,"[3, 1]",1.0,2.0,0.4724588394165039,1.9424870014190674,0.46531198525241796,54.0,326.0
R,U,"[2, 1]",1.0,3.0,0.9134800434112549,2.429866075515747,0.512099878686614,54.0,327.0
G,D,"[3, 1]",0.0,3.0,0.4388871192932129,1.7136180400848389,0.27596506153484857,54.0,328.0
Y,R,"[3, 2]",0.0,3.0,0.46184611320495605,1.9794280529022217,0.5215628769392241,54.0,329.0
B,L,"[3, 1]",0.0,3.0,0.2920100688934326,1.6219980716705322,0.327104341353974,54.0,330.0
,,"(3, 3)",,,,,,54.0,
B,L,"[3, 2]",1.0,1.0,0.7934229373931885,3.2290120124816895,0.3061348640471447,,331.0
B,L,"[3, 1]",1.0,2.0,0.8201849460601807,2.2440059185028076,0.41680129013346773,55.0,332.0
R,U,"[2, 1]",1.0,3.0,0.6012790203094482,2.179244041442871,0.5625938648878839,55.0,333.0
R,U,"[1, 1]",-1.0,2.0,0.6000010967254639,2.2728960514068604,0.6520703687382583,55.0,334.0
B,L,"[1, 0]",0.0,2.0,0.22855806350708008,1.561431884765625,0.3305219028112612,55.0,335.0
Y,R,"[1, 1]",0.0,2.0,0.2547719478607178,1.7580928802490234,0.4887225478503147,55.0,336.0
,,"(3, 3)",,,,,,55.0,
B,L,"[3, 2]",1.0,1.0,0.5179510116577148,2.850749969482422,0.33967271299269514,,337.0
B,L,"[3, 1]",1.0,2.0,0.26816797256469727,1.7493419647216797,0.4723404233068158,56.0,338.0
Y,R,"[3, 2]",0.0,2.0,0.29999208450317383,1.850102186203003,0.5556391511274421,56.0,339.0
R,U,"[2, 2]",1.0,3.0,0.22426199913024902,1.8576610088348389,0.6300028349752216,56.0,340.0
B,L,"[2, 1]",1.0,4.0,0.32944822311401367,1.8935909271240234,0.5568732303669317,56.0,341.0
B,L,"[2, 0]",0.0,4.0,0.33012890815734863,1.6149089336395264,0.2886242193239001,56.0,342.0
,,"(3, 3)",,,,,,56.0,
B,L,"[3, 2]",1.0,1.0,0.5624299049377441,3.1677799224853516,0.2898988679812446,,343.0
B,L,"[3, 1]",1.0,2.0,0.29400205612182617,1.824181079864502,0.530573799442874,57.0,344.0
R,U,"[2, 1]",1.0,3.0,0.3607029914855957,1.643846035003662,0.27469051436062947,57.0,345.0
B,L,"[2, 0]",0.0,3.0,0.5415410995483398,2.1909677982330322,0.6485855797038242,57.0,346.0
Y,R,"[2, 1]",0.0,3.0,0.26568603515625,1.6247620582580566,0.3571503259781127,57.0,347.0
G,D,"[3, 1]",-2.0,3.0,1.0570459365844727,2.816382884979248,0.7230121505712389,57.0,348.0
,,"(3, 3)",,,,,,57.0,
B,L,"[3, 2]",1.0,1.0,0.5325968265533447,3.140984058380127,0.26481894747500684,,349.0
B,L,"[3, 1]",1.0,2.0,0.2924468517303467,1.7845358848571777,0.48224066379141467,58.0,350.0
R,U,"[2, 1]",1.0,3.0,0.8051559925079346,2.297837972640991,0.4801095896297107,58.0,351.0
Y,R,"[2, 2]",1.0,4.0,0.2902231216430664,1.6128320693969727,0.3098028196200988,58.0,352.0
B,L,"[2, 1]",0.0,4.0,0.36244988441467285,1.974100112915039,0.6168818599144613,58.0,353.0
Y,R,"[2, 2]",0.0,4.0,0.27701902389526367,1.6263549327850342,0.34362554265711287,58.0,354.0
,,"(3, 3)",,,,,,58.0,
B,L,"[3, 2]",1.0,1.0,0.6728420257568359,3.3218889236450195,0.5819074030500904,,355.0
B,L,"[3, 1]",1.0,2.0,0.33437085151672363,2.0050201416015625,0.6536089168330195,59.0,356.0
B,L,"[3, 0]",0.0,2.0,0.558464765548706,2.2271969318389893,0.6640606506842727,59.0,357.0
R,U,"[2, 0]",0.0,2.0,0.229079008102417,1.8648850917816162,0.6290111515700916,59.0,358.0
Y,R,"[2, 1]",1.0,3.0,0.41007089614868164,1.8073210716247559,0.4033572913519871,59.0,359.0
Y,R,"[2, 2]",1.0,4.0,0.44840288162231445,2.143571138381958,0.6966217134964744,59.0,360.0
,,"(3, 3)",,,,,,59.0,
B,L,"[3, 2]",1.0,1.0,0.6892828941345215,3.2346200942993164,0.3650122818503691,,361.0
B,L,"[3, 1]",1.0,2.0,0.2533860206604004,1.720736026763916,0.45236529134298775,60.0,362.0
Y,R,"[3, 2]",0.0,2.0,0.3946869373321533,1.748995065689087,0.35126560722375005,60.0,363.0
R,U,"[2, 2]",1.0,3.0,0.2957131862640381,2.045578956604004,0.746677679357338,60.0,364.0
R,U,"[1, 2]",1.0,4.0,0.3168799877166748,1.7609798908233643,0.4245079847088039,60.0,365.0
B,L,"[1, 1]",-1.0,3.0,0.861051082611084,2.4303929805755615,0.571576956690574,60.0,366.0
,,"(3, 3)",,,,,,60.0,
B,L,"[3, 2]",1.0,1.0,0.5308339595794678,3.4961791038513184,0.7176920463469638,,367.0
B,L,"[3, 1]",1.0,2.0,0.23970913887023926,1.578523874282837,0.3299974970494001,61.0,368.0
Y,R,"[3, 2]",0.0,2.0,0.384382963180542,2.1036579608917236,0.6999493840882485,61.0,369.0
R,U,"[2, 2]",1.0,3.0,0.24651098251342773,1.5819151401519775,0.315639186854627,61.0,370.0
B,L,"[2, 1]",1.0,4.0,0.36320018768310547,1.8590490818023682,0.4912936372641828,61.0,371.0
B,L,"[2, 0]",0.0,4.0,0.3882789611816406,1.8777360916137695,0.48563079792448327,61.0,372.0
,,"(3, 3)",,,,,,61.0,
B,L,"[3, 2]",1.0,1.0,0.5765001773834229,3.041612148284912,0.42715465500909955,,373.0
B,L,"[3, 1]",1.0,2.0,0.3827991485595703,1.7989089488983154,0.40966618363885965,62.0,374.0
Y,R,"[3, 2]",0.0,2.0,0.2689499855041504,1.648810863494873,0.3752025397789011,62.0,375.0
R,U,"[2, 2]",1.0,3.0,0.2440650463104248,1.887430191040039,0.6456217478293202,62.0,376.0
B,L,"[2, 1]",-2.0,3.0,1.1568689346313477,2.8015100955963135,0.6139685088122688,62.0,377.0
B,L,"[2, 0]",0.0,3.0,0.2620251178741455,2.0049610137939453,0.7353728866594794,62.0,378.0
,,"(3, 3)",,,,,,62.0,
B,L,"[3, 2]",1.0,1.0,0.782296895980835,3.538635015487671,0.7074769914206258,,379.0
B,L,"[3, 1]",1.0,2.0,0.24107789993286133,1.754045009613037,0.5117113254895402,63.0,380.0
R,U,"[2, 1]",1.0,3.0,0.48011207580566406,2.063314914703369,0.5917546310399113,63.0,381.0
B,L,"[2, 0]",0.0,3.0,0.27837395668029785,1.8924689292907715,0.6175424366034411,63.0,382.0
G,D,"[3, 0]",0.0,3.0,0.30658411979675293,1.7750260829925537,0.4594087111794451,63.0,383.0
R,U,"[2, 0]",0.0,3.0,0.7131328582763672,2.283318042755127,0.5759972088152544,63.0,384.0
,,"(3, 3)",,,,,,63.0,
B,L,"[3, 2]",1.0,1.0,0.8247840404510498,3.339061975479126,0.4819840313671132,,385.0
B,L,"[3, 1]",1.0,2.0,0.3829178810119629,2.0066628456115723,0.605078448482899,64.0,386.0
R,U,"[2, 1]",1.0,3.0,0.3029489517211914,1.8909311294555664,0.5794523245322909,64.0,387.0
B,L,"[2, 0]",0.0,3.0,0.37880396842956543,1.7362101078033447,0.3492526597350672,64.0,388.0
Y,R,"[2, 1]",0.0,3.0,0.36649489402770996,1.8603010177612305,0.4926223808889263,64.0,389.0
R,U,"[1, 1]",-1.0,2.0,0.30554795265197754,1.9645440578460693,0.6570890138602309,64.0,390.0
,,"(3, 3)",,,,,,64.0,
B,L,"[3, 2]",1.0,1.0,0.49258899688720703,3.1059811115264893,0.446724869269286,,391.0
B,L,"[3, 1]",1.0,2.0,0.4436318874359131,1.8510260581970215,0.39780363297956894,65.0,392.0
R,U,"[2, 1]",1.0,3.0,0.3986790180206299,1.852660894393921,0.4504084169418589,65.0,393.0
Y,R,"[2, 2]",1.0,4.0,0.36148786544799805,1.646610975265503,0.2806116378287386,65.0,394.0
B,L,"[2, 1]",0.0,4.0,0.4116389751434326,1.8464488983154297,0.42689336901194286,65.0,395.0
Y,R,"[2, 2]",0.0,4.0,0.23232817649841309,1.7553648948669434,0.5321950207260073,65.0,396.0
,,"(3, 3)",,,,,,65.0,
B,L,"[3, 2]",-2.0,0.0,1.0047709941864014,3.78668212890625,0.6187662434106569,,397.0
B,L,"[3, 1]",1.0,1.0,0.35348010063171387,2.1006600856781006,0.7360491757201368,66.0,398.0
B,L,"[3, 0]",0.0,1.0,0.20554494857788086,1.8100190162658691,0.5962465706848717,66.0,399.0
R,U,"[2, 0]",0.0,1.0,0.2802140712738037,1.7557051181793213,0.46883133296818175,66.0,400.0
G,D,"[3, 0]",0.0,1.0,0.3362140655517578,1.927520990371704,0.5961588025469751,66.0,401.0
B,L,"[3, 0]",0.0,1.0,0.2478771209716797,1.8099989891052246,0.5562175985168394,66.0,402.0
,,"(3, 3)",,,,,,66.0,
B,L,"[3, 2]",-1.0,-1.0,0.5668530464172363,3.5182459354400635,0.7411050989259029,,403.0
R,U,"[2, 2]",-1.0,-2.0,0.277446985244751,1.8716580867767334,0.5962673961065239,67.0,404.0
G,D,"[3, 2]",-1.0,-3.0,0.2674999237060547,1.5400660037994385,0.25333739469080874,67.0,405.0
Y,R,"[3, 3]",-2.0,-5.0,0.292726993560791,1.8070149421691895,0.5100684649496137,67.0,406.0
R,U,"[2, 3]",-2.0,-5.0,1.1788890361785889,2.464031934738159,0.2578022894149161,67.0,407.0
R,U,"[1, 3]",-1.0,-6.0,0.19134306907653809,1.6395771503448486,0.4471422234366534,67.0,408.0
,,"(3, 3)",,,,,,67.0,
G,D,"[4, 3]",-2.0,0.0,1.0702240467071533,3.7199060916900635,0.3839556572844034,,409.0
G,D,"[5, 3]",1.0,1.0,0.20888090133666992,1.6755499839782715,0.4594531613882202,68.0,410.0
G,D,"[6, 3]",0.0,1.0,0.37026286125183105,1.9892711639404297,0.6152042494150405,68.0,411.0
Y,R,"[6, 4]",0.0,1.0,0.30916595458984375,1.74623703956604,0.42840155618820225,68.0,412.0
R,U,"[5, 4]",-1.0,0.0,0.5130648612976074,1.8202919960021973,0.29876865997687385,68.0,413.0
G,D,"[6, 4]",0.0,0.0,0.41460084915161133,1.9258041381835938,0.5077411434936812,68.0,414.0
,,"(3, 3)",,,,,,68.0,
G,D,"[4, 3]",1.0,1.0,0.8359689712524414,3.415163993835449,0.4396406897073264,,415.0
G,D,"[5, 3]",1.0,2.0,0.24042510986328125,1.945430040359497,0.7014829008483121,69.0,416.0
G,D,"[6, 3]",0.0,2.0,0.2186279296875,1.557784080505371,0.3264505942984845,69.0,417.0
B,L,"[6, 2]",0.0,2.0,0.36253905296325684,1.981173038482666,0.6239283715581756,69.0,418.0
G,D,"[6, 2]",0.0,2.0,0.2664320468902588,1.8686490058898926,0.6093037072803023,69.0,419.0
Y,R,"[6, 3]",0.0,2.0,0.34588193893432617,1.8881900310516357,0.5475683347918632,69.0,420.0
,,"(3, 3)",,,,,,69.0,
G,D,"[4, 3]",1.0,1.0,0.5599839687347412,3.059875965118408,0.37451706534550894,,421.0
G,D,"[5, 3]",1.0,2.0,0.4278218746185303,1.7657451629638672,0.34012952737107843,70.0,422.0
G,D,"[6, 3]",0.0,2.0,0.4232461452484131,2.144987106323242,0.7181190620775458,70.0,423.0
B,L,"[6, 2]",0.0,2.0,0.19143104553222656,1.5378329753875732,0.3397922364465533,70.0,424.0
Y,R,"[6, 3]",0.0,2.0,0.5101079940795898,2.0450761318206787,0.5346662221302152,70.0,425.0
R,U,"[5, 3]",1.0,3.0,0.7790689468383789,2.1186230182647705,0.33690430521604187,70.0,426.0
,,"(3, 3)",,,,,,70.0,
G,D,"[4, 3]",1.0,1.0,0.5725700855255127,3.553313970565796,0.7400293088574237,,427.0
G,D,"[5, 3]",1.0,2.0,0.20383310317993164,1.6298949718475342,0.4202830803483692,71.0,428.0
R,U,"[4, 3]",1.0,3.0,0.6755728721618652,2.4217138290405273,0.7414956832475248,71.0,429.0
R,U,"[3, 3]",-2.0,1.0,0.2417459487915039,1.5753729343414307,0.3340230653803733,71.0,430.0
B,L,"[3, 2]",-1.0,0.0,0.3447239398956299,1.9815521240234375,0.6152001843691717,71.0,431.0
Y,R,"[3, 3]",-2.0,-2.0,0.24540400505065918,1.5899159908294678,0.32210951171743873,71.0,432.0
,,"(3, 3)",,,,,,71.0,
G,D,"[4, 3]",1.0,1.0,0.5408999919891357,3.091116189956665,0.5297286093461744,,433.0
G,D,"[5, 3]",1.0,2.0,0.22319579124450684,1.6500000953674316,0.4132640757999985,72.0,434.0
G,D,"[6, 3]",0.0,2.0,0.5420858860015869,2.244210958480835,0.6903892921974624,72.0,435.0
R,U,"[5, 3]",1.0,3.0,0.29077792167663574,2.0105698108673096,0.7178394762732271,72.0,436.0
B,L,"[5, 2]",1.0,4.0,0.25502586364746094,1.7668728828430176,0.501521941341599,72.0,437.0
B,L,"[5, 1]",-1.0,3.0,0.9189069271087646,2.571457862854004,0.6395110951032229,72.0,438.0
,,"(3, 3)",,,,,,72.0,
G,D,"[4, 3]",1.0,1.0,0.7015531063079834,3.1626458168029785,0.3860057688878412,,439.0
G,D,"[5, 3]",1.0,2.0,0.2914748191833496,1.9140539169311523,0.616351095223302,73.0,440.0
B,L,"[5, 2]",-2.0,2.0,1.1241400241851807,2.759287118911743,0.5924641173985237,73.0,441.0
R,U,"[4, 2]",1.0,3.0,0.5599269866943359,1.8762860298156738,0.3190399261571649,73.0,442.0
B,L,"[4, 1]",1.0,4.0,0.371898889541626,1.9254951477050781,0.5443380492712078,73.0,443.0
Y,R,"[4, 2]",1.0,5.0,0.30309200286865234,1.9663920402526855,0.660670185511806,73.0,444.0
,,"(3, 3)",,,,,,73.0,
G,D,"[4, 3]",1.0,1.0,0.5615570545196533,3.2958672046661377,0.5566213759018066,,445.0
G,D,"[5, 3]",1.0,2.0,0.2424941062927246,1.9720709323883057,0.7284439827663738,74.0,446.0
R,U,"[4, 3]",1.0,3.0,0.21094703674316406,1.6860949993133545,0.48167273839789637,74.0,447.0
B,L,"[4, 2]",1.0,4.0,0.22101902961730957,1.8248839378356934,0.5896107588765603,74.0,448.0
Y,R,"[4, 3]",1.0,5.0,0.2934091091156006,1.9120700359344482,0.6184323389821589,74.0,449.0
Y,R,"[4, 4]",-2.0,5.0,1.1928369998931885,2.791788101196289,0.5603117995907092,74.0,450.0
,,"(3, 3)",,,,,,74.0,
G,D,"[4, 3]",1.0,1.0,0.7023818492889404,5.70051908493042,0.5109813683122797,,451.0
G,D,"[5, 3]",1.0,2.0,0.21573996543884277,1.5976428985595703,0.37552489889228924,75.0,452.0
R,U,"[4, 3]",1.0,3.0,0.29630613327026367,1.5501859188079834,0.25922881751085636,75.0,453.0
B,L,"[4, 2]",1.0,4.0,0.2841470241546631,1.829517126083374,0.5383956213132903,75.0,454.0
Y,R,"[4, 3]",1.0,5.0,0.31373095512390137,1.938060998916626,0.62634452903063,75.0,455.0
B,L,"[4, 2]",1.0,6.0,0.6684210300445557,2.4035189151763916,0.7299428522299503,75.0,456.0
,,"(3, 3)",,,,,,75.0,
G,D,"[4, 3]",-2.0,0.0,1.1112971305847168,4.088634014129639,0.6353142538063488,,457.0
G,D,"[5, 3]",1.0,1.0,0.19567513465881348,1.749696969985962,0.5517372593214454,76.0,458.0
G,D,"[6, 3]",0.0,1.0,0.22184991836547852,1.8156790733337402,0.5842274453884282,76.0,459.0
R,U,"[5, 3]",1.0,2.0,0.2840099334716797,1.7439329624176025,0.4448851852916086,76.0,460.0
B,L,"[5, 2]",1.0,3.0,0.2538578510284424,1.843890905380249,0.5887232750140864,76.0,461.0
Y,R,"[5, 3]",1.0,4.0,0.22188615798950195,1.5163300037384033,0.28876512386940134,76.0,462.0
,,"(3, 3)",,,,,,76.0,
G,D,"[4, 3]",1.0,1.0,0.7363929748535156,3.8683719635009766,0.3238525912462793,,463.0
G,D,"[5, 3]",1.0,2.0,0.23075485229492188,1.8174920082092285,0.5911732009535133,77.0,464.0
R,U,"[4, 3]",1.0,3.0,0.23704195022583008,1.946540117263794,0.7043405590422694,77.0,465.0
B,L,"[4, 2]",1.0,4.0,0.2103428840637207,1.7125880718231201,0.5004263342156317,77.0,466.0
Y,R,"[4, 3]",-1.0,4.0,0.07932901382446289,5.577991962432861,0.3453893026313006,77.0,467.0
Y,R,"[4, 4]",-1.0,3.0,0.23236489295959473,1.8130059242248535,0.5915102756735561,77.0,468.0
,,"(3, 3)",,,,,,77.0,
G,D,"[4, 3]",-2.0,0.0,1.0840320587158203,3.892078161239624,0.5502518746194102,,469.0
G,D,"[5, 3]",1.0,1.0,0.17745614051818848,1.7832450866699219,0.600103946649436,78.0,470.0
G,D,"[6, 3]",0.0,1.0,0.22124910354614258,1.5151119232177734,0.28218986358981846,78.0,471.0
R,U,"[5, 3]",1.0,2.0,0.3116340637207031,2.054625988006592,0.7198469261923055,78.0,472.0
B,L,"[5, 2]",1.0,3.0,0.21603608131408691,1.8444418907165527,0.6310969059136908,78.0,473.0
Y,R,"[5, 3]",1.0,4.0,0.2757570743560791,1.8918209075927734,0.606094509065292,78.0,474.0
,,"(3, 3)",,,,,,78.0,
G,D,"[4, 3]",1.0,1.0,0.8223609924316406,3.544721841812134,0.434343398699665,,475.0
G,D,"[5, 3]",1.0,2.0,0.2055060863494873,1.762645959854126,0.5469779690617398,79.0,476.0
R,U,"[4, 3]",1.0,3.0,0.26978588104248047,1.890923023223877,0.6044983413876815,79.0,477.0
B,L,"[4, 2]",1.0,4.0,0.23688602447509766,1.955049991607666,0.7262156179270283,79.0,478.0
Y,R,"[4, 3]",1.0,5.0,0.1937270164489746,1.6825268268585205,0.49212360849954156,79.0,479.0
G,D,"[5, 3]",1.0,6.0,0.5334868431091309,1.8166580200195312,0.2924290665561426,79.0,480.0
,,"(3, 3)",,,,,,79.0,
G,D,"[4, 3]",1.0,1.0,0.8977479934692383,3.3157448768615723,0.27492221772284037,,481.0
G,D,"[5, 3]",1.0,2.0,0.21431589126586914,1.5302550792694092,0.3218057205018494,80.0,482.0
R,U,"[4, 3]",1.0,3.0,0.2612919807434082,1.8329331874847412,0.5711913212029843,80.0,483.0
B,L,"[4, 2]",1.0,4.0,0.19700384140014648,1.7430799007415771,0.5476575197916527,80.0,484.0
Y,R,"[4, 3]",1.0,5.0,0.1639559268951416,1.5961058139801025,0.42726814003770097,80.0,485.0
G,D,"[5, 3]",1.0,6.0,0.27588701248168945,1.5693509578704834,0.29680271003391884,80.0,486.0
,,"(3, 3)",,,,,,80.0,
G,D,"[4, 3]",1.0,1.0,0.7511031627655029,3.369884967803955,0.5833950177452115,,487.0
G,D,"[5, 3]",1.0,2.0,0.15079808235168457,1.795578956604004,0.6286743225379038,81.0,488.0
R,U,"[4, 3]",1.0,3.0,0.21177196502685547,1.6311709880828857,0.426729062436292,81.0,489.0
B,L,"[4, 2]",1.0,4.0,0.22721600532531738,1.5795588493347168,0.35637799717103874,81.0,490.0
Y,R,"[4, 3]",1.0,5.0,0.24097394943237305,1.5142240524291992,0.270864336107659,81.0,491.0
G,D,"[5, 3]",1.0,6.0,0.3794088363647461,2.094613790512085,0.7150259254884148,81.0,492.0
,,"(3, 3)",,,,,,81.0,
G,D,"[4, 3]",1.0,1.0,0.5931119918823242,3.5411980152130127,0.6063082105509473,,493.0
G,D,"[5, 3]",1.0,2.0,0.1950829029083252,1.4800689220428467,0.2866595835232614,82.0,494.0
G,D,"[6, 3]",0.0,2.0,0.3457520008087158,1.9113209247589111,0.5644487036789025,82.0,495.0
R,U,"[5, 3]",1.0,3.0,0.16026616096496582,1.6848750114440918,0.516038664626759,82.0,496.0
B,L,"[5, 2]",1.0,4.0,0.30545496940612793,1.6588618755340576,0.3417368232196485,82.0,497.0
Y,R,"[5, 3]",1.0,5.0,0.29585909843444824,1.9397830963134766,0.6482739622920533,82.0,498.0
,,"(3, 3)",,,,,,82.0,
G,D,"[4, 3]",1.0,1.0,0.633795976638794,3.162771224975586,0.361215537034986,,499.0
G,D,"[5, 3]",1.0,2.0,0.223160982131958,1.668287992477417,0.4460558486020707,83.0,500.0
R,U,"[4, 3]",1.0,3.0,0.2909111976623535,1.8729419708251953,0.5690387484336741,83.0,501.0
B,L,"[4, 2]",1.0,4.0,0.2075340747833252,1.7830531597137451,0.568642349119064,83.0,502.0
Y,R,"[4, 3]",1.0,5.0,0.1990048885345459,1.569195032119751,0.35470273341441133,83.0,503.0
G,D,"[5, 3]",1.0,6.0,0.39043498039245605,2.0919649600982666,0.6964220128872479,83.0,504.0
,,"(3, 3)",,,,,,83.0,
G,D,"[4, 3]",1.0,1.0,0.8667881488800049,3.5645508766174316,0.561212541233896,,505.0
G,D,"[5, 3]",-1.0,1.0,0.014848947525024414,5.5630412101745605,0.42441363439019825,84.0,506.0
G,D,"[6, 3]",0.0,1.0,0.378309965133667,1.8044350147247314,0.42889468860590985,84.0,507.0
R,U,"[5, 3]",1.0,2.0,0.25818896293640137,1.5592551231384277,0.30496597472080933,84.0,508.0
B,L,"[5, 2]",1.0,3.0,0.2595360279083252,1.629094123840332,0.36712138500669295,84.0,509.0
Y,R,"[5, 3]",1.0,4.0,0.28525710105895996,1.891723871231079,0.592152530864001,84.0,510.0
,,"(3, 3)",,,,,,84.0,
G,D,"[4, 3]",1.0,1.0,0.8703429698944092,3.647446870803833,0.6563530939273818,,511.0
R,U,"[3, 3]",-2.0,-1.0,0.49300599098205566,1.7550079822540283,0.2616948152026014,85.0,512.0
B,L,"[3, 2]",-1.0,-2.0,0.4550509452819824,1.809140920639038,0.3542831224905769,85.0,513.0
G,D,"[4, 2]",1.0,-1.0,0.2464580535888672,1.7608399391174316,0.5146731089913468,85.0,514.0
G,D,"[5, 2]",1.0,0.0,0.25101208686828613,1.923893928527832,0.6552261290785802,85.0,515.0
G,D,"[6, 2]",0.0,0.0,0.3814210891723633,2.087128162384033,0.7089636295948649,85.0,516.0
,,"(3, 3)",,,,,,85.0,
Y,R,"[3, 4]",-2.0,0.0,1.1563940048217773,3.9275519847869873,0.5701908275838898,,517.0
G,D,"[4, 4]",-1.0,-1.0,0.36789798736572266,1.911128044128418,0.5313733544192998,86.0,518.0
Y,R,"[4, 5]",-1.0,-2.0,0.36046695709228516,1.9402987957000732,0.5716428304052711,86.0,519.0
B,L,"[4, 4]",-1.0,-3.0,0.21927404403686523,1.612144947052002,0.3841856756081377,86.0,520.0
R,U,"[3, 4]",-1.0,-4.0,0.3002481460571289,1.861213207244873,0.5615465490653968,86.0,521.0
R,U,"[2, 4]",-1.0,-5.0,0.47243595123291016,2.019740104675293,0.5481311515211593,86.0,522.0
,,"(3, 3)",,,,,,86.0,
R,U,"[2, 3]",-2.0,0.0,1.078542947769165,3.8610939979553223,0.6591496563581671,,523.0
R,U,"[1, 3]",-1.0,-1.0,0.22852396965026855,1.9269039630889893,0.7026670370671125,87.0,524.0
Y,R,"[1, 4]",-1.0,-2.0,0.3962380886077881,1.898076057434082,0.5009760343569534,87.0,525.0
G,D,"[2, 4]",-1.0,-3.0,0.23112702369689941,1.8572938442230225,0.6250596920194029,87.0,526.0
B,L,"[2, 3]",-1.0,-4.0,0.27511000633239746,1.8737928867340088,0.5988923841937226,87.0,527.0
B,L,"[2, 2]",-1.0,-5.0,0.38392090797424316,1.9885790348052979,0.6040364722866063,87.0,528.0
,,"(3, 3)",,,,,,87.0,
R,U,"[2, 3]",-1.0,-1.0,0.9526050090789795,3.685835838317871,0.4567807954409507,,529.0
R,U,"[1, 3]",-1.0,-2.0,0.2513909339904785,1.8714230060577393,0.6112978604564085,88.0,530.0
G,D,"[2, 3]",-1.0,-3.0,0.23785805702209473,1.9242091178894043,0.6855546092671325,88.0,531.0
G,D,"[3, 3]",-2.0,-5.0,0.33160996437072754,1.976797103881836,0.6290888587618678,88.0,532.0
B,L,"[3, 2]",-1.0,-6.0,0.1844627857208252,1.6021480560302734,0.39812696624166427,88.0,533.0
B,L,"[3, 1]",1.0,-5.0,0.23129701614379883,1.8618929386138916,0.6098158651021091,88.0,534.0
,,"(3, 3)",,,,,,88.0,
B,L,"[3, 2]",-1.0,-1.0,0.500723123550415,3.36751389503479,0.727200175349231,,535.0
B,L,"[3, 1]",1.0,0.0,0.19082283973693848,1.8398571014404297,0.6506717453306556,89.0,536.0
B,L,"[3, 0]",0.0,0.0,0.2889540195465088,1.6117031574249268,0.3128036210950612,89.0,537.0
Y,R,"[3, 1]",1.0,1.0,0.2695648670196533,1.8805420398712158,0.5764563259154621,89.0,538.0
Y,R,"[3, 2]",-1.0,0.0,0.2616138458251953,1.9799039363861084,0.7228714326283252,89.0,539.0
G,D,"[4, 2]",1.0,1.0,0.20633506774902344,1.8812730312347412,0.6709565394258645,89.0,540.0
,,"(3, 3)",,,,,,89.0,
B,L,"[3, 2]",-1.0,-1.0,0.5170431137084961,2.9096269607543945,0.38104581276711136,,541.0
B,L,"[3, 1]",1.0,0.0,0.21373605728149414,1.6459178924560547,0.4103074547146331,90.0,542.0
G,D,"[4, 1]",1.0,1.0,0.3772139549255371,1.6532039642333984,0.28028145953532557,90.0,543.0
G,D,"[5, 1]",-1.0,0.0,0.3097708225250244,1.6458230018615723,0.32587409657094424,90.0,544.0
B,L,"[5, 0]",0.0,0.0,0.29074597358703613,1.5793249607086182,0.2887116446184865,90.0,545.0
R,U,"[4, 0]",0.0,0.0,0.2721829414367676,1.663093090057373,0.38502617005183043,90.0,546.0
,,"(3, 3)",,,,,,90.0,
B,L,"[3, 2]",-1.0,-1.0,0.4898200035095215,2.932210922241211,0.26730308236918454,,547.0
B,L,"[3, 1]",1.0,0.0,0.17715120315551758,1.9259321689605713,0.7429546507609786,91.0,548.0
G,D,"[4, 1]",1.0,1.0,0.27191996574401855,1.8129830360412598,0.5393617767589604,91.0,549.0
Y,R,"[4, 2]",1.0,2.0,0.23702716827392578,1.5159571170806885,0.2722244926662573,91.0,550.0
R,U,"[3, 2]",-1.0,1.0,0.47638821601867676,1.8231608867645264,0.3453555371374697,91.0,551.0
Y,R,"[3, 3]",-2.0,-1.0,0.5347311496734619,2.0349879264831543,0.49684204007044136,91.0,552.0
,,"(3, 3)",,,,,,91.0,
B,L,"[3, 2]",-1.0,-1.0,0.46263885498046875,2.858694076538086,0.305644746193982,,553.0
B,L,"[3, 1]",-1.0,-1.0,0.016390085220336914,5.570472002029419,0.42615695400888454,92.0,554.0
B,L,"[3, 0]",-1.0,-1.0,0.06438779830932617,5.527889966964722,0.33756178485957505,92.0,555.0
B,L,"[3, 0]",0.0,-1.0,0.32433295249938965,1.9606738090515137,0.6314959216420323,92.0,556.0
Y,R,"[3, 1]",1.0,0.0,0.23574399948120117,1.9641108512878418,0.7121053617362851,92.0,557.0
Y,R,"[3, 2]",-1.0,-1.0,0.20200014114379883,1.5947489738464355,0.3905047223451784,92.0,558.0
,,"(3, 3)",,,,,,92.0,
B,L,"[3, 2]",-1.0,-1.0,0.49970507621765137,3.213602066040039,0.537591416221088,,559.0
B,L,"[3, 1]",1.0,0.0,0.2353191375732422,1.8408401012420654,0.5950246889741253,93.0,560.0
Y,R,"[3, 2]",-1.0,-1.0,0.2203660011291504,1.8087470531463623,0.5870555402698701,93.0,561.0
G,D,"[4, 2]",1.0,0.0,0.21444392204284668,1.6709320545196533,0.4415418905728031,93.0,562.0
G,D,"[5, 2]",1.0,1.0,0.8165130615234375,2.437312126159668,0.6120771544437302,93.0,563.0
G,D,"[6, 2]",0.0,1.0,0.5965511798858643,2.1304519176483154,0.542375803752948,93.0,564.0
,,"(3, 3)",,,,,,93.0,
G,D,"[4, 3]",-2.0,0.0,1.1224350929260254,3.856482982635498,0.5656403355052897,,565.0
G,D,"[5, 3]",1.0,1.0,0.5037169456481934,1.786571979522705,0.2691274929590916,94.0,566.0
G,D,"[6, 3]",0.0,1.0,0.5394670963287354,1.8317539691925049,0.28427426327218724,94.0,567.0
R,U,"[5, 3]",1.0,2.0,0.42020201683044434,1.7025599479675293,0.27023673214906513,94.0,568.0
R,U,"[4, 3]",1.0,3.0,0.3174901008605957,1.9916329383850098,0.6615136494885976,94.0,569.0
R,U,"[3, 3]",-2.0,1.0,0.29599785804748535,1.5716221332550049,0.2671857816144889,94.0,570.0
,,"(3, 3)",,,,,,94.0,
G,D,"[4, 3]",1.0,1.0,0.7442178726196289,3.4864649772644043,0.6196926681921557,,571.0
G,D,"[5, 3]",1.0,2.0,0.22166800498962402,1.948732852935791,0.7184000362700198,95.0,572.0
R,U,"[4, 3]",1.0,3.0,0.23380494117736816,1.6535418033599854,0.4056419714028525,95.0,573.0
B,L,"[4, 2]",1.0,4.0,0.389970064163208,1.72226881980896,0.32803314382068427,95.0,574.0
Y,R,"[4, 3]",1.0,5.0,0.5380067825317383,2.224745988845825,0.6858294333055921,95.0,575.0
B,L,"[4, 2]",1.0,6.0,0.32575392723083496,1.949397087097168,0.6185564690761869,95.0,576.0
,,"(3, 3)",,,,,,95.0,
G,D,"[4, 3]",1.0,1.0,0.779893159866333,3.4351119995117188,0.4207267045191257,,577.0
G,D,"[5, 3]",1.0,2.0,0.3045940399169922,1.829552173614502,0.516748703212907,96.0,578.0
R,U,"[4, 3]",1.0,3.0,0.48716020584106445,2.1797308921813965,0.6795214338870106,96.0,579.0
B,L,"[4, 2]",1.0,4.0,0.2280411720275879,1.8709628582000732,0.6340716770938954,96.0,580.0
Y,R,"[4, 3]",1.0,5.0,0.27242302894592285,2.024111032485962,0.7413747941985426,96.0,581.0
B,L,"[4, 2]",1.0,6.0,0.29681897163391113,1.9008269309997559,0.6090954499207824,96.0,582.0
,,"(3, 3)",,,,,,96.0,
G,D,"[4, 3]",1.0,1.0,0.6359598636627197,3.5176870822906494,0.6769134436699809,,583.0
G,D,"[5, 3]",1.0,2.0,0.18132901191711426,1.5587592124938965,0.38603568764190316,97.0,584.0
R,U,"[4, 3]",1.0,3.0,0.2438211441040039,1.8793909549713135,0.6319309743205122,97.0,585.0
B,L,"[4, 2]",1.0,4.0,0.2184910774230957,1.5055220127105713,0.2711131993506303,97.0,586.0
Y,R,"[4, 3]",1.0,5.0,0.2687380313873291,1.7344369888305664,0.455251114626265,97.0,587.0
B,L,"[4, 2]",1.0,6.0,0.19528913497924805,1.9116010665893555,0.7167815168717628,97.0,588.0
,,"(3, 3)",,,,,,97.0,
G,D,"[4, 3]",1.0,1.0,0.6293470859527588,3.4438939094543457,0.560686243086316,,589.0
G,D,"[5, 3]",1.0,2.0,0.1306290626525879,1.7154629230499268,0.5927661059837961,98.0,590.0
R,U,"[4, 3]",1.0,3.0,0.2507469654083252,1.7530169486999512,0.4959447065820863,98.0,591.0
B,L,"[4, 2]",1.0,4.0,0.2291557788848877,1.5031378269195557,0.26597639306985593,98.0,592.0
Y,R,"[4, 3]",1.0,5.0,0.3053131103515625,1.6186249256134033,0.3013191486538532,98.0,593.0
B,L,"[4, 2]",1.0,6.0,0.2785050868988037,1.66121506690979,0.37903416559008585,98.0,594.0
,,"(3, 3)",,,,,,98.0,
G,D,"[4, 3]",1.0,1.0,0.8794140815734863,4.001657962799072,0.6972178853637536,,595.0
R,U,"[3, 3]",-2.0,-1.0,0.42252397537231445,2.1340768337249756,0.6979912181319055,99.0,596.0
G,D,"[4, 3]",1.0,0.0,0.36000895500183105,1.8801689147949219,0.5116075459498758,99.0,597.0
B,L,"[4, 2]",1.0,1.0,0.3423299789428711,1.7230229377746582,0.3849283357953564,99.0,598.0
Y,R,"[4, 3]",1.0,2.0,0.2542080879211426,1.8745250701904297,0.6091829536541093,99.0,599.0
B,L,"[4, 2]",1.0,3.0,0.7794101238250732,2.3605170249938965,0.5863773502115913,99.0,600.0
,,"(3, 3)",,,,,,99.0,
G,D,"[4, 3]",-2.0,0.0,1.0114619731903076,3.474091053009033,0.3109477983880921,,601.0
G,D,"[5, 3]",1.0,1.0,0.2351830005645752,1.9484570026397705,0.7090542958083439,100.0,602.0
G,D,"[6, 3]",0.0,1.0,0.2742190361022949,1.5506069660186768,0.2768077155440041,100.0,603.0
R,U,"[5, 3]",1.0,2.0,0.3194429874420166,1.9866290092468262,0.6630628603043311,100.0,604.0
B,L,"[5, 2]",1.0,3.0,0.21483206748962402,1.71809983253479,0.497972567512214,100.0,605.0
Y,R,"[5, 3]",1.0,4.0,0.2649528980255127,1.6416208744049072,0.373136475111025,100.0,606.0
,,"(3, 3)",,,,,,100.0,
G,D,"[4, 3]",1.0,1.0,0.7505021095275879,3.2321698665618896,0.32214124647919434,,607.0
G,D,"[5, 3]",1.0,2.0,0.253371000289917,1.6047859191894531,0.34353710319248254,101.0,608.0
R,U,"[4, 3]",1.0,3.0,0.2842600345611572,1.8561220169067383,0.5661582164581359,101.0,609.0
B,L,"[4, 2]",1.0,4.0,0.21191000938415527,1.7269020080566406,0.5098324704843467,101.0,610.0
Y,R,"[4, 3]",1.0,5.0,0.2801640033721924,1.541140079498291,0.267907958624856,101.0,611.0
B,L,"[4, 2]",1.0,6.0,0.34946298599243164,1.799551010131836,0.4337580836643803,101.0,612.0
,,"(3, 3)",,,,,,101.0,
G,D,"[4, 3]",1.0,1.0,0.8006250858306885,3.3091378211975098,0.49310346791585236,,613.0
G,D,"[5, 3]",1.0,2.0,0.21628594398498535,1.8086729049682617,0.6015731142978606,102.0,614.0
R,U,"[4, 3]",1.0,3.0,0.24281096458435059,1.9407851696014404,0.6923814241533903,102.0,615.0
B,L,"[4, 2]",1.0,4.0,0.2525448799133301,1.5655491352081299,0.32481500592182255,102.0,616.0
Y,R,"[4, 3]",1.0,5.0,0.31308579444885254,1.5875349044799805,0.2790666005481533,102.0,617.0
B,L,"[4, 2]",1.0,6.0,0.27678513526916504,1.8007919788360596,0.5296620534319099,102.0,618.0
,,"(3, 3)",,,,,,102.0,
G,D,"[4, 3]",1.0,1.0,0.9306631088256836,3.544649124145508,0.40794973743395513,,619.0
G,D,"[5, 3]",1.0,2.0,0.21098995208740234,1.9156498908996582,0.7068478997571439,103.0,620.0
R,U,"[4, 3]",1.0,3.0,0.22420477867126465,1.6792101860046387,0.4526912270464146,103.0,621.0
B,L,"[4, 2]",1.0,4.0,0.37888312339782715,1.839982032775879,0.45933024970538544,103.0,622.0
Y,R,"[4, 3]",1.0,5.0,0.2068040370941162,1.763606071472168,0.5565214564532392,103.0,623.0
B,L,"[4, 2]",1.0,6.0,0.2759990692138672,1.9279909133911133,0.6507754936440753,103.0,624.0
,,"(3, 3)",,,,,,103.0,
G,D,"[4, 3]",1.0,1.0,0.6425440311431885,3.265507936477661,0.33355253211749303,,625.0
G,D,"[5, 3]",1.0,2.0,0.4513120651245117,1.8790199756622314,0.4123753160172879,104.0,626.0
R,U,"[4, 3]",1.0,3.0,0.28461599349975586,1.7833888530731201,0.4957529866560025,104.0,627.0
B,L,"[4, 2]",1.0,4.0,0.2653532028198242,1.7019188404083252,0.431067514696392,104.0,628.0
Y,R,"[4, 3]",1.0,5.0,0.2189030647277832,1.9143850803375244,0.678490952519861,104.0,629.0
B,L,"[4, 2]",1.0,6.0,0.3909571170806885,2.0119690895080566,0.6238721467407742,104.0,630.0
,,"(3, 3)",,,,,,104.0,
G,D,"[4, 3]",-2.0,0.0,1.4312219619750977,4.337175130844116,0.7113580629595722,,631.0
G,D,"[5, 3]",1.0,1.0,0.23832988739013672,1.9714369773864746,0.7326943591142541,105.0,632.0
G,D,"[6, 3]",0.0,1.0,0.3272089958190918,1.7458949089050293,0.4123097298817082,105.0,633.0
R,U,"[5, 3]",1.0,2.0,0.27360105514526367,1.7796998023986816,0.5085629197491306,105.0,634.0
B,L,"[5, 2]",1.0,3.0,0.210191011428833,1.813640832901001,0.6054685595059217,105.0,635.0
Y,R,"[5, 3]",1.0,4.0,0.21364712715148926,1.9540531635284424,0.7432104671787252,105.0,636.0
,,"(3, 3)",,,,,,105.0,
G,D,"[4, 3]",1.0,1.0,0.6319339275360107,3.4516501426696777,0.4946219963809743,,637.0
G,D,"[5, 3]",1.0,2.0,0.21894097328186035,1.509186029434204,0.28754348234483884,106.0,638.0
R,U,"[4, 3]",1.0,3.0,0.4871220588684082,2.001178026199341,0.5050012877525895,106.0,639.0
B,L,"[4, 2]",1.0,4.0,0.17919397354125977,1.502065896987915,0.32387099954213483,106.0,640.0
Y,R,"[4, 3]",1.0,5.0,0.20038604736328125,1.935319185256958,0.7254039693364152,106.0,641.0
B,L,"[4, 2]",1.0,6.0,0.24295711517333984,1.604158878326416,0.36332479177383226,106.0,642.0
,,"(3, 3)",,,,,,106.0,
G,D,"[4, 3]",1.0,1.0,0.6293990612030029,3.56404185295105,0.7104571270624419,,643.0
G,D,"[5, 3]",1.0,2.0,0.20962786674499512,1.6462328433990479,0.44027449153477843,107.0,644.0
R,U,"[4, 3]",1.0,3.0,0.25958991050720215,1.8685169219970703,0.6087735454470111,107.0,645.0
B,L,"[4, 2]",1.0,4.0,0.19995403289794922,1.540769100189209,0.3331371277437478,107.0,646.0
Y,R,"[4, 3]",1.0,5.0,0.20312809944152832,1.7252910137176514,0.5083393852425121,107.0,647.0
B,L,"[4, 2]",1.0,6.0,0.21652698516845703,1.7508790493011475,0.5260656102681713,107.0,648.0
,,"(3, 3)",,,,,,107.0,
G,D,"[4, 3]",1.0,1.0,0.6234631538391113,3.1032989025115967,0.26271340518881786,,649.0
G,D,"[5, 3]",1.0,2.0,0.7421979904174805,2.3234739303588867,0.5527117311898408,108.0,650.0
R,U,"[4, 3]",1.0,3.0,0.2553730010986328,1.693619966506958,0.42970484309614865,108.0,651.0
B,L,"[4, 2]",1.0,4.0,0.23221898078918457,1.9529848098754883,0.7157616861286678,108.0,652.0
Y,R,"[4, 3]",1.0,5.0,0.19139909744262695,1.9481379985809326,0.7472486750921514,108.0,653.0
B,L,"[4, 2]",1.0,6.0,0.178663969039917,1.5120420455932617,0.3264689101257312,108.0,654.0
,,"(3, 3)",,,,,,108.0,
G,D,"[4, 3]",1.0,1.0,0.7689340114593506,3.390252113342285,0.7497692564746781,,655.0
G,D,"[5, 3]",1.0,2.0,0.22661399841308594,1.7393229007720947,0.5062404587772804,109.0,656.0
R,U,"[4, 3]",1.0,3.0,0.5793290138244629,2.0088119506835938,0.4315225272255723,109.0,657.0
B,L,"[4, 2]",1.0,4.0,0.18891406059265137,1.9348361492156982,0.7328027942651407,109.0,658.0
Y,R,"[4, 3]",1.0,5.0,0.1996760368347168,1.6395370960235596,0.43923082507016153,109.0,659.0
B,L,"[4, 2]",1.0,6.0,0.2843470573425293,1.8766300678253174,0.5825045836934258,109.0,660.0
,,"(3, 3)",,,,,,109.0,
G,D,"[4, 3]",1.0,1.0,0.5174291133880615,3.0217859745025635,0.4046489963553617,,661.0
G,D,"[5, 3]",1.0,2.0,0.21928191184997559,1.9208481311798096,0.6918725683395308,110.0,662.0
R,U,"[4, 3]",1.0,3.0,0.21757817268371582,1.4969840049743652,0.2724535218097252,110.0,663.0
B,L,"[4, 2]",1.0,4.0,0.21680498123168945,1.9215691089630127,0.6935073650150421,110.0,664.0
Y,R,"[4, 3]",1.0,5.0,0.1212310791015625,1.4059088230133057,0.28325381801796795,110.0,665.0
B,L,"[4, 2]",1.0,6.0,0.39952588081359863,1.9150240421295166,0.4981966009864728,110.0,666.0
,,"(3, 3)",,,,,,110.0,
G,D,"[4, 3]",1.0,1.0,0.968209981918335,3.6179890632629395,0.2501781185108122,,667.0
G,D,"[5, 3]",1.0,2.0,0.2034590244293213,1.9571020603179932,0.740073202487658,111.0,668.0
R,U,"[4, 3]",1.0,3.0,0.4435408115386963,1.732245922088623,0.28911958710000996,111.0,669.0
B,L,"[4, 2]",1.0,4.0,0.24716615676879883,1.517162799835205,0.2729188316804865,111.0,670.0
Y,R,"[4, 3]",1.0,5.0,0.24170207977294922,1.7676780223846436,0.5237356783055563,111.0,671.0
B,L,"[4, 2]",1.0,6.0,0.1430201530456543,1.6937849521636963,0.5510829209522504,111.0,672.0
,,"(3, 3)",,,,,,111.0,
G,D,"[4, 3]",1.0,1.0,0.5370218753814697,3.311222791671753,0.7454905922726713,,673.0
R,U,"[3, 3]",-2.0,-1.0,0.2553141117095947,1.7064919471740723,0.45225434841919365,112.0,674.0
B,L,"[3, 2]",-1.0,-2.0,0.3666558265686035,2.1031370162963867,0.7217530362348346,112.0,675.0
G,D,"[4, 2]",1.0,-1.0,0.9666540622711182,2.6088478565216064,0.6307140067438874,112.0,676.0
G,D,"[5, 2]",1.0,0.0,0.23507308959960938,1.8308439254760742,0.5782465837913253,112.0,677.0
G,D,"[6, 2]",0.0,0.0,0.33730101585388184,2.0652270317077637,0.7266567972867162,112.0,678.0
,,"(3, 3)",,,,,,112.0,
G,D,"[4, 3]",1.0,1.0,0.5333271026611328,3.3137447834014893,0.557687088913811,,679.0
G,D,"[5, 3]",1.0,2.0,0.2157449722290039,1.8378360271453857,0.6286311248547365,113.0,680.0
Y,R,"[5, 4]",-1.0,1.0,0.38997793197631836,2.0623700618743896,0.6744206715912012,113.0,681.0
G,D,"[6, 4]",0.0,1.0,0.2444319725036621,1.6934568881988525,0.4511921824862137,113.0,682.0
R,U,"[5, 4]",-1.0,0.0,0.36141514778137207,1.9686648845672607,0.6031381701225352,113.0,683.0
B,L,"[5, 3]",1.0,1.0,0.27783894538879395,1.5777289867401123,0.2977731320472241,113.0,684.0
,,"(3, 3)",,,,,,113.0,
G,D,"[4, 3]",1.0,1.0,0.48301100730895996,3.3042409420013428,0.7185465158580768,,685.0
G,D,"[5, 3]",1.0,2.0,0.1908128261566162,1.469048023223877,0.27112932438904846,114.0,686.0
B,L,"[5, 2]",1.0,3.0,0.38422703742980957,2.0759849548339844,0.680288211834585,114.0,687.0
B,L,"[5, 1]",-1.0,2.0,0.2689211368560791,1.6928520202636719,0.40688239455330105,114.0,688.0
G,D,"[6, 1]",0.0,2.0,0.24352788925170898,1.8486530780792236,0.6053346668037185,114.0,689.0
Y,R,"[6, 2]",0.0,2.0,0.23563385009765625,1.94533109664917,0.717334048097179,114.0,690.0
,,"(3, 3)",,,,,,114.0,
G,D,"[4, 3]",1.0,1.0,0.9201169013977051,3.204125165939331,0.3216659998335815,,691.0
G,D,"[5, 3]",1.0,2.0,0.23273301124572754,1.7380809783935547,0.4928194976932189,115.0,692.0
B,L,"[5, 2]",1.0,3.0,0.21587491035461426,1.703691005706787,0.4799332181301188,115.0,693.0
R,U,"[4, 2]",1.0,4.0,0.30509209632873535,1.8333699703216553,0.5300052087587397,115.0,694.0
R,U,"[3, 2]",-1.0,3.0,0.37662601470947266,1.6875531673431396,0.30111144608379065,115.0,695.0
Y,R,"[3, 3]",-2.0,1.0,0.2753138542175293,1.7625648975372314,0.48022253084027317,115.0,696.0
,,"(3, 3)",,,,,,115.0,
G,D,"[4, 3]",1.0,1.0,0.5026838779449463,2.884945869445801,0.4822298137240638,,697.0
G,D,"[5, 3]",1.0,2.0,0.2036139965057373,1.8333008289337158,0.6152602814081503,116.0,698.0
B,L,"[5, 2]",1.0,3.0,0.23224687576293945,1.5533220767974854,0.3188565803277355,116.0,699.0
R,U,"[4, 2]",1.0,4.0,0.4803659915924072,2.119788885116577,0.6384233653853566,116.0,700.0
G,D,"[5, 2]",1.0,5.0,0.24876189231872559,2.011680841445923,0.7499088824531608,116.0,701.0
G,D,"[6, 2]",0.0,5.0,0.2650949954986572,1.9314820766448975,0.6649427131932829,116.0,702.0
,,"(3, 3)",,,,,,116.0,
G,D,"[4, 3]",1.0,1.0,0.5609359741210938,3.3830149173736572,0.6310363912381025,,703.0
G,D,"[5, 3]",1.0,2.0,0.21172499656677246,1.95479416847229,0.7358322005285474,117.0,704.0
R,U,"[4, 3]",1.0,3.0,0.4645700454711914,2.187075138092041,0.7230728255784314,117.0,705.0
R,U,"[3, 3]",-2.0,1.0,0.3783681392669678,1.842254877090454,0.44883822035544185,117.0,706.0
G,D,"[4, 3]",1.0,2.0,0.26360082626342773,1.6043970584869385,0.3200655394930773,117.0,707.0
G,D,"[5, 3]",1.0,3.0,0.25344300270080566,1.9607250690460205,0.6971188331315886,117.0,708.0
,,"(3, 3)",,,,,,117.0,
G,D,"[4, 3]",1.0,1.0,0.6694440841674805,3.2031869888305664,0.5171775580368312,,709.0
G,D,"[5, 3]",1.0,2.0,0.19411301612854004,1.516510009765625,0.31735863388532703,118.0,710.0
R,U,"[4, 3]",1.0,3.0,0.35249805450439453,1.8286190032958984,0.4625958667378834,118.0,711.0
G,D,"[5, 3]",1.0,4.0,0.23769402503967285,1.8020679950714111,0.5642914879258056,118.0,712.0
G,D,"[6, 3]",0.0,4.0,0.34710693359375,1.7654061317443848,0.4133031215912939,118.0,713.0
B,L,"[6, 2]",0.0,4.0,0.25040316581726074,1.9220740795135498,0.6685851122607871,118.0,714.0
,,"(3, 3)",,,,,,118.0,
G,D,"[4, 3]",1.0,1.0,0.7432100772857666,3.2821011543273926,0.7339401244861081,,715.0
G,D,"[5, 3]",1.0,2.0,0.17255496978759766,1.7654569149017334,0.5829215825136895,119.0,716.0
R,U,"[4, 3]",1.0,3.0,0.328920841217041,2.0725960731506348,0.7387318649732081,119.0,717.0
B,L,"[4, 2]",1.0,4.0,0.2294600009918213,1.7182841300964355,0.49063340877969985,119.0,718.0
Y,R,"[4, 3]",1.0,5.0,0.34287381172180176,1.6844241619110107,0.34192326285486413,119.0,719.0
G,D,"[5, 3]",1.0,6.0,0.6636290550231934,2.0984649658203125,0.4403131099162821,119.0,720.0
,,"(3, 3)",,,,,,119.0,
G,D,"[4, 3]",1.0,1.0,0.6852271556854248,3.159198045730591,0.4495008163786489,,721.0
G,D,"[5, 3]",1.0,2.0,0.22388792037963867,1.8967280387878418,0.6627390694857915,120.0,722.0
R,U,"[4, 3]",1.0,3.0,0.25636911392211914,1.8161342144012451,0.5458074375038461,120.0,723.0
B,L,"[4, 2]",1.0,4.0,0.2373800277709961,1.7641398906707764,0.5264784710260485,120.0,724.0
Y,R,"[4, 3]",1.0,5.0,0.2376859188079834,1.6932740211486816,0.4532903167868534,120.0,725.0
G,D,"[5, 3]",1.0,6.0,0.2606770992279053,1.539876937866211,0.2766351450428479,120.0,726.0
,,"(3, 3)",,,,,,120.0,
G,D,"[4, 3]",1.0,1.0,0.5512051582336426,3.449159860610962,0.7256234300164519,,727.0
G,D,"[5, 3]",1.0,2.0,0.1914980411529541,1.5343048572540283,0.3434376576648828,121.0,728.0
R,U,"[4, 3]",1.0,3.0,0.2730560302734375,1.733879804611206,0.4772524494463409,121.0,729.0
B,L,"[4, 2]",1.0,4.0,0.20776700973510742,1.7946078777313232,0.5885728402605355,121.0,730.0
Y,R,"[4, 3]",1.0,5.0,0.2210090160369873,1.947192907333374,0.7186881371145881,121.0,731.0
G,D,"[5, 3]",1.0,6.0,0.3970298767089844,1.8387160301208496,0.44133816474991566,121.0,732.0
,,"(3, 3)",,,,,,121.0,
G,D,"[4, 3]",1.0,1.0,0.7021050453186035,3.6006200313568115,0.3588435158029351,,733.0
G,D,"[5, 3]",1.0,2.0,0.3509697914123535,1.9068629741668701,0.5486608191849547,122.0,734.0
R,U,"[4, 3]",1.0,3.0,0.2754240036010742,1.8745660781860352,0.589908366474338,122.0,735.0
B,L,"[4, 2]",1.0,4.0,0.2387399673461914,1.9658010005950928,0.7222355429558485,122.0,736.0
Y,R,"[4, 3]",1.0,5.0,0.26198506355285645,1.8784418106079102,0.6175683440139639,122.0,737.0
G,D,"[5, 3]",1.0,6.0,0.2596859931945801,1.7720558643341064,0.5063784456841438,122.0,738.0
,,"(3, 3)",,,,,,122.0,
G,D,"[4, 3]",1.0,1.0,0.7974870204925537,3.365492820739746,0.5385184923808364,,739.0
G,D,"[5, 3]",1.0,2.0,0.19275784492492676,1.9189348220825195,0.724028330090736,123.0,740.0
R,U,"[4, 3]",1.0,3.0,0.3241257667541504,1.951901912689209,0.6262690865012508,123.0,741.0
B,L,"[4, 2]",1.0,4.0,0.2971808910369873,1.7847731113433838,0.4942897179531016,123.0,742.0
Y,R,"[4, 3]",1.0,5.0,0.2621300220489502,1.9100310802459717,0.6540421651190016,123.0,743.0
G,D,"[5, 3]",1.0,6.0,0.15544891357421875,1.7848470211029053,0.6224889039660362,123.0,744.0
,,"(3, 3)",,,,,,123.0,
G,D,"[4, 3]",1.0,1.0,0.6746020317077637,3.6833698749542236,0.3894327803866121,,745.0
G,D,"[5, 3]",1.0,2.0,0.275972843170166,1.8072400093078613,0.5301509623195608,124.0,746.0
R,U,"[4, 3]",1.0,3.0,0.25405406951904297,1.5849008560180664,0.31522745718922895,124.0,747.0
B,L,"[4, 2]",1.0,4.0,0.2568948268890381,1.7455799579620361,0.47725365424675087,124.0,748.0
Y,R,"[4, 3]",1.0,5.0,0.2645761966705322,1.570707082748413,0.3149670414969258,124.0,749.0
G,D,"[5, 3]",1.0,6.0,0.28934502601623535,1.9715089797973633,0.669448485683231,124.0,750.0
,,"(3, 3)",,,,,,124.0,
G,D,"[4, 3]",1.0,1.0,0.4944159984588623,3.1710808277130127,0.5739048577219787,,751.0
G,D,"[5, 3]",1.0,2.0,0.21425294876098633,1.4756748676300049,0.266624945052139,125.0,752.0
R,U,"[4, 3]",1.0,3.0,0.520892858505249,1.9651930332183838,0.4316495376546784,125.0,753.0
B,L,"[4, 2]",1.0,4.0,0.24662399291992188,1.5983328819274902,0.3467287575343296,125.0,754.0
Y,R,"[4, 3]",1.0,5.0,0.19061517715454102,1.7942869663238525,0.5907918282425261,125.0,755.0
G,D,"[5, 3]",1.0,6.0,0.1860651969909668,1.8531949520111084,0.6606923387796076,125.0,756.0
,,"(3, 3)",,,,,,125.0,
G,D,"[4, 3]",1.0,1.0,0.6898269653320312,3.1140589714050293,0.3249890139109937,,757.0
G,D,"[5, 3]",1.0,2.0,0.27756595611572266,2.003570079803467,0.7282090896319415,126.0,758.0
R,U,"[4, 3]",1.0,3.0,0.2295989990234375,1.905113935470581,0.6833543519639446,126.0,759.0
B,L,"[4, 2]",1.0,4.0,0.21915102005004883,1.863372802734375,0.630245043997121,126.0,760.0
Y,R,"[4, 3]",1.0,5.0,0.4685828685760498,2.1632280349731445,0.6769088801095537,126.0,761.0
G,D,"[5, 3]",1.0,6.0,0.2254650592803955,1.9349911212921143,0.7116251177522523,126.0,762.0
,,"(3, 3)",,,,,,126.0,
G,D,"[4, 3]",1.0,1.0,0.5265071392059326,2.9855310916900635,0.3810246816834296,,763.0
G,D,"[5, 3]",1.0,2.0,0.2512550354003906,1.6523358821868896,0.38339496860615385,127.0,764.0
R,U,"[4, 3]",1.0,3.0,0.2673158645629883,1.5717709064483643,0.288572155508662,127.0,765.0
B,L,"[4, 2]",1.0,4.0,0.29794812202453613,1.8893020153045654,0.5944151840119292,127.0,766.0
Y,R,"[4, 3]",1.0,5.0,0.21364688873291016,1.9111509323120117,0.7052808039997922,127.0,767.0
G,D,"[5, 3]",1.0,6.0,0.22981500625610352,1.8396129608154297,0.6116787636287656,127.0,768.0
,,"(3, 3)",,,,,,127.0,
G,D,"[4, 3]",1.0,1.0,0.5748310089111328,2.8620829582214355,0.2908356342266782,,769.0
G,D,"[5, 3]",1.0,2.0,0.35408782958984375,1.6130940914154053,0.25402790793568897,128.0,770.0
R,U,"[4, 3]",1.0,3.0,0.3374779224395752,1.7217559814453125,0.3757081352085553,128.0,771.0
Y,R,"[4, 4]",-1.0,2.0,0.3280618190765381,1.9555020332336426,0.6310976945873276,128.0,772.0
B,L,"[4, 3]",1.0,3.0,0.2953779697418213,1.9832789897918701,0.6808634293563598,128.0,773.0
G,D,"[5, 3]",1.0,4.0,0.20598506927490234,1.5315580368041992,0.31296614697090397,128.0,774.0
,,"(3, 3)",,,,,,128.0,
G,D,"[4, 3]",1.0,1.0,0.8875489234924316,3.7243120670318604,0.6368895499604333,,775.0
G,D,"[5, 3]",1.0,2.0,0.2361130714416504,1.527204990386963,0.2811656391237922,129.0,776.0
R,U,"[4, 3]",1.0,3.0,0.2869720458984375,1.9182548522949219,0.632346868114108,129.0,777.0
B,L,"[4, 2]",1.0,4.0,0.22930693626403809,1.8710980415344238,0.6367932234046703,129.0,778.0
Y,R,"[4, 3]",1.0,5.0,0.2475719451904297,1.6814439296722412,0.4351095484033415,129.0,779.0
G,D,"[5, 3]",1.0,6.0,0.25551891326904297,1.5196101665496826,0.25491592220707504,129.0,780.0
,,"(3, 3)",,,,,,129.0,
G,D,"[4, 3]",1.0,1.0,0.9982001781463623,4.021815061569214,0.7431846882658457,,781.0
G,D,"[5, 3]",1.0,2.0,0.1914958953857422,1.5549089908599854,0.3651651001605527,130.0,782.0
R,U,"[4, 3]",1.0,3.0,0.3269810676574707,1.5889911651611328,0.25422589567374576,130.0,783.0
B,L,"[4, 2]",1.0,4.0,0.318634033203125,1.6635620594024658,0.33432330115115266,130.0,784.0
Y,R,"[4, 3]",1.0,5.0,0.28168296813964844,2.00449800491333,0.721680830968402,130.0,785.0
G,D,"[5, 3]",-1.0,5.0,0.04080486297607422,5.456939220428467,0.29578650221687464,130.0,786.0
,,"(3, 3)",,,,,,130.0,
G,D,"[4, 3]",1.0,1.0,0.5793650150299072,4.6998679637908936,0.712002401684068,,787.0
G,D,"[5, 3]",1.0,2.0,0.18794822692871094,1.9175961017608643,0.7295642461317913,131.0,788.0
R,U,"[4, 3]",1.0,3.0,0.2460010051727295,1.9988701343536377,0.7450287655475305,131.0,789.0
B,L,"[4, 2]",1.0,4.0,0.2255399227142334,1.9702999591827393,0.7488824830135874,131.0,790.0
Y,R,"[4, 3]",1.0,5.0,0.2402181625366211,1.7716481685638428,0.5207277196213377,131.0,791.0
G,D,"[5, 3]",1.0,6.0,0.27973198890686035,1.6612029075622559,0.38219511859865285,131.0,792.0
,,"(3, 3)",,,,,,131.0,
G,D,"[4, 3]",1.0,1.0,0.8261158466339111,3.395181894302368,0.27760010523353096,,793.0
G,D,"[5, 3]",1.0,2.0,0.3040440082550049,1.60416579246521,0.2983345042552758,132.0,794.0
R,U,"[4, 3]",1.0,3.0,0.3083229064941406,1.95778489112854,0.6391294852588056,132.0,795.0
B,L,"[4, 2]",1.0,4.0,0.28629016876220703,1.8747107982635498,0.5805182865741805,132.0,796.0
Y,R,"[4, 3]",1.0,5.0,0.2550380229949951,1.9800620079040527,0.7105920334850717,132.0,797.0
G,D,"[5, 3]",1.0,6.0,0.3074018955230713,1.7754180431365967,0.46961690768858455,132.0,798.0
,,"(3, 3)",,,,,,132.0,
G,D,"[4, 3]",1.0,1.0,0.6759381294250488,3.619943141937256,0.6228884067077746,,799.0
G,D,"[5, 3]",1.0,2.0,0.3368051052093506,1.6949810981750488,0.3513505502722411,133.0,800.0
R,U,"[4, 3]",1.0,3.0,0.2818930149078369,1.771723985671997,0.47291647192562286,133.0,801.0
B,L,"[4, 2]",1.0,4.0,0.4163060188293457,1.9800491333007812,0.552899584385435,133.0,802.0
Y,R,"[4, 3]",1.0,5.0,0.5469069480895996,2.084599018096924,0.5376632396350922,133.0,803.0
G,D,"[5, 3]",1.0,6.0,0.7005200386047363,2.219285011291504,0.50705130171334,133.0,804.0
,,"(3, 3)",,,,,,133.0,
G,D,"[4, 3]",-1.0,-1.0,0.7618019580841064,3.1658730506896973,0.28974152922814567,,805.0
B,L,"[4, 2]",-1.0,-2.0,0.3343231678009033,1.9848268032073975,0.640912886988138,134.0,806.0
R,U,"[3, 2]",-1.0,-3.0,0.20704293251037598,1.8422608375549316,0.6333140061159259,134.0,807.0
Y,R,"[3, 3]",-2.0,-5.0,0.1871659755706787,1.8825709819793701,0.6823860593521521,134.0,808.0
G,D,"[4, 3]",-1.0,-6.0,0.28288984298706055,1.8079121112823486,0.5072412760505467,134.0,809.0
R,U,"[3, 3]",-2.0,-8.0,0.28991103172302246,2.0416510105133057,0.7486371166638545,134.0,810.0
,,"(3, 3)",,,,,,134.0,
B,L,"[3, 2]",-1.0,-1.0,0.8627760410308838,3.3056070804595947,0.2882231317608076,,811.0
B,L,"[3, 1]",1.0,0.0,0.30213117599487305,1.6844940185546875,0.3726267263149426,135.0,812.0
B,L,"[3, 0]",0.0,0.0,0.3140687942504883,1.8852510452270508,0.5742774469647617,135.0,813.0
Y,R,"[3, 1]",1.0,1.0,0.26254916191101074,1.593351125717163,0.31795552323419596,135.0,814.0
Y,R,"[3, 2]",-1.0,0.0,0.26782798767089844,1.9957160949707031,0.7133996208560872,135.0,815.0
G,D,"[4, 2]",-1.0,-1.0,0.23663902282714844,1.8726599216461182,0.619410462791746,135.0,816.0
,,"(3, 3)",,,,,,135.0,
B,L,"[3, 2]",-1.0,-1.0,0.43999195098876953,3.100908041000366,0.5206614154115787,,817.0
B,L,"[3, 1]",1.0,0.0,0.1991410255432129,1.7517390251159668,0.5390034484150256,136.0,818.0
Y,R,"[3, 2]",-1.0,-1.0,0.5324358940124512,1.7974390983581543,0.2532757435325754,136.0,819.0
B,L,"[3, 1]",1.0,0.0,0.31720900535583496,1.7611520290374756,0.4309525532949371,136.0,820.0
B,L,"[3, 0]",0.0,0.0,0.26667308807373047,1.7661559581756592,0.4804588918426899,136.0,821.0
R,U,"[2, 0]",0.0,0.0,0.39032697677612305,1.754715919494629,0.36862390309289383,136.0,822.0
,,"(3, 3)",,,,,,136.0,
B,L,"[3, 2]",-1.0,-1.0,0.5009579658508301,3.0195839405059814,0.3715952610015109,,823.0
B,L,"[3, 1]",1.0,0.0,0.17868494987487793,1.7418880462646484,0.5467107907859681,137.0,824.0
B,L,"[3, 0]",0.0,0.0,0.27867794036865234,1.7058899402618408,0.41932774840795034,137.0,825.0
Y,R,"[3, 1]",1.0,1.0,0.36994290351867676,1.933426856994629,0.5526584988815678,137.0,826.0
Y,R,"[3, 2]",-1.0,0.0,0.33048200607299805,1.8431777954101562,0.49591124343306514,137.0,827.0
G,D,"[4, 2]",-1.0,-1.0,0.21362519264221191,1.9020910263061523,0.6810833986787872,137.0,828.0
,,"(3, 3)",,,,,,137.0,
B,L,"[3, 2]",-1.0,-1.0,0.48203086853027344,3.0767099857330322,0.5914777013476897,,829.0
B,L,"[3, 1]",1.0,0.0,0.20937490463256836,1.9310619831085205,0.7224169079671164,138.0,830.0
Y,R,"[3, 2]",-1.0,-1.0,0.19778084754943848,1.8730840682983398,0.6791075564840453,138.0,831.0
G,D,"[4, 2]",-1.0,-2.0,0.21162700653076172,1.5843029022216797,0.38030592824702103,138.0,832.0
R,U,"[3, 2]",-1.0,-3.0,0.24431085586547852,1.5555639266967773,0.30266331333084423,138.0,833.0
B,L,"[3, 1]",1.0,-2.0,0.21415376663208008,1.6687819957733154,0.4378594176240108,138.0,834.0
,,"(3, 3)",,,,,,138.0,
B,L,"[3, 2]",-1.0,-1.0,0.5246751308441162,3.1650209426879883,0.6859205851610868,,835.0
B,L,"[3, 1]",1.0,0.0,0.10207509994506836,1.6079859733581543,0.4941286663740261,139.0,836.0
B,L,"[3, 0]",0.0,0.0,0.28504014015197754,1.7220470905303955,0.4329998095756617,139.0,837.0
Y,R,"[3, 1]",1.0,1.0,0.29718995094299316,1.6863160133361816,0.36939996725556107,139.0,838.0
G,D,"[4, 1]",-1.0,0.0,0.3977499008178711,2.1002209186553955,0.6859863283748786,139.0,839.0
B,L,"[4, 0]",0.0,0.0,0.23543000221252441,1.8590900897979736,0.6118093676190802,139.0,840.0
,,"(3, 3)",,,,,,139.0,
B,L,"[3, 2]",-1.0,-1.0,0.9173071384429932,3.3376591205596924,0.33324534501253916,,841.0
B,L,"[3, 1]",1.0,0.0,0.2049720287322998,1.553131103515625,0.33630898354152355,140.0,842.0
B,L,"[3, 0]",0.0,0.0,0.1872270107269287,1.8125300407409668,0.6153052081913779,140.0,843.0
R,U,"[2, 0]",0.0,0.0,0.21826982498168945,1.6510028839111328,0.43304878500443783,140.0,844.0
Y,R,"[2, 1]",1.0,1.0,0.3862440586090088,1.8729782104492188,0.4728837720024255,140.0,845.0
G,D,"[3, 1]",1.0,2.0,0.9376931190490723,2.3225128650665283,0.3787728768085057,140.0,846.0
,,"(3, 3)",,,,,,140.0,
B,L,"[3, 2]",-1.0,-1.0,0.582705020904541,3.101130962371826,0.3133445534396711,,847.0
B,L,"[3, 1]",1.0,0.0,0.22956204414367676,1.5725681781768799,0.33618190764197137,141.0,848.0
R,U,"[2, 1]",1.0,1.0,0.4018900394439697,1.9731640815734863,0.5589914961281566,141.0,849.0
G,D,"[3, 1]",1.0,2.0,0.26645493507385254,1.9297630786895752,0.6554268229814377,141.0,850.0
Y,R,"[3, 2]",-1.0,1.0,0.24924182891845703,1.7749371528625488,0.5140310103334923,141.0,851.0
B,L,"[3, 1]",1.0,2.0,0.676131010055542,2.296567916870117,0.6101534281622252,141.0,852.0
,,"(3, 3)",,,,,,141.0,
B,L,"[3, 2]",-1.0,-1.0,0.49196505546569824,3.254162073135376,0.6811482857303525,,853.0
B,L,"[3, 1]",1.0,0.0,0.2170419692993164,1.6859049797058105,0.45063689497483417,142.0,854.0
R,U,"[2, 1]",1.0,1.0,0.296644926071167,1.8337609767913818,0.5342428072217251,142.0,855.0
G,D,"[3, 1]",1.0,2.0,0.20350408554077148,1.8315668106079102,0.6159676670693008,142.0,856.0
B,L,"[3, 0]",0.0,2.0,0.38807106018066406,1.9460468292236328,0.5453120207230093,142.0,857.0
Y,R,"[3, 1]",1.0,3.0,0.3348560333251953,1.7440440654754639,0.40611246386692557,142.0,858.0
,,"(3, 3)",,,,,,142.0,
B,L,"[3, 2]",-1.0,-1.0,0.7733409404754639,3.370666027069092,0.5767781516686163,,859.0
B,L,"[3, 1]",1.0,0.0,0.2603931427001953,1.6909480094909668,0.43450177262107204,143.0,860.0
R,U,"[2, 1]",1.0,1.0,0.3753800392150879,1.9322221279144287,0.5501076690098926,143.0,861.0
G,D,"[3, 1]",1.0,2.0,0.26128292083740234,1.8361330032348633,0.5693582671246156,143.0,862.0
R,U,"[2, 1]",1.0,3.0,0.5368010997772217,2.0203959941864014,0.4734229278125629,143.0,863.0
R,U,"[1, 1]",1.0,4.0,0.37620091438293457,1.9745030403137207,0.5976907034204648,143.0,864.0
,,"(3, 3)",,,,,,143.0,
B,L,"[3, 2]",-1.0,-1.0,0.9247558116912842,3.621169090270996,0.6188369023735916,,865.0
B,L,"[3, 1]",1.0,0.0,0.1933910846710205,1.6155610084533691,0.41815277610650414,144.0,866.0
R,U,"[2, 1]",1.0,1.0,0.34497690200805664,1.670652151107788,0.32218972748490654,144.0,867.0
G,D,"[3, 1]",1.0,2.0,0.5091710090637207,2.2110021114349365,0.6993593557781635,144.0,868.0
R,U,"[2, 1]",1.0,3.0,0.28368496894836426,1.7516310214996338,0.45131545853467897,144.0,869.0
R,U,"[1, 1]",1.0,4.0,0.33269691467285156,1.698655128479004,0.3501291847444283,144.0,870.0
,,"(3, 3)",,,,,,144.0,
B,L,"[3, 2]",-1.0,-1.0,0.6034560203552246,3.489673137664795,0.7061194099236556,,871.0
B,L,"[3, 1]",1.0,0.0,0.2245328426361084,1.5053980350494385,0.27884377529779836,145.0,872.0
R,U,"[2, 1]",-2.0,0.0,1.3785529136657715,2.7516140937805176,0.3302696472183456,145.0,873.0
R,U,"[1, 1]",1.0,1.0,0.27010583877563477,1.9991710186004639,0.7126020880924968,145.0,874.0
G,D,"[2, 1]",1.0,2.0,0.25601816177368164,2.000148057937622,0.7294456061722262,145.0,875.0
R,U,"[1, 1]",1.0,3.0,0.23208093643188477,1.978729009628296,0.72471137098139,145.0,876.0
,,"(3, 3)",,,,,,145.0,
R,U,"[2, 3]",1.0,1.0,0.7075059413909912,3.644354820251465,0.619281266422777,,877.0
R,U,"[1, 3]",-1.0,0.0,0.4585740566253662,1.7426068782806396,0.27892855792588805,146.0,878.0
G,D,"[2, 3]",1.0,1.0,0.39945101737976074,1.9488630294799805,0.5442033538024094,146.0,879.0
Y,R,"[2, 4]",-2.0,1.0,1.0474610328674316,2.541674852371216,0.46920371670686495,146.0,880.0
Y,R,"[2, 5]",-1.0,0.0,0.39752197265625,2.053915023803711,0.6396274652542444,146.0,881.0
G,D,"[3, 5]",-1.0,-1.0,0.2935488224029541,1.7967219352722168,0.5032805697817093,146.0,882.0
,,"(3, 3)",,,,,,146.0,
R,U,"[2, 3]",1.0,1.0,0.5768778324127197,3.061905860900879,0.34863347753407836,,883.0
R,U,"[1, 3]",-1.0,0.0,0.3419220447540283,1.6703388690948486,0.31902972535027907,147.0,884.0
G,D,"[2, 3]",1.0,1.0,0.28552985191345215,2.038160800933838,0.7400678252971618,147.0,885.0
G,D,"[3, 3]",-2.0,-1.0,0.44931983947753906,2.1586480140686035,0.6989545472415803,147.0,886.0
R,U,"[2, 3]",1.0,0.0,0.2524561882019043,1.5439441204071045,0.27684667953998504,147.0,887.0
R,U,"[1, 3]",-2.0,0.0,1.3685870170593262,3.128925085067749,0.7386788971084088,147.0,888.0
,,"(3, 3)",,,,,,147.0,
R,U,"[2, 3]",-2.0,0.0,1.2532060146331787,4.2991790771484375,0.27177212086383973,,889.0
R,U,"[1, 3]",-1.0,-1.0,0.24639105796813965,1.569732904434204,0.32441286903460276,148.0,890.0
G,D,"[2, 3]",1.0,0.0,0.30252790451049805,1.5942158699035645,0.28555218665377174,148.0,891.0
G,D,"[3, 3]",-2.0,-2.0,0.4826200008392334,2.105952024459839,0.6077963842653749,148.0,892.0
B,L,"[3, 2]",-1.0,-3.0,0.26189398765563965,1.579089879989624,0.3204795423030618,148.0,893.0
Y,R,"[3, 3]",-2.0,-5.0,0.2344980239868164,1.6443228721618652,0.41499056877646334,148.0,894.0
,,"(3, 3)",,,,,,148.0,
G,D,"[4, 3]",-2.0,0.0,1.0231001377105713,3.32383394241333,0.2889588338789654,,895.0
R,U,"[3, 3]",-2.0,0.0,1.076937198638916,2.8007030487060547,0.6891778734235989,149.0,896.0
R,U,"[2, 3]",1.0,1.0,0.23005986213684082,1.6123459339141846,0.3687849019725922,149.0,897.0
G,D,"[3, 3]",-2.0,-1.0,0.6125860214233398,2.2727909088134766,0.6412022604786597,149.0,898.0
B,L,"[3, 2]",-1.0,-2.0,0.9559590816497803,2.3912580013275146,0.4327173903097954,149.0,899.0
B,L,"[3, 1]",-2.0,-2.0,1.4139301776885986,2.8778669834136963,0.4271884441401934,149.0,900.0
,,"(3, 3)",,,,,,149.0,
G,D,"[4, 3]",-1.0,-1.0,0.6814248561859131,3.435167074203491,0.5290826718431323,,901.0
R,U,"[3, 3]",-2.0,-3.0,0.23511910438537598,1.7631750106811523,0.5255208443084725,150.0,902.0
G,D,"[4, 3]",-1.0,-4.0,0.41851091384887695,2.113039970397949,0.6886134673117957,150.0,903.0
B,L,"[4, 2]",-1.0,-5.0,0.16880106925964355,1.821437120437622,0.6433464824078554,150.0,904.0
B,L,"[4, 1]",-1.0,-6.0,0.1942739486694336,1.6860501766204834,0.4962008608593749,150.0,905.0
Y,R,"[4, 2]",-1.0,-7.0,0.182420015335083,1.7908790111541748,0.587123562376678,150.0,906.0
,,"(3, 3)",,,,,,150.0,
R,U,"[2, 3]",1.0,1.0,0.7422168254852295,3.0635530948638916,0.3175562805758115,,907.0
R,U,"[1, 3]",-1.0,0.0,0.2927970886230469,1.7640700340270996,0.4814659553587619,151.0,908.0
R,U,"[0, 3]",0.0,0.0,0.3579850196838379,1.6835169792175293,0.3153696982414585,151.0,909.0
G,D,"[1, 3]",-1.0,-1.0,0.3556981086730957,2.010565996170044,0.6422348385073532,151.0,910.0
G,D,"[2, 3]",1.0,0.0,0.2837250232696533,1.6135749816894531,0.3227437749260919,151.0,911.0
G,D,"[3, 3]",-2.0,-2.0,0.5593240261077881,1.967228889465332,0.40676022718635096,151.0,912.0
,,"(3, 3)",,,,,,151.0,
R,U,"[2, 3]",1.0,1.0,0.5621449947357178,3.368751049041748,0.5420657140720863,,913.0
G,D,"[3, 3]",-2.0,-1.0,0.42612695693969727,1.8334259986877441,0.40875256005018523,152.0,914.0
R,U,"[2, 3]",1.0,0.0,0.3875999450683594,1.9487528800964355,0.5575313731037943,152.0,915.0
R,U,"[1, 3]",-2.0,0.0,1.2859351634979248,2.6543078422546387,0.3456223524831831,152.0,916.0
R,U,"[0, 3]",0.0,0.0,0.2638888359069824,1.937180995941162,0.6822553374560905,152.0,917.0
B,L,"[0, 2]",0.0,0.0,0.3309319019317627,1.9443299770355225,0.609869952552704,152.0,918.0
,,"(3, 3)",,,,,,152.0,
G,D,"[4, 3]",-1.0,-1.0,0.7824060916900635,3.2918717861175537,0.5020020034991581,,919.0
R,U,"[3, 3]",-2.0,-3.0,0.2766709327697754,1.659742832183838,0.37858661369941937,153.0,920.0
R,U,"[2, 3]",1.0,-2.0,0.20886683464050293,1.5550949573516846,0.3502237658864466,153.0,921.0
R,U,"[1, 3]",-1.0,-3.0,0.48302197456359863,1.7595360279083252,0.2599959181278111,153.0,922.0
B,L,"[1, 2]",1.0,-2.0,0.261185884475708,1.9411239624023438,0.6841158191468277,153.0,923.0
B,L,"[1, 1]",1.0,-1.0,0.22747015953063965,1.7592580318450928,0.5267750723043243,153.0,924.0
,,"(3, 3)",,,,,,153.0,
R,U,"[2, 3]",1.0,1.0,0.5132050514221191,3.0000460147857666,0.5103357855958983,,925.0
B,L,"[2, 2]",-2.0,1.0,1.3443901538848877,2.886251926422119,0.5130721241751477,154.0,926.0
B,L,"[2, 1]",1.0,2.0,0.274655818939209,1.5496089458465576,0.2630663680758448,154.0,927.0
B,L,"[2, 0]",0.0,2.0,0.34955286979675293,2.039390802383423,0.6853897173094041,154.0,928.0
Y,R,"[2, 1]",1.0,3.0,0.3168799877166748,2.016871929168701,0.6857102282809491,154.0,929.0
Y,R,"[2, 2]",1.0,4.0,0.2868530750274658,1.876985788345337,0.5794063011983301,154.0,930.0
,,"(3, 3)",,,,,,154.0,
R,U,"[2, 3]",1.0,1.0,0.5746109485626221,3.287307024002075,0.6669319582809319,,931.0
B,L,"[2, 2]",1.0,2.0,0.2622520923614502,1.7151830196380615,0.44889071411334125,155.0,932.0
Y,R,"[2, 3]",1.0,3.0,0.31967711448669434,1.5965960025787354,0.2623236275603764,155.0,933.0
B,L,"[2, 2]",1.0,4.0,0.6093859672546387,1.9004740715026855,0.29618052226285146,155.0,934.0
Y,R,"[2, 3]",1.0,5.0,0.48067712783813477,2.1610090732574463,0.6734540979953754,155.0,935.0
B,L,"[2, 2]",1.0,6.0,0.47674989700317383,2.0711569786071777,0.5946529310093931,155.0,936.0
,,"(3, 3)",,,,,,155.0,
R,U,"[2, 3]",1.0,1.0,0.6424810886383057,2.9197471141815186,0.3316823286508949,,937.0
B,L,"[2, 2]",1.0,2.0,0.3810279369354248,2.1071279048919678,0.7215237366935103,156.0,938.0
Y,R,"[2, 3]",1.0,3.0,0.22814416885375977,1.8685929775238037,0.6402791328399302,156.0,939.0
B,L,"[2, 2]",1.0,4.0,0.2113950252532959,1.8940091133117676,0.6842572538053759,156.0,940.0
Y,R,"[2, 3]",1.0,5.0,0.18659210205078125,1.872894048690796,0.6737710223766368,156.0,941.0
B,L,"[2, 2]",1.0,6.0,0.266895055770874,1.9591760635375977,0.6830708461225482,156.0,942.0
,,"(3, 3)",,,,,,156.0,
R,U,"[2, 3]",-2.0,0.0,1.1859471797943115,4.192049026489258,0.5087275567080778,,943.0
R,U,"[1, 3]",-1.0,-1.0,0.3323500156402588,1.8572320938110352,0.5158692238783269,157.0,944.0
B,L,"[1, 2]",1.0,0.0,0.26378417015075684,1.7142090797424316,0.4303262240566565,157.0,945.0
Y,R,"[1, 3]",-1.0,-1.0,0.2919580936431885,1.9730479717254639,0.6697093122607136,157.0,946.0
B,L,"[1, 2]",1.0,0.0,0.1842179298400879,1.7380650043487549,0.5412764220269408,157.0,947.0
B,L,"[1, 1]",1.0,1.0,0.2519381046295166,1.8702690601348877,0.6115656776589271,157.0,948.0
,,"(3, 3)",,,,,,157.0,
G,D,"[4, 3]",-1.0,-1.0,0.7278702259063721,3.334041118621826,0.36243954974252535,,949.0
G,D,"[5, 3]",-1.0,-2.0,0.3191680908203125,1.673058032989502,0.3522574833942089,158.0,950.0
B,L,"[5, 2]",-1.0,-3.0,0.2270817756652832,1.858902931213379,0.6276416838599176,158.0,951.0
B,L,"[5, 1]",-1.0,-4.0,0.18612408638000488,1.891556978225708,0.7026734578890506,158.0,952.0
Y,R,"[5, 2]",-1.0,-4.0,0.034555912017822266,5.702675104141235,0.5386846022471843,158.0,953.0
Y,R,"[5, 3]",-1.0,-5.0,0.28023791313171387,1.9197189807891846,0.6417473556759984,158.0,954.0
,,"(3, 3)",,,,,,158.0,
R,U,"[2, 3]",1.0,1.0,0.5351932048797607,3.291926860809326,0.5005823121311259,,955.0
R,U,"[1, 3]",-1.0,0.0,0.28365206718444824,1.5515460968017578,0.2523167392257302,159.0,956.0
B,L,"[1, 2]",1.0,1.0,0.34062886238098145,2.0314841270446777,0.6833244017572913,159.0,957.0
Y,R,"[1, 3]",-1.0,0.0,0.1955859661102295,1.4836511611938477,0.28409215196340165,159.0,958.0
B,L,"[1, 2]",1.0,1.0,0.2671358585357666,1.5718510150909424,0.28937335215561055,159.0,959.0
B,L,"[1, 1]",1.0,2.0,0.28784918785095215,1.5627341270446777,0.2854019539634908,159.0,960.0
,,"(3, 3)",,,,,,159.0,
R,U,"[2, 3]",1.0,1.0,0.5982141494750977,3.143165111541748,0.36203040897758476,,961.0
R,U,"[1, 3]",-1.0,0.0,0.5492599010467529,1.998033046722412,0.4432673101297767,160.0,962.0
B,L,"[1, 2]",1.0,1.0,0.3351569175720215,2.0211429595947266,0.6808102145471725,160.0,963.0
B,L,"[1, 1]",1.0,2.0,0.24350595474243164,1.6373851299285889,0.3853436597225299,160.0,964.0
B,L,"[1, 0]",0.0,2.0,0.5202541351318359,2.0831918716430664,0.5517575697633779,160.0,965.0
G,D,"[2, 0]",0.0,2.0,0.25197887420654297,1.5045130252838135,0.2565570935321792,160.0,966.0
,,"(3, 3)",,,,,,160.0,
R,U,"[2, 3]",1.0,1.0,0.615851879119873,2.827099084854126,0.4500838072485897,,967.0
B,L,"[2, 2]",1.0,2.0,0.2971971035003662,1.8555200099945068,0.5555503633263406,161.0,968.0
B,L,"[2, 1]",1.0,3.0,0.2417769432067871,1.579559087753296,0.33535216608299423,161.0,969.0
G,D,"[3, 1]",1.0,4.0,0.4837620258331299,2.1140761375427246,0.6158241332342229,161.0,970.0
G,D,"[4, 1]",-1.0,3.0,0.29298901557922363,1.66404390335083,0.36339199058200206,161.0,971.0
B,L,"[4, 0]",0.0,3.0,0.2414379119873047,1.8903799057006836,0.6367805159201585,161.0,972.0
,,"(3, 3)",,,,,,161.0,
R,U,"[2, 3]",1.0,1.0,0.9107520580291748,3.806428909301758,0.7266288182954239,,973.0
B,L,"[2, 2]",1.0,2.0,0.21158599853515625,1.8655540943145752,0.6588836220382588,162.0,974.0
B,L,"[2, 1]",1.0,3.0,0.21471190452575684,1.843351125717163,0.6357089768321138,162.0,975.0
G,D,"[3, 1]",1.0,4.0,0.22777295112609863,1.6932299137115479,0.46267423353731263,162.0,976.0
Y,R,"[3, 2]",-1.0,3.0,0.32543110847473145,1.6025948524475098,0.28219941237532903,162.0,977.0
B,L,"[3, 1]",1.0,4.0,0.7248890399932861,1.9902148246765137,0.25593211130373095,162.0,978.0
,,"(3, 3)",,,,,,162.0,
R,U,"[2, 3]",-2.0,0.0,1.1819539070129395,4.742841005325317,0.6150350205468811,,979.0
R,U,"[1, 3]",-1.0,-1.0,0.22166705131530762,1.5726699829101562,0.3379156277199116,163.0,980.0
B,L,"[1, 2]",1.0,0.0,0.31113100051879883,1.9401459693908691,0.6277077349284145,163.0,981.0
B,L,"[1, 1]",1.0,1.0,0.20599603652954102,1.5448710918426514,0.3395562147054388,163.0,982.0
Y,R,"[1, 2]",1.0,2.0,0.4218330383300781,1.850193977355957,0.42292290529815013,163.0,983.0
B,L,"[1, 1]",1.0,3.0,0.31700897216796875,1.5967597961425781,0.26987125811780116,163.0,984.0
,,"(3, 3)",,,,,,163.0,
B,L,"[3, 2]",-1.0,-1.0,0.6224689483642578,3.5405209064483643,0.6103101852192224,,985.0
G,D,"[4, 2]",-1.0,-2.0,0.2926359176635742,1.7168447971343994,0.4271441243794426,164.0,986.0
R,U,"[3, 2]",-1.0,-3.0,0.25925397872924805,1.551224946975708,0.2951254589919878,164.0,987.0
Y,R,"[3, 3]",-2.0,-5.0,0.24209904670715332,1.6084740161895752,0.3705816828541772,164.0,988.0
B,L,"[3, 2]",-1.0,-6.0,0.3725759983062744,1.6618881225585938,0.28219201775727837,164.0,989.0
R,U,"[2, 2]",1.0,-5.0,0.854154109954834,2.568690061569214,0.7008025761048235,164.0,990.0
,,"(3, 3)",,,,,,164.0,
R,U,"[2, 3]",1.0,1.0,0.7696659564971924,3.076977014541626,0.3613728296485065,,991.0
B,L,"[2, 2]",1.0,2.0,0.400648832321167,1.8042302131652832,0.39916263964557464,165.0,992.0
Y,R,"[2, 3]",1.0,3.0,0.328341007232666,1.6281509399414062,0.2939701615606587,165.0,993.0
B,L,"[2, 2]",1.0,4.0,0.28157615661621094,1.6896631717681885,0.4001855196525224,165.0,994.0
Y,R,"[2, 3]",1.0,5.0,0.51190185546875,1.9569199085235596,0.4404386891836238,165.0,995.0
B,L,"[2, 2]",1.0,6.0,0.2716689109802246,2.015194892883301,0.7387638742225635,165.0,996.0
,,"(3, 3)",,,,,,165.0,
R,U,"[2, 3]",1.0,1.0,0.7409770488739014,3.38600492477417,0.6580632411361953,,997.0
B,L,"[2, 2]",1.0,2.0,0.25690484046936035,1.8148140907287598,0.5565037008349374,166.0,998.0
Y,R,"[2, 3]",1.0,3.0,0.30523085594177246,1.5838229656219482,0.27369793613545296,166.0,999.0
B,L,"[2, 2]",1.0,4.0,0.3901820182800293,1.7531177997589111,0.36039803033618817,166.0,1000.0
Y,R,"[2, 3]",1.0,5.0,0.3870429992675781,1.8198668956756592,0.429900843123832,166.0,1001.0
B,L,"[2, 2]",1.0,6.0,0.17474603652954102,1.7504971027374268,0.5638190121296172,166.0,1002.0
,,"(3, 3)",,,,,,166.0,
R,U,"[2, 3]",1.0,1.0,0.7292699813842773,3.500154972076416,0.464263796082636,,1003.0
B,L,"[2, 2]",1.0,2.0,0.3541989326477051,1.8818628787994385,0.5125877875610598,167.0,1004.0
Y,R,"[2, 3]",1.0,3.0,0.2576460838317871,1.668759822845459,0.3979711083481593,167.0,1005.0
B,L,"[2, 2]",1.0,4.0,0.30709099769592285,1.6849310398101807,0.36636970238935984,167.0,1006.0
Y,R,"[2, 3]",1.0,5.0,0.24873900413513184,1.938499927520752,0.6879343234968045,167.0,1007.0
B,L,"[2, 2]",1.0,6.0,0.1575939655303955,1.4421439170837402,0.28039735260757015,167.0,1008.0
,,"(3, 3)",,,,,,167.0,
R,U,"[2, 3]",-2.0,0.0,1.1571998596191406,4.092689037322998,0.6063932473769076,,1009.0
R,U,"[1, 3]",-1.0,-1.0,0.2512209415435791,1.597593069076538,0.354218441913156,168.0,1010.0
B,L,"[1, 2]",1.0,0.0,0.26323914527893066,1.5774171352386475,0.29832786708884895,168.0,1011.0
Y,R,"[1, 3]",-1.0,-1.0,0.28234100341796875,1.606848955154419,0.3052891434290775,168.0,1012.0
B,L,"[1, 2]",1.0,0.0,0.28974390029907227,1.9357550144195557,0.6406328231214581,168.0,1013.0
B,L,"[1, 1]",1.0,1.0,0.23621296882629395,1.6769537925720215,0.4512078250105009,168.0,1014.0
,,"(3, 3)",,,,,,168.0,
B,L,"[3, 2]",-2.0,0.0,1.135857105255127,3.7299680709838867,0.3813875823227153,,1015.0
B,L,"[3, 1]",1.0,1.0,0.24140095710754395,1.8595919609069824,0.60740947444925,169.0,1016.0
B,L,"[3, 0]",0.0,1.0,0.19957494735717773,1.9309718608856201,0.7216573666221595,169.0,1017.0
G,D,"[4, 0]",0.0,1.0,0.20938897132873535,1.7143571376800537,0.502782202345923,169.0,1018.0
Y,R,"[4, 1]",-1.0,0.0,0.3415641784667969,1.6047849655151367,0.257899326182864,169.0,1019.0
B,L,"[4, 0]",0.0,0.0,0.26762890815734863,1.6413230895996094,0.3656781231972284,169.0,1020.0
,,"(3, 3)",,,,,,169.0,
B,L,"[3, 2]",-2.0,0.0,1.1691150665283203,3.6543421745300293,0.32026695690053175,,1021.0
B,L,"[3, 1]",1.0,1.0,0.24494194984436035,1.8974549770355225,0.6506266667994635,170.0,1022.0
B,L,"[3, 0]",-1.0,1.0,0.07953405380249023,5.83496618270874,0.6024418057796419,170.0,1023.0
B,L,"[3, 0]",0.0,1.0,0.2317368984222412,1.8773250579833984,0.6463528737445927,170.0,1024.0
R,U,"[2, 0]",0.0,1.0,0.22346091270446777,1.6287331581115723,0.3921590858891726,170.0,1025.0
Y,R,"[2, 1]",1.0,2.0,0.28316783905029297,1.5639820098876953,0.2728353583554522,170.0,1026.0
,,"(3, 3)",,,,,,170.0,
B,L,"[3, 2]",-1.0,-1.0,0.5797910690307617,3.1879119873046875,0.2609543322741756,,1027.0
Y,R,"[3, 3]",-2.0,-3.0,0.3180239200592041,1.7622852325439453,0.4397545251496966,171.0,1028.0
G,D,"[4, 3]",-1.0,-4.0,0.21960091590881348,1.8044159412384033,0.5774331014847119,171.0,1029.0
R,U,"[3, 3]",-2.0,-6.0,0.42175984382629395,1.8621208667755127,0.4395737446492004,171.0,1030.0
G,D,"[4, 3]",-1.0,-7.0,0.20092010498046875,1.8003461360931396,0.5897220658413492,171.0,1031.0
B,L,"[4, 2]",-1.0,-8.0,0.3939638137817383,1.870239019393921,0.47692987031305845,171.0,1032.0
,,"(3, 3)",,,,,,171.0,
G,D,"[4, 3]",-1.0,-1.0,0.8992350101470947,3.753490924835205,0.6968990553609642,,1033.0
G,D,"[5, 3]",-1.0,-2.0,0.5698339939117432,2.2363791465759277,0.6500163378186075,172.0,1034.0
B,L,"[5, 2]",-1.0,-3.0,0.21455597877502441,1.895967960357666,0.679480601585575,172.0,1035.0
Y,R,"[5, 3]",-1.0,-4.0,0.2726302146911621,1.5743210315704346,0.287567635924072,172.0,1036.0
Y,R,"[5, 4]",-1.0,-5.0,0.2719857692718506,1.59122896194458,0.3120884960290022,172.0,1037.0
R,U,"[4, 4]",-1.0,-6.0,0.237684965133667,1.5591790676116943,0.3213676812062606,172.0,1038.0
,,"(3, 3)",,,,,,172.0,
R,U,"[2, 3]",1.0,1.0,0.5994060039520264,3.3045480251312256,0.6587803104857244,,1039.0
R,U,"[1, 3]",-1.0,0.0,0.23430895805358887,1.8597970008850098,0.6186683446827641,173.0,1040.0
B,L,"[1, 2]",1.0,1.0,0.13976407051086426,1.6780929565429688,0.5301173685447762,173.0,1041.0
Y,R,"[1, 3]",-1.0,0.0,0.26746582984924316,1.5649981498718262,0.2786916935029819,173.0,1042.0
B,L,"[1, 2]",1.0,1.0,0.3074991703033447,1.6286900043487549,0.3241770515578088,173.0,1043.0
B,L,"[1, 1]",1.0,2.0,0.33220386505126953,1.7042579650878906,0.37834926721965323,173.0,1044.0
,,"(3, 3)",,,,,,173.0,
R,U,"[2, 3]",1.0,1.0,0.5692880153656006,2.8830649852752686,0.27829718010958865,,1045.0
B,L,"[2, 2]",1.0,2.0,0.5348188877105713,2.171138048171997,0.6325315378738842,174.0,1046.0
B,L,"[2, 1]",1.0,3.0,0.6619720458984375,1.9525179862976074,0.28516197856369024,174.0,1047.0
B,L,"[2, 0]",0.0,3.0,0.5907750129699707,2.3337109088897705,0.7351141158888983,174.0,1048.0
R,U,"[1, 0]",0.0,3.0,0.3356750011444092,1.684587001800537,0.3534846470022817,174.0,1049.0
G,D,"[2, 0]",0.0,3.0,0.4812331199645996,2.1057119369506836,0.6257614223544482,174.0,1050.0
,,"(3, 3)",,,,,,174.0,
R,U,"[2, 3]",1.0,1.0,0.735954999923706,3.1883089542388916,0.4475442047257767,,1051.0
B,L,"[2, 2]",1.0,2.0,0.26166796684265137,1.6646759510040283,0.39573052126202224,175.0,1052.0
B,L,"[2, 1]",1.0,3.0,0.23738813400268555,1.5540869235992432,0.31659466998936736,175.0,1053.0
B,L,"[2, 0]",0.0,3.0,0.37877511978149414,1.805717945098877,0.4223305555473817,175.0,1054.0
G,D,"[3, 0]",0.0,3.0,0.3868429660797119,1.7117478847503662,0.33410191027877023,175.0,1055.0
Y,R,"[3, 1]",1.0,4.0,0.32720112800598145,2.051097869873047,0.7181937192930721,175.0,1056.0
,,"(3, 3)",,,,,,175.0,
R,U,"[2, 3]",1.0,1.0,0.6347999572753906,3.4027960300445557,0.6544703785890222,,1057.0
B,L,"[2, 2]",1.0,2.0,0.24431610107421875,1.9625718593597412,0.7169179610196478,176.0,1058.0
B,L,"[2, 1]",1.0,3.0,0.1702098846435547,1.4395649433135986,0.25693772058589803,176.0,1059.0
Y,R,"[2, 2]",1.0,4.0,0.4656960964202881,1.8985059261322021,0.43856011502069003,176.0,1060.0
Y,R,"[2, 3]",1.0,5.0,0.2777070999145508,1.992600917816162,0.7143370254573373,176.0,1061.0
Y,R,"[2, 4]",-1.0,4.0,0.2906670570373535,2.0008809566497803,0.6987313311540213,176.0,1062.0
,,"(3, 3)",,,,,,176.0,
R,U,"[2, 3]",1.0,1.0,0.7977027893066406,3.3633298873901367,0.6785608768365997,,1063.0
R,U,"[1, 3]",-1.0,0.0,0.22096490859985352,1.5693747997283936,0.34851642854918924,177.0,1064.0
B,L,"[1, 2]",1.0,1.0,0.33164501190185547,2.0727219581604004,0.720821835944651,177.0,1065.0
B,L,"[1, 1]",1.0,2.0,0.18006396293640137,1.5147290229797363,0.33591260936436806,177.0,1066.0
Y,R,"[1, 2]",1.0,3.0,0.3113288879394531,2.01053786277771,0.6962899184417766,177.0,1067.0
Y,R,"[1, 3]",-1.0,2.0,0.41071391105651855,2.066979169845581,0.6299978743701762,177.0,1068.0
,,"(3, 3)",,,,,,177.0,
R,U,"[2, 3]",-2.0,0.0,1.1903698444366455,4.012717962265015,0.7092888742368407,,1069.0
R,U,"[1, 3]",-1.0,-1.0,0.2422502040863037,1.7651498317718506,0.5246005547710286,178.0,1070.0
B,L,"[1, 2]",1.0,0.0,0.24660706520080566,1.750978946685791,0.5090324682314655,178.0,1071.0
B,L,"[1, 1]",1.0,1.0,0.2238929271697998,1.7845630645751953,0.5602931889269682,178.0,1072.0
Y,R,"[1, 2]",1.0,2.0,0.2643899917602539,1.618124008178711,0.3619711770757998,178.0,1073.0
B,L,"[1, 1]",1.0,3.0,0.30585289001464844,1.867861032485962,0.5630856507402239,178.0,1074.0
,,"(3, 3)",,,,,,178.0,
