button_choice,action_choice,coordinate_choice,reward,cumulative_reward,rt,total_trial_time,iti,block_n,trial_n
Y,R,"[3, 4]",-2.0,0.0,4.886822938919067,6.490118980407715,0.5741487484319568,0.0,1.0
Y,R,"[3, 5]",-2.0,0.0,2.0408880710601807,3.4785218238830566,0.4029780316083813,0.0,2.0
Y,R,"[3, 6]",0.0,0.0,0.6177849769592285,2.0632269382476807,0.4327999873534248,0.0,3.0
Y,R,"[3, 6]",-2.0,0.0,1.6720600128173828,2.9625041484832764,0.2623944498543413,0.0,4.0
B,L,"[3, 5]",-2.0,0.0,1.0424880981445312,2.3995449542999268,0.32839261529025193,0.0,5.0
B,L,"[3, 4]",0.0,0.0,0.41161513328552246,1.7932038307189941,0.3882202673683446,0.0,6.0
,,"(3, 3)",,,,,,0.0,
Y,R,"[3, 4]",-1.0,-1.0,0.9045650959014893,10.38948392868042,0.7109085193345396,,7.0
B,L,"[3, 3]",-2.0,-1.0,1.4482440948486328,3.0150041580200195,0.5426754335129527,1.0,8.0
G,D,"[4, 3]",-1.0,-2.0,0.8228030204772949,2.5169260501861572,0.6929265463282228,1.0,9.0
Y,R,"[4, 4]",-1.0,-3.0,0.8431968688964844,2.1277661323547363,0.28761124903593366,1.0,10.0
G,D,"[5, 4]",-1.0,-4.0,0.707909107208252,2.30936598777771,0.5968050513834453,1.0,11.0
Y,R,"[5, 5]",-1.0,-5.0,0.7554111480712891,2.2094380855560303,0.4396445037877806,1.0,12.0
,,"(3, 3)",,,,,,1.0,
Y,R,"[3, 4]",-1.0,-1.0,0.8637270927429199,9.469161033630371,0.3757291499805104,,13.0
B,L,"[3, 3]",0.0,-1.0,0.8090498447418213,2.4463140964508057,0.6387381071707758,2.0,14.0
Y,R,"[3, 4]",0.0,-1.0,0.6731281280517578,2.01837420463562,0.3406567652064961,2.0,15.0
B,L,"[3, 3]",0.0,-1.0,0.5955419540405273,1.983767032623291,0.3910493570845229,2.0,16.0
G,D,"[4, 3]",-1.0,-2.0,0.6913130283355713,2.2768759727478027,0.5844597949276209,2.0,17.0
G,D,"[5, 3]",-1.0,-3.0,0.4171791076660156,1.8215138912200928,0.3894901367474187,2.0,18.0
,,"(3, 3)",,,,,,2.0,
Y,R,"[3, 4]",-1.0,-1.0,0.9580600261688232,20.193899154663086,0.5668402581307628,,19.0
R,U,"[2, 4]",-1.0,-2.0,0.4460930824279785,1.9132599830627441,0.4637011321344178,3.0,20.0
Y,R,"[2, 5]",-1.0,-3.0,0.6588530540466309,2.01318097114563,0.3435348256349281,3.0,21.0
B,L,"[2, 4]",0.0,-3.0,0.5495710372924805,1.8503518104553223,0.2939174323022412,3.0,22.0
G,D,"[3, 4]",0.0,-3.0,0.7326350212097168,2.0934319496154785,0.3707249940953906,3.0,23.0
Y,R,"[3, 5]",-1.0,-4.0,0.5137009620666504,1.7946751117706299,0.26547929556539246,3.0,24.0
,,"(3, 3)",,,,,,3.0,
Y,R,"[3, 4]",-1.0,-1.0,0.8121190071105957,9.58613896369934,0.4848399061434595,,25.0
G,D,"[4, 4]",-1.0,-2.0,0.4917778968811035,2.150531053543091,0.6520758040107701,4.0,26.0
Y,R,"[4, 5]",-1.0,-3.0,0.41594886779785156,1.961935043334961,0.5472234661635142,4.0,27.0
G,D,"[5, 5]",-1.0,-4.0,0.6423599720001221,2.2444658279418945,0.5916793982162822,4.0,28.0
Y,R,"[5, 6]",0.0,-4.0,0.7361199855804443,2.4692158699035645,0.7275227331614479,4.0,29.0
G,D,"[6, 6]",0.0,-4.0,0.43672990798950195,1.7242348194122314,0.30221248717420757,4.0,30.0
,,"(3, 3)",,,,,,4.0,
Y,R,"[3, 4]",-2.0,0.0,1.0546770095825195,8.681313037872314,0.3502025041167084,,31.0
Y,R,"[3, 5]",-1.0,-1.0,0.3481559753417969,1.806643009185791,0.44002166964533096,5.0,32.0
B,L,"[3, 4]",0.0,-1.0,0.3725869655609131,1.6388709545135498,0.2623897690475867,5.0,33.0
Y,R,"[3, 5]",0.0,-1.0,0.4868168830871582,2.0500359535217285,0.5787803129444213,5.0,34.0
G,D,"[4, 5]",-1.0,-2.0,0.3759338855743408,2.0216991901397705,0.6504844133481142,5.0,35.0
Y,R,"[4, 6]",0.0,-2.0,0.8477129936218262,2.4956789016723633,0.6462454811613696,5.0,36.0
,,"(3, 3)",,,,,,5.0,
R,U,"[2, 3]",-1.0,-1.0,0.9818458557128906,9.395286083221436,0.6915972925441813,,37.0
R,U,"[1, 3]",1.0,0.0,0.5065770149230957,2.1944379806518555,0.6860158188229032,6.0,38.0
R,U,"[0, 3]",0.0,0.0,0.7896630764007568,2.31801700592041,0.5209955229187647,6.0,39.0
G,D,"[1, 3]",0.0,0.0,0.749284029006958,2.1775169372558594,0.43192220665219117,6.0,40.0
Y,R,"[1, 4]",-1.0,-1.0,0.5219969749450684,1.977552890777588,0.4427989377193784,6.0,41.0
Y,R,"[1, 5]",-1.0,-2.0,0.5564601421356201,2.2677958011627197,0.7104023098225334,6.0,42.0
,,"(3, 3)",,,,,,6.0,
Y,R,"[3, 4]",-2.0,0.0,1.5998320579528809,8.131881952285767,0.7257437622744445,,43.0
Y,R,"[3, 5]",-1.0,-1.0,0.3276970386505127,1.8221580982208252,0.4980936111908469,7.0,44.0
B,L,"[3, 4]",0.0,-1.0,0.6552860736846924,1.9325001239776611,0.2642020463344923,7.0,45.0
Y,R,"[3, 5]",0.0,-1.0,0.42302393913269043,1.7356030941009521,0.2998637749535553,7.0,46.0
G,D,"[4, 5]",-1.0,-2.0,0.416748046875,1.7314610481262207,0.298016725161266,7.0,47.0
Y,R,"[4, 6]",0.0,-2.0,0.3695030212402344,2.0211341381073,0.6353159413662277,7.0,48.0
,,"(3, 3)",,,,,,7.0,
Y,R,"[3, 4]",-1.0,-1.0,0.7344670295715332,9.6786630153656,0.6477574550533662,,49.0
R,U,"[2, 4]",-1.0,-2.0,0.5779879093170166,1.9263391494750977,0.34106458454917193,8.0,50.0
Y,R,"[2, 5]",-1.0,-3.0,0.44827914237976074,2.1119320392608643,0.6692221494718094,8.0,51.0
R,U,"[1, 5]",-1.0,-4.0,0.4026811122894287,1.7651231288909912,0.3512247842177186,8.0,52.0
Y,R,"[1, 6]",0.0,-4.0,0.5440819263458252,1.8927829265594482,0.34399431516945195,8.0,53.0
R,U,"[0, 6]",0.0,-4.0,0.40593600273132324,1.9055800437927246,0.4994897872999793,8.0,54.0
,,"(3, 3)",,,,,,8.0,
Y,R,"[3, 4]",-2.0,0.0,1.3233280181884766,8.419217109680176,0.7186761341251293,,55.0
Y,R,"[3, 5]",-1.0,-1.0,0.27479100227355957,2.0117950439453125,0.7305750874043753,9.0,56.0
R,U,"[2, 5]",-1.0,-2.0,0.23834705352783203,1.7987959384918213,0.5464425890163143,9.0,57.0
Y,R,"[2, 6]",0.0,-2.0,0.2574119567871094,1.5371458530426025,0.26712073810873777,9.0,58.0
G,D,"[3, 6]",0.0,-2.0,0.4072389602661133,1.9032130241394043,0.4866018013527943,9.0,59.0
R,U,"[2, 6]",0.0,-2.0,0.38100218772888184,1.8955318927764893,0.5154088944942034,9.0,60.0
,,"(3, 3)",,,,,,9.0,
Y,R,"[3, 4]",-2.0,0.0,1.015944004058838,8.100351095199585,0.6325695430347118,,61.0
Y,R,"[3, 5]",-1.0,-1.0,0.2734248638153076,1.570275068283081,0.2864487173510341,10.0,62.0
R,U,"[2, 5]",-1.0,-2.0,0.8278710842132568,2.3999619483947754,0.5695668052220163,10.0,63.0
B,L,"[2, 4]",-1.0,-3.0,0.47375011444091797,2.0838048458099365,0.603374620918254,10.0,64.0
G,D,"[3, 4]",0.0,-3.0,0.43260908126831055,1.9809727668762207,0.5511021791921011,10.0,65.0
Y,R,"[3, 5]",0.0,-3.0,0.473721981048584,2.121975898742676,0.6396148667628625,10.0,66.0
,,"(3, 3)",,,,,,10.0,
Y,R,"[3, 4]",-2.0,0.0,1.2098357677459717,7.126718997955322,0.30015744770673414,,67.0
Y,R,"[3, 5]",-1.0,-1.0,0.5346670150756836,2.1720480918884277,0.6217604478977643,11.0,68.0
R,U,"[2, 5]",-1.0,-2.0,0.3690760135650635,1.7851200103759766,0.40720758329736173,11.0,69.0
B,L,"[2, 4]",-2.0,-2.0,1.1239278316497803,2.4911510944366455,0.33187341700716516,11.0,70.0
B,L,"[2, 3]",-1.0,-3.0,0.3898940086364746,1.9449050426483154,0.5431899069003534,11.0,71.0
G,D,"[3, 3]",0.0,-3.0,0.45766210556030273,2.142775058746338,0.6857504921611858,11.0,72.0
,,"(3, 3)",,,,,,11.0,
Y,R,"[3, 4]",-2.0,0.0,1.242722988128662,4.7328619956970215,0.41891957623966075,,73.0
Y,R,"[3, 5]",-1.0,-1.0,0.5174691677093506,2.1683578491210938,0.6371525836280346,12.0,74.0
R,U,"[2, 5]",-1.0,-2.0,0.3430960178375244,1.6911089420318604,0.34530504160374076,12.0,75.0
G,D,"[3, 5]",0.0,-2.0,0.5676109790802002,1.9412541389465332,0.3700504198426844,12.0,76.0
B,L,"[3, 4]",-2.0,-2.0,1.149806022644043,2.8669381141662598,0.6866872400817634,12.0,77.0
B,L,"[3, 3]",0.0,-2.0,0.33516693115234375,2.026686906814575,0.6966306869291625,12.0,78.0
,,"(3, 3)",,,,,,12.0,
Y,R,"[3, 4]",-1.0,-1.0,0.8035778999328613,3.858506917953491,0.27228821697143446,,79.0
R,U,"[2, 4]",-1.0,-2.0,0.2642490863800049,1.6187381744384766,0.3575616026208484,13.0,80.0
B,L,"[2, 3]",-1.0,-3.0,0.31544995307922363,1.5635960102081299,0.25470463694390283,13.0,81.0
Y,R,"[2, 4]",-2.0,-3.0,1.098823070526123,2.7663350105285645,0.6372845198784332,13.0,82.0
Y,R,"[2, 5]",-1.0,-4.0,0.27022480964660645,2.0157668590545654,0.7362027643653997,13.0,83.0
R,U,"[1, 5]",-1.0,-5.0,0.4137430191040039,1.9878230094909668,0.5742214668875034,13.0,84.0
,,"(3, 3)",,,,,,13.0,
Y,R,"[3, 4]",-2.0,0.0,1.19974684715271,4.673854112625122,0.5818468226944845,,85.0
Y,R,"[3, 5]",-1.0,-1.0,0.29500699043273926,1.8578190803527832,0.5561213183708471,14.0,86.0
R,U,"[2, 5]",-1.0,-2.0,0.3896219730377197,1.8976349830627441,0.5039172272984618,14.0,87.0
B,L,"[2, 4]",-1.0,-3.0,0.32337284088134766,1.6891942024230957,0.3598481835680326,14.0,88.0
Y,R,"[2, 5]",0.0,-3.0,0.4639580249786377,1.8057329654693604,0.3489114737328012,14.0,89.0
B,L,"[2, 4]",0.0,-3.0,0.5463101863861084,2.08479905128479,0.533551463936049,14.0,90.0
,,"(3, 3)",,,,,,14.0,
Y,R,"[3, 4]",-1.0,-1.0,0.9158799648284912,7.401496887207031,0.618654403139873,,91.0
R,U,"[2, 4]",-1.0,-2.0,0.3203129768371582,1.5823228359222412,0.2679124027324339,15.0,92.0
B,L,"[2, 3]",-1.0,-3.0,0.511146068572998,2.1213088035583496,0.6056341911582241,15.0,93.0
Y,R,"[2, 4]",0.0,-3.0,0.7874288558959961,2.146559953689575,0.3523873040377941,15.0,94.0
Y,R,"[2, 5]",-1.0,-4.0,0.6839210987091064,2.19144606590271,0.4935348484383826,15.0,95.0
R,U,"[1, 5]",-1.0,-5.0,0.38027095794677734,1.8407959938049316,0.46789774997481626,15.0,96.0
,,"(3, 3)",,,,,,15.0,
Y,R,"[3, 4]",-2.0,0.0,1.2683391571044922,4.88349986076355,0.4514180456442768,,97.0
Y,R,"[3, 5]",-1.0,-1.0,0.2772541046142578,1.532142162322998,0.2504169642174818,16.0,98.0
R,U,"[2, 5]",-1.0,-2.0,0.42682504653930664,1.9058890342712402,0.4726875793636605,16.0,99.0
B,L,"[2, 4]",-1.0,-3.0,0.30998802185058594,1.9789721965789795,0.668191019030903,16.0,100.0
Y,R,"[2, 5]",0.0,-3.0,0.336838960647583,1.6348979473114014,0.286650569526679,16.0,101.0
R,U,"[1, 5]",-1.0,-4.0,0.3063230514526367,2.0551741123199463,0.7417386724284161,16.0,102.0
,,"(3, 3)",,,,,,16.0,
Y,R,"[3, 4]",-2.0,0.0,1.38014817237854,5.47173810005188,0.430492163155471,,103.0
Y,R,"[3, 5]",-1.0,-1.0,0.25507283210754395,1.9274671077728271,0.6577253536861739,17.0,104.0
R,U,"[2, 5]",-1.0,-2.0,0.23172807693481445,1.8272340297698975,0.5850524573273117,17.0,105.0
B,L,"[2, 4]",-1.0,-3.0,0.19735312461853027,1.8767940998077393,0.6781177586150773,17.0,106.0
Y,R,"[2, 5]",0.0,-3.0,0.21688604354858398,1.8209731578826904,0.5993291015173352,17.0,107.0
R,U,"[1, 5]",-1.0,-4.0,0.23956584930419922,1.5826339721679688,0.33225900953134246,17.0,108.0
,,"(3, 3)",,,,,,17.0,
Y,R,"[3, 4]",-1.0,-1.0,0.7551050186157227,12.070594072341919,0.7360636180460607,,109.0
R,U,"[2, 4]",-1.0,-2.0,0.3169529438018799,1.6192359924316406,0.2890296972154995,18.0,110.0
B,L,"[2, 3]",-1.0,-3.0,0.40039801597595215,1.8232128620147705,0.4121902383037696,18.0,111.0
Y,R,"[2, 4]",0.0,-3.0,0.42769598960876465,1.823361873626709,0.4021397445831305,18.0,112.0
R,U,"[1, 4]",-1.0,-4.0,0.24741792678833008,1.9692537784576416,0.7045725560891747,18.0,113.0
B,L,"[1, 3]",1.0,-3.0,0.3867909908294678,1.9012699127197266,0.5059936730643679,18.0,114.0
,,"(3, 3)",,,,,,18.0,
Y,R,"[3, 4]",-2.0,0.0,1.6496431827545166,7.353155851364136,0.40967531278810104,,115.0
Y,R,"[3, 5]",-1.0,-1.0,0.1941530704498291,1.5441961288452148,0.3539734063707284,19.0,116.0
R,U,"[2, 5]",-1.0,-2.0,0.3333299160003662,1.7138841152191162,0.3676720006420755,19.0,117.0
B,L,"[2, 4]",-1.0,-3.0,0.29267096519470215,1.8825790882110596,0.5833964704192136,19.0,118.0
R,U,"[1, 4]",-1.0,-4.0,0.9622080326080322,2.707447052001953,0.7406733399620536,19.0,119.0
B,L,"[1, 3]",1.0,-3.0,0.4135890007019043,1.905390977859497,0.479732953042927,19.0,120.0
,,"(3, 3)",,,,,,19.0,
Y,R,"[3, 4]",-2.0,0.0,2.020301103591919,6.025412082672119,0.70504033372335,,121.0
Y,R,"[3, 5]",-1.0,-1.0,0.31049203872680664,2.058561086654663,0.746822663337025,20.0,122.0
R,U,"[2, 5]",-1.0,-2.0,0.10886502265930176,1.8329620361328125,0.7130685924354503,20.0,123.0
B,L,"[2, 4]",-1.0,-3.0,0.253342866897583,1.7085309028625488,0.43848848519216344,20.0,124.0
R,U,"[1, 4]",-1.0,-4.0,0.7625908851623535,2.4029040336608887,0.6413142456841526,20.0,125.0
Y,R,"[1, 5]",-1.0,-5.0,0.32558512687683105,1.6432559490203857,0.31827466041837643,20.0,126.0
,,"(3, 3)",,,,,,20.0,
Y,R,"[3, 4]",-2.0,0.0,1.3331899642944336,4.7527079582214355,0.6041217750331215,,127.0
Y,R,"[3, 5]",-1.0,-1.0,0.26270198822021484,1.9337239265441895,0.6709746101470653,21.0,128.0
R,U,"[2, 5]",-1.0,-2.0,0.22361016273498535,1.6446678638458252,0.41601660584817735,21.0,129.0
B,L,"[2, 4]",-1.0,-3.0,0.2616240978240967,1.6893949508666992,0.4220029060985775,21.0,130.0
R,U,"[1, 4]",-1.0,-4.0,0.5303208827972412,1.7933011054992676,0.265506152601766,21.0,131.0
B,L,"[1, 3]",1.0,-3.0,0.7688519954681396,2.2555630207061768,0.4708415176735023,21.0,132.0
,,"(3, 3)",,,,,,21.0,
Y,R,"[3, 4]",-2.0,0.0,1.85862398147583,6.688645839691162,0.4599081843295033,,133.0
Y,R,"[3, 5]",-1.0,-1.0,0.23784279823303223,1.5997250080108643,0.3594048593349405,22.0,134.0
R,U,"[2, 5]",-1.0,-2.0,0.3283669948577881,1.695019006729126,0.37122599527054917,22.0,135.0
B,L,"[2, 4]",-1.0,-3.0,0.3986480236053467,1.7676482200622559,0.37214393104809806,22.0,136.0
R,U,"[1, 4]",-1.0,-4.0,0.935920000076294,2.2479970455169678,0.3035867140683117,22.0,137.0
Y,R,"[1, 5]",-1.0,-5.0,0.9070920944213867,2.4354090690612793,0.5221143997428204,22.0,138.0
,,"(3, 3)",,,,,,22.0,
Y,R,"[3, 4]",-1.0,-1.0,0.8441259860992432,4.731569051742554,0.6706722335113147,,139.0
R,U,"[2, 4]",-1.0,-2.0,0.24146199226379395,1.6029479503631592,0.3572231682258877,23.0,140.0
B,L,"[2, 3]",-1.0,-3.0,0.37653303146362305,1.933326005935669,0.5567037384599458,23.0,141.0
R,U,"[1, 3]",1.0,-2.0,0.786329984664917,2.0990190505981445,0.3061089790616568,23.0,142.0
Y,R,"[1, 4]",-1.0,-3.0,0.7453651428222656,2.13926100730896,0.39521158643492493,23.0,143.0
R,U,"[0, 4]",-2.0,-3.0,1.0629191398620605,2.4785780906677246,0.3903951513701089,23.0,144.0
,,"(3, 3)",,,,,,23.0,
Y,R,"[3, 4]",-1.0,-1.0,0.8343379497528076,6.616430044174194,0.5403960611022416,,145.0
R,U,"[2, 4]",-1.0,-2.0,0.581561803817749,1.8595390319824219,0.28336656117637904,24.0,146.0
B,L,"[2, 3]",-1.0,-3.0,0.3918120861053467,1.9289751052856445,0.5288172048410829,24.0,147.0
R,U,"[1, 3]",1.0,-2.0,0.39313602447509766,1.7942051887512207,0.40646506068170324,24.0,148.0
Y,R,"[1, 4]",-1.0,-3.0,0.634289026260376,2.274095058441162,0.630298847664504,24.0,149.0
G,D,"[2, 4]",0.0,-3.0,0.6891140937805176,2.14969801902771,0.4470227862690004,24.0,150.0
,,"(3, 3)",,,,,,24.0,
Y,R,"[3, 4]",-2.0,0.0,1.1072869300842285,9.701882123947144,0.6990748103643553,,151.0
Y,R,"[3, 5]",-1.0,-1.0,0.3987541198730469,2.101714849472046,0.6839209884189297,25.0,152.0
R,U,"[2, 5]",-1.0,-2.0,0.32660603523254395,1.8143048286437988,0.48171046565938974,25.0,153.0
B,L,"[2, 4]",-1.0,-3.0,0.3887009620666504,1.729727029800415,0.32816158172022547,25.0,154.0
R,U,"[1, 4]",-1.0,-4.0,0.8981130123138428,2.3917229175567627,0.5032389207521519,25.0,155.0
B,L,"[1, 3]",1.0,-3.0,0.25649094581604004,1.9118478298187256,0.6483596878406259,25.0,156.0
,,"(3, 3)",,,,,,25.0,
Y,R,"[3, 4]",-2.0,0.0,1.126136064529419,4.343595027923584,0.5920774339137018,,157.0
Y,R,"[3, 5]",-1.0,-1.0,0.3764770030975342,1.9511160850524902,0.5764708987666536,26.0,158.0
R,U,"[2, 5]",-1.0,-2.0,0.3055288791656494,1.9164650440216064,0.6097508117484318,26.0,159.0
B,L,"[2, 4]",-1.0,-3.0,0.2438340187072754,1.500108003616333,0.2600084372086996,26.0,160.0
Y,R,"[2, 5]",0.0,-3.0,0.5469181537628174,2.1658267974853516,0.6254837526728857,26.0,161.0
R,U,"[1, 5]",-1.0,-4.0,0.5384209156036377,2.231351852416992,0.6903057122872621,26.0,162.0
,,"(3, 3)",,,,,,26.0,
Y,R,"[3, 4]",-1.0,-1.0,0.9916019439697266,8.343669891357422,0.5009055708852252,,163.0
R,U,"[2, 4]",-1.0,-2.0,0.298541784286499,2.0417120456695557,0.7425000231257959,27.0,164.0
B,L,"[2, 3]",-1.0,-3.0,0.44112515449523926,1.8127198219299316,0.37226610294124585,27.0,165.0
Y,R,"[2, 4]",0.0,-3.0,0.43772101402282715,2.1544289588928223,0.7098271236027325,27.0,166.0
R,U,"[1, 4]",-1.0,-4.0,0.5215651988983154,2.2649331092834473,0.7413609483855137,27.0,167.0
G,D,"[2, 4]",0.0,-4.0,0.8309550285339355,2.4467411041259766,0.6216962498482739,27.0,168.0
,,"(3, 3)",,,,,,27.0,
Y,R,"[3, 4]",-1.0,-1.0,0.9010050296783447,6.203195095062256,0.4751582478399651,,169.0
R,U,"[2, 4]",-1.0,-2.0,0.2884039878845215,1.647252082824707,0.3559807198819522,28.0,170.0
B,L,"[2, 3]",-1.0,-3.0,0.30252504348754883,1.7798070907592773,0.4690328700903187,28.0,171.0
G,D,"[3, 3]",0.0,-3.0,0.44706296920776367,1.96333909034729,0.5156830698296018,28.0,172.0
Y,R,"[3, 4]",0.0,-3.0,0.43544578552246094,2.0934898853302,0.6590932902512916,28.0,173.0
R,U,"[2, 4]",0.0,-3.0,0.921389102935791,2.5687317848205566,0.6445177990510185,28.0,174.0
,,"(3, 3)",,,,,,28.0,
Y,R,"[3, 4]",-2.0,0.0,1.3459291458129883,5.327259063720703,0.5054382653105797,,175.0
Y,R,"[3, 5]",-1.0,-1.0,0.24941110610961914,1.665550947189331,0.4043409326618775,29.0,176.0
R,U,"[2, 5]",-1.0,-2.0,0.2899048328399658,1.8733570575714111,0.577605087152479,29.0,177.0
B,L,"[2, 4]",-1.0,-2.0,0.004384040832519531,5.3933539390563965,0.271557463882055,29.0,178.0
Y,R,"[2, 5]",0.0,-2.0,0.39446306228637695,2.1282589435577393,0.7326969401417875,29.0,179.0
B,L,"[2, 4]",0.0,-2.0,0.6921989917755127,2.321643829345703,0.6213206764854196,29.0,180.0
,,"(3, 3)",,,,,,29.0,
Y,R,"[3, 4]",-1.0,-1.0,0.7124209403991699,4.852416038513184,0.5072457498191842,,181.0
R,U,"[2, 4]",-1.0,-2.0,0.4537351131439209,2.1590020656585693,0.699168615883178,30.0,182.0
B,L,"[2, 3]",-1.0,-3.0,0.29610300064086914,1.9934051036834717,0.6927261155314353,30.0,183.0
R,U,"[1, 3]",1.0,-2.0,0.2830328941345215,1.6138310432434082,0.32358684374572033,30.0,184.0
G,D,"[2, 3]",0.0,-2.0,0.6442201137542725,1.9490511417388916,0.30597704938387,30.0,185.0
B,L,"[2, 2]",1.0,-1.0,0.3963589668273926,1.9903690814971924,0.5794793153476869,30.0,186.0
,,"(3, 3)",,,,,,30.0,
Y,R,"[3, 4]",-1.0,-1.0,0.9324729442596436,3.8383350372314453,0.2684602562226702,,187.0
B,L,"[3, 3]",0.0,-1.0,0.7902100086212158,2.4947497844696045,0.6959540185651351,31.0,188.0
Y,R,"[3, 4]",-2.0,-1.0,1.7142670154571533,3.2516088485717773,0.48121602103419897,31.0,189.0
Y,R,"[3, 5]",-1.0,-2.0,0.3325080871582031,1.7379908561706543,0.38618863565289036,31.0,190.0
R,U,"[2, 5]",-1.0,-3.0,0.34020280838012695,1.9696829319000244,0.6223008042371196,31.0,191.0
B,L,"[2, 4]",-1.0,-4.0,0.37767791748046875,1.9435012340545654,0.5656969199593141,31.0,192.0
,,"(3, 3)",,,,,,31.0,
Y,R,"[3, 4]",-2.0,0.0,1.3181228637695312,4.910933017730713,0.5936720265675899,,193.0
Y,R,"[3, 5]",-1.0,-1.0,0.3107459545135498,1.6490399837493896,0.34284985097871556,32.0,194.0
R,U,"[2, 5]",-1.0,-2.0,0.42197585105895996,1.9802589416503906,0.556285977325821,32.0,195.0
R,U,"[1, 5]",-1.0,-3.0,0.543463945388794,2.1893110275268555,0.6454443125891471,32.0,196.0
Y,R,"[1, 6]",0.0,-3.0,0.7472290992736816,2.3063859939575195,0.568684844452744,32.0,197.0
B,L,"[1, 5]",0.0,-3.0,0.848660945892334,2.1293649673461914,0.2815968028810793,32.0,198.0
,,"(3, 3)",,,,,,32.0,
Y,R,"[3, 4]",-2.0,0.0,1.6029469966888428,4.77852988243103,0.6267615676962517,,199.0
Y,R,"[3, 5]",-1.0,-1.0,0.33396196365356445,1.7852709293365479,0.4454724463949368,33.0,200.0
R,U,"[2, 5]",-1.0,-2.0,0.34484314918518066,1.8783681392669678,0.5406009992190004,33.0,201.0
B,L,"[2, 4]",-1.0,-3.0,0.3926990032196045,1.7250680923461914,0.3324386703827522,33.0,202.0
R,U,"[1, 4]",-1.0,-4.0,0.6224179267883301,2.1388909816741943,0.5045882939586949,33.0,203.0
B,L,"[1, 3]",1.0,-3.0,0.5629510879516602,1.9873168468475342,0.4085128478113661,33.0,204.0
,,"(3, 3)",,,,,,33.0,
Y,R,"[3, 4]",-1.0,-1.0,0.7874090671539307,4.542450904846191,0.7344280869083548,,205.0
R,U,"[2, 4]",-1.0,-2.0,0.40961599349975586,1.8882231712341309,0.47282632592453294,34.0,206.0
B,L,"[2, 3]",-1.0,-3.0,0.3773488998413086,1.9521729946136475,0.5750755818214397,34.0,207.0
Y,R,"[2, 4]",0.0,-3.0,0.4204239845275879,1.696864128112793,0.27218412107074125,34.0,208.0
R,U,"[1, 4]",-1.0,-4.0,0.6465260982513428,1.9766581058502197,0.3323056925538822,34.0,209.0
B,L,"[1, 3]",1.0,-3.0,0.45926904678344727,1.857490062713623,0.38966033920348053,34.0,210.0
,,"(3, 3)",,,,,,34.0,
Y,R,"[3, 4]",-2.0,0.0,1.2535741329193115,4.03934907913208,0.612208741111597,,211.0
Y,R,"[3, 5]",-1.0,-1.0,0.24026989936828613,1.5515151023864746,0.31389244721484705,35.0,212.0
R,U,"[2, 5]",-1.0,-2.0,0.4745750427246094,1.8617000579833984,0.37568204813600764,35.0,213.0
B,L,"[2, 4]",-1.0,-3.0,0.5297760963439941,2.2484230995178223,0.7237547866712906,35.0,214.0
Y,R,"[2, 5]",0.0,-3.0,0.49883198738098145,1.9730019569396973,0.4805640762830591,35.0,215.0
B,L,"[2, 4]",0.0,-3.0,0.95648193359375,2.3126060962677,0.34327843801211166,35.0,216.0
,,"(3, 3)",,,,,,35.0,
Y,R,"[3, 4]",-1.0,-1.0,0.8647201061248779,4.180249214172363,0.45692084416647083,,217.0
R,U,"[2, 4]",-1.0,-2.0,0.3972179889678955,1.9355080127716064,0.5421274071588165,36.0,218.0
B,L,"[2, 3]",-1.0,-3.0,0.34990406036376953,1.9974961280822754,0.6396649578451008,36.0,219.0
B,L,"[2, 2]",1.0,-2.0,0.39507102966308594,2.098304033279419,0.7044800605286927,36.0,220.0
Y,R,"[2, 3]",0.0,-2.0,0.7730648517608643,2.0978989601135254,0.31969985166845727,36.0,221.0
R,U,"[1, 3]",1.0,-1.0,0.8262801170349121,2.1431820392608643,0.3130594219467785,36.0,222.0
,,"(3, 3)",,,,,,36.0,
Y,R,"[3, 4]",-2.0,0.0,1.008293867111206,4.196300983428955,0.32582994010065897,,223.0
Y,R,"[3, 5]",-1.0,-1.0,0.3030409812927246,1.7603740692138672,0.4527250864145382,37.0,224.0
R,U,"[2, 5]",-1.0,-2.0,0.3144869804382324,1.5963160991668701,0.2826704506001121,37.0,225.0
B,L,"[2, 4]",-1.0,-3.0,0.5114850997924805,2.0680370330810547,0.5503890343479848,37.0,226.0
Y,R,"[2, 5]",0.0,-3.0,0.47595906257629395,2.184769868850708,0.7017236874494275,37.0,227.0
Y,R,"[2, 6]",0.0,-3.0,0.8270471096038818,2.177474021911621,0.34628127943810644,37.0,228.0
,,"(3, 3)",,,,,,37.0,
Y,R,"[3, 4]",-1.0,-1.0,0.9426589012145996,4.592010021209717,0.5881261136923959,,229.0
R,U,"[2, 4]",-1.0,-2.0,0.21839094161987305,1.583449125289917,0.3552918542335284,38.0,230.0
B,L,"[2, 3]",-1.0,-3.0,0.3698909282684326,1.8984971046447754,0.5202266169485815,38.0,231.0
R,U,"[1, 3]",1.0,-2.0,0.2539498805999756,1.7465760707855225,0.48353973153677343,38.0,232.0
B,L,"[1, 2]",1.0,-1.0,0.6751019954681396,2.216865062713623,0.5337464217902808,38.0,233.0
Y,R,"[1, 3]",0.0,-1.0,0.3583791255950928,1.6697001457214355,0.30366850815925395,38.0,234.0
,,"(3, 3)",,,,,,38.0,
Y,R,"[3, 4]",-1.0,-1.0,0.8671371936798096,4.157881021499634,0.7447203510665564,,235.0
R,U,"[2, 4]",-1.0,-2.0,0.25430798530578613,1.9154670238494873,0.6603093762748068,39.0,236.0
B,L,"[2, 3]",-1.0,-3.0,0.24728798866271973,1.6754028797149658,0.43610927396426724,39.0,237.0
Y,R,"[2, 4]",0.0,-3.0,0.33139705657958984,1.8373980522155762,0.5067886528542043,39.0,238.0
G,D,"[3, 4]",0.0,-3.0,0.8257851600646973,2.153106927871704,0.32669527885165167,39.0,239.0
R,U,"[2, 4]",0.0,-3.0,0.34481000900268555,1.9316339492797852,0.5914494927627103,39.0,240.0
,,"(3, 3)",,,,,,39.0,
Y,R,"[3, 4]",-1.0,-1.0,0.8092279434204102,3.9573490619659424,0.5321382224962484,,241.0
R,U,"[2, 4]",-1.0,-2.0,0.46006107330322266,2.0796871185302734,0.6117385108820703,40.0,242.0
B,L,"[2, 3]",-1.0,-3.0,0.25456786155700684,1.6221179962158203,0.36745861751486525,40.0,243.0
R,U,"[1, 3]",1.0,-2.0,0.2973020076751709,1.8043699264526367,0.48849972707309913,40.0,244.0
Y,R,"[1, 4]",-1.0,-3.0,0.38140201568603516,2.053550958633423,0.6585076581322433,40.0,245.0
Y,R,"[1, 5]",-1.0,-4.0,0.8004820346832275,2.4797701835632324,0.6716320202608344,40.0,246.0
,,"(3, 3)",,,,,,40.0,
Y,R,"[3, 4]",-1.0,-1.0,0.9454729557037354,6.303602933883667,0.49226772601539337,,247.0
R,U,"[2, 4]",-1.0,-2.0,0.3034701347351074,1.587980031967163,0.28049605142330447,41.0,248.0
B,L,"[2, 3]",-1.0,-3.0,0.3612499237060547,1.8943920135498047,0.5247616073056656,41.0,249.0
R,U,"[1, 3]",1.0,-2.0,0.4469740390777588,1.8566710948944092,0.39827341767625496,41.0,250.0
Y,R,"[1, 4]",-1.0,-3.0,0.5903561115264893,2.3324201107025146,0.7305217329331686,41.0,251.0
B,L,"[1, 3]",0.0,-3.0,0.5182509422302246,1.9038960933685303,0.3679886697668014,41.0,252.0
,,"(3, 3)",,,,,,41.0,
Y,R,"[3, 4]",-1.0,-1.0,0.9043700695037842,4.032258033752441,0.4836141093651886,,253.0
R,U,"[2, 4]",-1.0,-2.0,0.7391622066497803,2.3455851078033447,0.5957527763489507,42.0,254.0
B,L,"[2, 3]",-1.0,-3.0,0.3527071475982666,1.6078920364379883,0.2539105165386431,42.0,255.0
B,L,"[2, 2]",1.0,-2.0,0.6261930465698242,2.0163869857788086,0.38694363047982794,42.0,256.0
Y,R,"[2, 3]",0.0,-2.0,0.5945570468902588,2.176138162612915,0.5795607284970075,42.0,257.0
R,U,"[1, 3]",1.0,-1.0,0.4092438220977783,2.158698081970215,0.7381745613781043,42.0,258.0
,,"(3, 3)",,,,,,42.0,
Y,R,"[3, 4]",-2.0,0.0,1.1377151012420654,5.186463117599487,0.5087052575811731,,259.0
Y,R,"[3, 5]",-1.0,-1.0,0.2502140998840332,1.659423828125,0.40160187259510155,43.0,260.0
R,U,"[2, 5]",-1.0,-2.0,0.34865307807922363,1.6820359230041504,0.31689810316546324,43.0,261.0
B,L,"[2, 4]",-1.0,-3.0,0.4035489559173584,2.081058979034424,0.6641242792887354,43.0,262.0
Y,R,"[2, 5]",0.0,-3.0,0.45414090156555176,1.9256129264831543,0.45676964898485095,43.0,263.0
R,U,"[1, 5]",-1.0,-4.0,0.911545991897583,2.67108416557312,0.7440691273120676,43.0,264.0
,,"(3, 3)",,,,,,43.0,
Y,R,"[3, 4]",-1.0,-1.0,0.9844839572906494,4.649707078933716,0.46100103899615413,,265.0
R,U,"[2, 4]",-1.0,-2.0,0.3350241184234619,1.605436086654663,0.26657042791808133,44.0,266.0
B,L,"[2, 3]",-1.0,-3.0,0.41735196113586426,2.1587390899658203,0.7248539818867392,44.0,267.0
B,L,"[2, 2]",1.0,-2.0,0.42441606521606445,2.1015090942382812,0.6764200084699596,44.0,268.0
R,U,"[1, 2]",1.0,-1.0,0.7627110481262207,2.488481044769287,0.7317654956170891,44.0,269.0
Y,R,"[1, 3]",1.0,0.0,0.46262598037719727,1.7342450618743896,0.26640870330822586,44.0,270.0
,,"(3, 3)",,,,,,44.0,
Y,R,"[3, 4]",-2.0,0.0,2.2846388816833496,5.8383259773254395,0.6377447543991099,,271.0
Y,R,"[3, 5]",-1.0,-1.0,0.31305503845214844,1.8539619445800781,0.5252051154978336,45.0,272.0
R,U,"[2, 5]",-1.0,-2.0,0.42136693000793457,1.7224600315093994,0.29790826241944185,45.0,273.0
G,D,"[3, 5]",0.0,-2.0,0.49384188652038574,2.0017809867858887,0.4996404827363933,45.0,274.0
B,L,"[3, 4]",0.0,-2.0,0.40616488456726074,1.7036819458007812,0.2869894926626804,45.0,275.0
Y,R,"[3, 5]",0.0,-2.0,0.8620917797088623,2.2823731899261475,0.41942245464842454,45.0,276.0
,,"(3, 3)",,,,,,45.0,
Y,R,"[3, 4]",-1.0,-1.0,0.8540420532226562,4.210416078567505,0.5796406330806901,,277.0
R,U,"[2, 4]",-1.0,-2.0,0.2763199806213379,1.6985499858856201,0.4117363054613857,46.0,278.0
B,L,"[2, 3]",-1.0,-3.0,0.35307908058166504,1.8796839714050293,0.5246478365492082,46.0,279.0
R,U,"[1, 3]",1.0,-2.0,0.4409160614013672,2.153719186782837,0.7115437054673123,46.0,280.0
Y,R,"[1, 4]",-1.0,-3.0,0.5498318672180176,2.0510830879211426,0.5127181968268331,46.0,281.0
G,D,"[2, 4]",0.0,-3.0,0.28124094009399414,1.8467578887939453,0.5595487973682746,46.0,282.0
,,"(3, 3)",,,,,,46.0,
Y,R,"[3, 4]",-1.0,-1.0,0.7985820770263672,4.09064793586731,0.5504775080459503,,283.0
B,L,"[3, 3]",-2.0,-1.0,1.2763099670410156,2.645514965057373,0.32952576713811826,47.0,284.0
B,L,"[3, 2]",1.0,0.0,0.29221606254577637,1.9703369140625,0.6662852752059452,47.0,285.0
R,U,"[2, 2]",1.0,1.0,0.4385979175567627,1.8138940334320068,0.36369174067084914,47.0,286.0
Y,R,"[2, 3]",-1.0,0.0,0.5229599475860596,2.096520185470581,0.560017010053632,47.0,287.0
G,D,"[3, 3]",0.0,0.0,0.3986940383911133,1.9846019744873047,0.5945515997316291,47.0,288.0
,,"(3, 3)",,,,,,47.0,
Y,R,"[3, 4]",-2.0,0.0,1.427868127822876,4.7854931354522705,0.4803144550281607,,289.0
Y,R,"[3, 5]",-1.0,-1.0,0.2225179672241211,1.7963168621063232,0.5599661571776435,48.0,290.0
R,U,"[2, 5]",-1.0,-2.0,0.31623196601867676,1.9141268730163574,0.59074477238129,48.0,291.0
B,L,"[2, 4]",-1.0,-3.0,0.37680792808532715,1.6332159042358398,0.25757249517969527,48.0,292.0
Y,R,"[2, 5]",0.0,-3.0,0.48262500762939453,2.102769136428833,0.5934047157176465,48.0,293.0
R,U,"[1, 5]",-1.0,-4.0,0.34851789474487305,2.02972412109375,0.6730829676599572,48.0,294.0
,,"(3, 3)",,,,,,48.0,
Y,R,"[3, 4]",-1.0,-1.0,0.740562915802002,4.245445013046265,0.5023509827395909,,295.0
R,U,"[2, 4]",-1.0,-2.0,0.4744079113006592,2.104185104370117,0.6230783183682361,49.0,296.0
G,D,"[3, 4]",0.0,-2.0,0.7475318908691406,2.180572032928467,0.4369768230879872,49.0,297.0
Y,R,"[3, 5]",-1.0,-3.0,0.6646740436553955,1.9450709819793701,0.2655836629968175,49.0,298.0
G,D,"[4, 5]",-1.0,-4.0,0.7015531063079834,2.225037097930908,0.5072242449711573,49.0,299.0
B,L,"[4, 4]",-1.0,-5.0,0.6746649742126465,2.317456007003784,0.6410857949552768,49.0,300.0
,,"(3, 3)",,,,,,49.0,
Y,R,"[3, 4]",-1.0,-1.0,0.990185022354126,4.252941131591797,0.527617523847401,,301.0
R,U,"[2, 4]",-1.0,-2.0,0.350147008895874,1.6863460540771484,0.33083407322537306,50.0,302.0
G,D,"[3, 4]",0.0,-2.0,0.4024651050567627,2.059752941131592,0.6404206299036526,50.0,303.0
B,L,"[3, 3]",0.0,-2.0,0.19032001495361328,1.7073159217834473,0.5144721377128574,50.0,304.0
R,U,"[2, 3]",-1.0,-3.0,0.3028428554534912,1.6219191551208496,0.30342272858808145,50.0,305.0
R,U,"[1, 3]",1.0,-2.0,0.5931460857391357,2.1837401390075684,0.5866747988250303,50.0,306.0
,,"(3, 3)",,,,,,50.0,
Y,R,"[3, 4]",-1.0,-1.0,0.8624110221862793,4.121630907058716,0.6251462697797665,,307.0
R,U,"[2, 4]",-1.0,-2.0,0.5173530578613281,2.075910806655884,0.5512068464190834,51.0,308.0
G,D,"[3, 4]",0.0,-2.0,0.661020040512085,2.4042599201202393,0.7386377448150744,51.0,309.0
B,L,"[3, 3]",0.0,-2.0,0.37131309509277344,1.9003570079803467,0.5227034582960028,51.0,310.0
Y,R,"[3, 4]",0.0,-2.0,0.48239779472351074,1.9378650188446045,0.46041648830345794,51.0,311.0
R,U,"[2, 4]",0.0,-2.0,0.34688401222229004,1.6593060493469238,0.3200213301045316,51.0,312.0
,,"(3, 3)",,,,,,51.0,
Y,R,"[3, 4]",-1.0,-1.0,0.9801461696624756,5.183369874954224,0.33668575050093064,,313.0
R,U,"[2, 4]",-1.0,-2.0,0.33033108711242676,1.833716869354248,0.5035856589975412,52.0,314.0
B,L,"[2, 3]",-1.0,-3.0,0.3058772087097168,1.8930559158325195,0.5802765139147493,52.0,315.0
R,U,"[1, 3]",1.0,-2.0,0.25095105171203613,1.9700679779052734,0.7001522355636476,52.0,316.0
Y,R,"[1, 4]",-1.0,-3.0,0.474323034286499,2.0092949867248535,0.5264606310587134,52.0,317.0
R,U,"[0, 4]",0.0,-3.0,0.8124160766601562,2.1593210697174072,0.35244455853815726,52.0,318.0
,,"(3, 3)",,,,,,52.0,
Y,R,"[3, 4]",-2.0,0.0,1.148237943649292,4.3610780239105225,0.3803735979450131,,319.0
Y,R,"[3, 5]",-1.0,0.0,0.06729793548583984,5.5869410037994385,0.3675236500933453,53.0,320.0
Y,R,"[3, 6]",0.0,0.0,0.28212594985961914,1.5868048667907715,0.28774672503171356,53.0,321.0
R,U,"[2, 6]",0.0,0.0,0.44487810134887695,2.1918728351593018,0.7459151251832763,53.0,322.0
B,L,"[2, 5]",-1.0,-1.0,0.34093809127807617,2.0094339847564697,0.6553498812673163,53.0,323.0
G,D,"[3, 5]",0.0,-1.0,0.286160945892334,1.8236770629882812,0.5293461775273469,53.0,324.0
,,"(3, 3)",,,,,,53.0,
G,D,"[4, 3]",-1.0,-1.0,0.9467861652374268,4.178739070892334,0.6412914993515161,,325.0
G,D,"[5, 3]",-2.0,-1.0,1.1141319274902344,2.8241021633148193,0.6654839926361886,54.0,326.0
G,D,"[6, 3]",0.0,-1.0,0.6063699722290039,1.921191930770874,0.3036794570598823,54.0,327.0
B,L,"[6, 2]",0.0,-1.0,0.4673640727996826,1.8876090049743652,0.42453698603625356,54.0,328.0
B,L,"[6, 1]",0.0,-1.0,0.4223971366882324,2.1121649742126465,0.6864650696709877,54.0,329.0
R,U,"[5, 1]",-1.0,-2.0,0.8284850120544434,2.5268561840057373,0.6798341484068207,54.0,330.0
,,"(3, 3)",,,,,,54.0,
G,D,"[4, 3]",-2.0,0.0,1.2742290496826172,4.6945390701293945,0.6413182805080158,,331.0
G,D,"[5, 3]",-1.0,-1.0,0.21021795272827148,1.7624189853668213,0.5537270096480602,55.0,332.0
Y,R,"[5, 4]",-2.0,-1.0,1.0064611434936523,2.3426461219787598,0.2966132924076552,55.0,333.0
Y,R,"[5, 5]",-1.0,-2.0,0.3184840679168701,1.9478728771209717,0.6109142270081562,55.0,334.0
R,U,"[4, 5]",-1.0,-3.0,0.39023303985595703,1.9068539142608643,0.5178884880493586,55.0,335.0
Y,R,"[4, 6]",0.0,-3.0,0.595628023147583,1.8499150276184082,0.2514788407770513,55.0,336.0
,,"(3, 3)",,,,,,55.0,
Y,R,"[3, 4]",-2.0,0.0,1.2973430156707764,4.2961249351501465,0.29765406169490805,,337.0
Y,R,"[3, 5]",-1.0,-1.0,0.26691603660583496,1.8881869316101074,0.6021394610834245,56.0,338.0
R,U,"[2, 5]",-1.0,-2.0,0.24969792366027832,1.7260830402374268,0.46179361973018473,56.0,339.0
G,D,"[3, 5]",0.0,-2.0,0.21813297271728516,1.6667602062225342,0.4452472438617156,56.0,340.0
B,L,"[3, 4]",0.0,-2.0,0.36855196952819824,1.7107720375061035,0.3560996946005174,56.0,341.0
Y,R,"[3, 5]",0.0,-2.0,0.31571197509765625,1.5836601257324219,0.2732632735519482,56.0,342.0
,,"(3, 3)",,,,,,56.0,
Y,R,"[3, 4]",-1.0,-1.0,0.7095601558685303,4.3928821086883545,0.6824776147934062,,343.0
R,U,"[2, 4]",-1.0,-2.0,0.21178793907165527,1.496358871459961,0.27935544671129464,57.0,344.0
Y,R,"[2, 5]",-1.0,-3.0,0.5433080196380615,2.1100308895111084,0.5725467002396628,57.0,345.0
G,D,"[3, 5]",-1.0,-4.0,0.274705171585083,1.5348148345947266,0.25765242279213574,57.0,346.0
Y,R,"[3, 6]",0.0,-4.0,0.8767228126525879,2.2071948051452637,0.3313859626879282,57.0,347.0
R,U,"[2, 6]",0.0,-4.0,0.38002705574035645,1.8738408088684082,0.4886152114797415,57.0,348.0
,,"(3, 3)",,,,,,57.0,
Y,R,"[3, 4]",-2.0,0.0,1.0372581481933594,4.1826488971710205,0.5544452706119731,,349.0
Y,R,"[3, 5]",-1.0,-1.0,0.4301798343658447,2.0339698791503906,0.588414445468215,58.0,350.0
R,U,"[2, 5]",-1.0,-2.0,0.23801493644714355,1.8454229831695557,0.6004782173080201,58.0,351.0
G,D,"[3, 5]",0.0,-2.0,0.27381205558776855,1.9740879535675049,0.6911595673364062,58.0,352.0
G,D,"[4, 5]",-1.0,-3.0,0.2692220211029053,1.6501410007476807,0.37512307004294826,58.0,353.0
B,L,"[4, 4]",-1.0,-4.0,0.31587982177734375,1.9821019172668457,0.6569650414799493,58.0,354.0
,,"(3, 3)",,,,,,58.0,
Y,R,"[3, 4]",-2.0,0.0,1.2710580825805664,4.347591876983643,0.28828014175532973,,355.0
Y,R,"[3, 5]",-1.0,0.0,0.012022972106933594,5.534294128417969,0.40595129515474265,59.0,356.0
Y,R,"[3, 6]",0.0,0.0,0.28952598571777344,1.696485996246338,0.40233966744237093,59.0,357.0
R,U,"[2, 6]",0.0,0.0,0.5661108493804932,2.309767007827759,0.745136415300537,59.0,358.0
B,L,"[2, 5]",-1.0,-1.0,0.5691878795623779,2.290457010269165,0.7190916538777326,59.0,359.0
G,D,"[3, 5]",0.0,-1.0,0.3016328811645508,1.8121349811553955,0.4981187943830966,59.0,360.0
,,"(3, 3)",,,,,,59.0,
B,L,"[3, 2]",1.0,1.0,0.779296875,4.055442810058594,0.6534478146526046,,361.0
Y,R,"[3, 3]",-2.0,1.0,1.1187379360198975,2.743098020553589,0.5799879298515775,60.0,362.0
Y,R,"[3, 4]",-1.0,0.0,0.3018059730529785,1.6109559535980225,0.2912366384384032,60.0,363.0
R,U,"[2, 4]",-1.0,-1.0,0.34702396392822266,1.602052927017212,0.2600365427155365,60.0,364.0
G,D,"[3, 4]",0.0,-1.0,0.5139899253845215,1.9843220710754395,0.4775209269909148,60.0,365.0
B,L,"[3, 3]",0.0,-1.0,0.45589399337768555,2.063857078552246,0.6080753341607481,60.0,366.0
,,"(3, 3)",,,,,,60.0,
Y,R,"[3, 4]",-2.0,0.0,2.154482126235962,5.154469013214111,0.3297798692190651,,367.0
Y,R,"[3, 5]",-1.0,-1.0,0.2731611728668213,1.6807820796966553,0.4104634656967836,61.0,368.0
R,U,"[2, 5]",-1.0,-2.0,0.24899506568908691,1.8624751567840576,0.6059674602491505,61.0,369.0
G,D,"[3, 5]",0.0,-2.0,0.4983220100402832,2.091594934463501,0.5977219783252644,61.0,370.0
Y,R,"[3, 6]",0.0,-2.0,0.38440608978271484,1.7896828651428223,0.4042140729855906,61.0,371.0
R,U,"[2, 6]",0.0,-2.0,0.5091748237609863,1.8018290996551514,0.28956870118919886,61.0,372.0
,,"(3, 3)",,,,,,61.0,
G,D,"[4, 3]",-2.0,0.0,1.2985551357269287,5.903475999832153,0.45959149229642393,,373.0
R,U,"[3, 3]",0.0,0.0,0.49526405334472656,2.145092010498047,0.6542795491081708,62.0,374.0
R,U,"[2, 3]",-1.0,-1.0,0.6733391284942627,2.1508359909057617,0.47226433129954415,62.0,375.0
B,L,"[2, 2]",1.0,0.0,0.8724148273468018,2.1616199016571045,0.2839641679791235,62.0,376.0
Y,R,"[2, 3]",-2.0,0.0,1.087843894958496,2.7546300888061523,0.6217484286489465,62.0,377.0
R,U,"[1, 3]",1.0,1.0,0.9513139724731445,2.2282559871673584,0.2670160743931152,62.0,378.0
,,"(3, 3)",,,,,,62.0,
Y,R,"[3, 4]",-2.0,0.0,1.1731891632080078,4.649118900299072,0.44928888245032994,,379.0
Y,R,"[3, 5]",-1.0,0.0,0.05389690399169922,5.808379888534546,0.6242081488151365,63.0,380.0
Y,R,"[3, 6]",0.0,0.0,0.5100851058959961,1.9918081760406494,0.46651511538924983,63.0,381.0
R,U,"[2, 6]",0.0,0.0,0.2862260341644287,1.9337749481201172,0.6501051363892449,63.0,382.0
B,L,"[2, 5]",-1.0,-1.0,0.5339169502258301,1.9752418994903564,0.44192576937600375,63.0,383.0
G,D,"[3, 5]",0.0,-1.0,0.7233161926269531,2.1910040378570557,0.46645770800639114,63.0,384.0
,,"(3, 3)",,,,,,63.0,
Y,R,"[3, 4]",-1.0,-1.0,0.7035071849822998,4.341155052185059,0.35768454667031496,,385.0
R,U,"[2, 4]",-1.0,-2.0,0.2900111675262451,1.6410350799560547,0.3487617519414963,64.0,386.0
B,L,"[2, 3]",-1.0,-3.0,0.46513986587524414,1.7925598621368408,0.3250119095438515,64.0,387.0
G,D,"[3, 3]",0.0,-3.0,0.6924459934234619,1.9639999866485596,0.27226765321207547,64.0,388.0
G,D,"[4, 3]",-1.0,-4.0,0.400317907333374,1.7332870960235596,0.3220729193675963,64.0,389.0
Y,R,"[4, 4]",-1.0,-5.0,0.7551009654998779,2.1998140811920166,0.43856780597776146,64.0,390.0
,,"(3, 3)",,,,,,64.0,
Y,R,"[3, 4]",-1.0,-1.0,0.9109690189361572,3.996198892593384,0.6180835583274156,,391.0
R,U,"[2, 4]",-1.0,-2.0,0.3592648506164551,1.9555199146270752,0.5904254808080882,65.0,392.0
B,L,"[2, 3]",-1.0,-3.0,0.5735938549041748,2.094257116317749,0.518057620462447,65.0,393.0
B,L,"[2, 2]",-2.0,-3.0,1.1567139625549316,2.8993570804595947,0.7170579141343718,65.0,394.0
G,D,"[3, 2]",1.0,-2.0,0.3484830856323242,1.9339380264282227,0.5678707648848389,65.0,395.0
B,L,"[3, 1]",1.0,-1.0,0.6151261329650879,2.05574107170105,0.4404334239075366,65.0,396.0
,,"(3, 3)",,,,,,65.0,
Y,R,"[3, 4]",-1.0,-1.0,0.9949278831481934,3.9759998321533203,0.28332448738949595,,397.0
R,U,"[2, 4]",-1.0,-2.0,0.39020705223083496,2.072065830230713,0.6716404160415428,66.0,398.0
G,D,"[3, 4]",0.0,-2.0,0.8034670352935791,2.1539108753204346,0.3594646064443971,66.0,399.0
Y,R,"[3, 5]",-1.0,-3.0,0.5155749320983887,1.795186996459961,0.271445315781809,66.0,400.0
B,L,"[3, 4]",0.0,-3.0,0.8477299213409424,2.5353260040283203,0.6897039292016952,66.0,401.0
R,U,"[2, 4]",0.0,-3.0,0.5484099388122559,1.7948479652404785,0.2518422869157991,66.0,402.0
,,"(3, 3)",,,,,,66.0,
Y,R,"[3, 4]",-1.0,-1.0,0.9242939949035645,4.329604864120483,0.31463079605742134,,403.0
R,U,"[2, 4]",-1.0,-2.0,0.6873040199279785,1.9632689952850342,0.2611115022626169,67.0,404.0
G,D,"[3, 4]",-1.0,-3.0,0.7152369022369385,2.009938955307007,0.30442627672785827,67.0,405.0
G,D,"[4, 4]",-1.0,-4.0,0.7846109867095947,2.169111967086792,0.3735054890827775,67.0,406.0
Y,R,"[4, 5]",-1.0,-5.0,0.48804306983947754,2.016341209411621,0.5230140764272546,67.0,407.0
R,U,"[3, 5]",-1.0,-6.0,0.574652910232544,2.124229907989502,0.5472946543561275,67.0,408.0
,,"(3, 3)",,,,,,67.0,
Y,R,"[3, 4]",-1.0,-1.0,0.9087629318237305,5.707148790359497,0.30477963139245634,,409.0
R,U,"[2, 4]",-1.0,-2.0,0.4394681453704834,1.7625079154968262,0.3174708790081577,68.0,410.0
B,L,"[2, 3]",-1.0,-3.0,0.4418041706085205,1.8330779075622559,0.38373526139318925,68.0,411.0
G,D,"[3, 3]",-2.0,-5.0,0.4268648624420166,1.8085999488830566,0.37579413126544264,68.0,412.0
Y,R,"[3, 4]",-1.0,-6.0,0.46877098083496094,2.1020281314849854,0.6444184006584972,68.0,413.0
G,D,"[4, 4]",-1.0,-7.0,0.4947350025177002,1.8791968822479248,0.39036417953389474,68.0,414.0
,,"(3, 3)",,,,,,68.0,
Y,R,"[3, 4]",-1.0,-1.0,0.7841200828552246,4.137284994125366,0.49422349433226476,,415.0
B,L,"[3, 3]",-2.0,-1.0,1.1012139320373535,2.436650037765503,0.3143687210878818,69.0,416.0
B,L,"[3, 2]",-1.0,-2.0,0.23237085342407227,1.650219202041626,0.3979440505354889,69.0,417.0
G,D,"[4, 2]",1.0,-1.0,0.2664530277252197,1.6497139930725098,0.3644551255592329,69.0,418.0
R,U,"[3, 2]",-1.0,-2.0,0.2684059143066406,1.5909152030944824,0.3053373925282852,69.0,419.0
B,L,"[3, 1]",1.0,-1.0,0.42105722427368164,1.9634449481964111,0.5352249001338513,69.0,420.0
,,"(3, 3)",,,,,,69.0,
Y,R,"[3, 4]",-1.0,-1.0,0.8432209491729736,4.17320990562439,0.27586985835445865,,421.0
R,U,"[2, 4]",-1.0,-2.0,0.44709181785583496,1.8205969333648682,0.3796502822292798,70.0,422.0
B,L,"[2, 3]",-1.0,-3.0,0.7827420234680176,2.0746500492095947,0.2710012241085897,70.0,423.0
B,L,"[2, 2]",-1.0,-4.0,0.3581850528717041,1.988940954208374,0.6260689259786482,70.0,424.0
Y,R,"[2, 3]",-1.0,-5.0,0.29982900619506836,1.623647928237915,0.3167226891822694,70.0,425.0
B,L,"[2, 2]",-1.0,-6.0,0.6527252197265625,2.052314043045044,0.3857506851153577,70.0,426.0
,,"(3, 3)",,,,,,70.0,
Y,R,"[3, 4]",-1.0,-1.0,0.8653979301452637,4.123181104660034,0.3922826802512208,,427.0
R,U,"[2, 4]",-1.0,-2.0,0.44724297523498535,1.7152090072631836,0.2742702711430035,71.0,428.0
B,L,"[2, 3]",-1.0,-3.0,0.3494858741760254,1.8344199657440186,0.4917989944208613,71.0,429.0
B,L,"[2, 2]",-1.0,-4.0,0.31641387939453125,1.7016041278839111,0.37708984037940013,71.0,430.0
Y,R,"[2, 3]",-1.0,-5.0,0.49333882331848145,1.9446818828582764,0.45522052230745985,71.0,431.0
B,L,"[2, 2]",-2.0,-5.0,1.2054200172424316,2.8748857975006104,0.6464753725966986,71.0,432.0
,,"(3, 3)",,,,,,71.0,
Y,R,"[3, 4]",-1.0,-1.0,0.8204421997070312,4.072252035140991,0.5686901002569982,,433.0
R,U,"[2, 4]",-1.0,-2.0,0.26955389976501465,1.8564469814300537,0.5750856832160518,72.0,434.0
B,L,"[2, 3]",-1.0,-3.0,0.4067850112915039,1.927365779876709,0.5193643847315832,72.0,435.0
Y,R,"[2, 4]",-1.0,-4.0,0.535391092300415,1.8876838684082031,0.3405024884217313,72.0,436.0
B,L,"[2, 3]",-1.0,-5.0,0.7391178607940674,2.0140340328216553,0.2714338202586971,72.0,437.0
G,D,"[3, 3]",-2.0,-7.0,0.7117078304290771,2.227607011795044,0.4988050650883813,72.0,438.0
,,"(3, 3)",,,,,,72.0,
Y,R,"[3, 4]",-2.0,0.0,1.01910400390625,4.067353963851929,0.36659511115922205,,439.0
Y,R,"[3, 5]",-1.0,-1.0,0.29570698738098145,1.9608290195465088,0.6438030030745574,73.0,440.0
R,U,"[2, 5]",-1.0,-2.0,0.2358248233795166,1.9211199283599854,0.6983068255326108,73.0,441.0
B,L,"[2, 4]",-1.0,-3.0,0.2706630229949951,1.795564889907837,0.5106777406030591,73.0,442.0
B,L,"[2, 3]",-1.0,-4.0,0.35457301139831543,1.984663963317871,0.6285227711288541,73.0,443.0
B,L,"[2, 2]",-1.0,-5.0,0.4509730339050293,1.7875208854675293,0.3494865356140055,73.0,444.0
,,"(3, 3)",,,,,,73.0,
Y,R,"[3, 4]",-1.0,-1.0,0.7775478363037109,3.911525011062622,0.47768807370560373,,445.0
R,U,"[2, 4]",-1.0,-2.0,0.3701639175415039,1.929197072982788,0.5567066223440037,74.0,446.0
B,L,"[2, 3]",-1.0,-3.0,0.3378608226776123,1.8809051513671875,0.5377005353708331,74.0,447.0
B,L,"[2, 2]",-1.0,-4.0,0.29761505126953125,1.8018360137939453,0.5063884751022127,74.0,448.0
G,D,"[3, 2]",-1.0,-5.0,0.3006601333618164,1.993994951248169,0.6835450875508778,74.0,449.0
B,L,"[3, 1]",1.0,-4.0,0.3827347755432129,2.0060858726501465,0.6063454318502977,74.0,450.0
,,"(3, 3)",,,,,,74.0,
Y,R,"[3, 4]",-1.0,-1.0,0.8709220886230469,3.8890819549560547,0.3791631815116802,,451.0
R,U,"[2, 4]",-1.0,-2.0,0.2987940311431885,1.5718059539794922,0.2845781170328699,75.0,452.0
B,L,"[2, 3]",-1.0,-3.0,0.3963351249694824,1.8932898044586182,0.49422015518722484,75.0,453.0
B,L,"[2, 2]",-1.0,-4.0,0.2480638027191162,1.568422794342041,0.3295234463196882,75.0,454.0
Y,R,"[2, 3]",-1.0,-5.0,0.3817920684814453,1.717392921447754,0.3301469128480875,75.0,455.0
G,D,"[3, 3]",-2.0,-7.0,0.3905928134918213,2.0536818504333496,0.6501789112873176,75.0,456.0
,,"(3, 3)",,,,,,75.0,
Y,R,"[3, 4]",-1.0,-1.0,0.7746610641479492,3.306236982345581,0.2735191235697675,,457.0
R,U,"[2, 4]",-1.0,-2.0,0.41930198669433594,2.031635046005249,0.6047978330618683,76.0,458.0
B,L,"[2, 3]",-1.0,-3.0,0.28922605514526367,1.5568490028381348,0.2620321350212416,76.0,459.0
B,L,"[2, 2]",-1.0,-4.0,0.3291029930114746,1.7597780227661133,0.4383644082644556,76.0,460.0
G,D,"[3, 2]",-1.0,-5.0,0.7765119075775146,2.4737517833709717,0.6951773223326412,76.0,461.0
Y,R,"[3, 3]",-2.0,-7.0,0.622917890548706,2.2493789196014404,0.6280258705347963,76.0,462.0
,,"(3, 3)",,,,,,76.0,
Y,R,"[3, 4]",-2.0,0.0,1.0037600994110107,3.861581802368164,0.3233537872009922,,463.0
Y,R,"[3, 5]",-1.0,-1.0,0.2593979835510254,1.6983399391174316,0.4383176097199113,77.0,464.0
R,U,"[2, 5]",-1.0,-2.0,0.24065184593200684,1.6642749309539795,0.4192450622125693,77.0,465.0
B,L,"[2, 4]",-1.0,-3.0,0.2109529972076416,1.5287158489227295,0.3148520438872775,77.0,466.0
B,L,"[2, 3]",-1.0,-4.0,0.3546898365020752,2.028709888458252,0.6598394020396144,77.0,467.0
G,D,"[3, 3]",-2.0,-6.0,0.4422030448913574,1.9318530559539795,0.4919017958043307,77.0,468.0
,,"(3, 3)",,,,,,77.0,
Y,R,"[3, 4]",-1.0,-1.0,0.813385009765625,3.704646110534668,0.3133990832991615,,469.0
R,U,"[2, 4]",-1.0,-2.0,0.2701761722564697,1.648838996887207,0.36226253002189857,78.0,470.0
B,L,"[2, 3]",-1.0,-3.0,0.30690789222717285,1.6513781547546387,0.347013640512081,78.0,471.0
B,L,"[2, 2]",-1.0,-4.0,0.3142359256744385,1.7240331172943115,0.4044830714730466,78.0,472.0
G,D,"[3, 2]",-1.0,-5.0,0.2716398239135742,1.8083419799804688,0.5293155519212134,78.0,473.0
Y,R,"[3, 3]",-2.0,-7.0,0.24722719192504883,1.6087701320648193,0.3382567973346006,78.0,474.0
,,"(3, 3)",,,,,,78.0,
Y,R,"[3, 4]",-1.0,-1.0,0.7739839553833008,3.369065999984741,0.290758195455098,,475.0
R,U,"[2, 4]",-1.0,-2.0,0.32659411430358887,1.9908111095428467,0.664525704414405,79.0,476.0
B,L,"[2, 3]",-1.0,-3.0,0.2678689956665039,1.9464819431304932,0.6610729858876432,79.0,477.0
B,L,"[2, 2]",-1.0,-4.0,0.3115849494934082,1.8412489891052246,0.5357734844962327,79.0,478.0
G,D,"[3, 2]",-1.0,-5.0,0.2544410228729248,1.5776269435882568,0.31385489576305925,79.0,479.0
B,L,"[3, 1]",1.0,-4.0,0.46117401123046875,1.806593894958496,0.33717144138652144,79.0,480.0
,,"(3, 3)",,,,,,79.0,
Y,R,"[3, 4]",-1.0,-1.0,0.910261869430542,4.421319961547852,0.3749830836367417,,481.0
R,U,"[2, 4]",-1.0,-2.0,0.328685998916626,1.7467279434204102,0.42159257371794895,80.0,482.0
B,L,"[2, 3]",-1.0,-3.0,0.2667679786682129,1.7431418895721436,0.46473689403994445,80.0,483.0
B,L,"[2, 2]",-1.0,-4.0,0.2797830104827881,1.599869966506958,0.3147878790590943,80.0,484.0
Y,R,"[2, 3]",-1.0,-5.0,0.3499572277069092,1.8500308990478516,0.48148627869685157,80.0,485.0
G,D,"[3, 3]",-2.0,-7.0,0.2432420253753662,1.6181209087371826,0.36638508445454016,80.0,486.0
,,"(3, 3)",,,,,,80.0,
Y,R,"[3, 4]",-1.0,-1.0,0.8769879341125488,4.9801740646362305,0.6296545063548262,,487.0
R,U,"[2, 4]",-1.0,-2.0,0.1650540828704834,1.7310388088226318,0.5607504754539275,81.0,488.0
B,L,"[2, 3]",-1.0,-3.0,0.2634239196777344,1.9785938262939453,0.722630426231308,81.0,489.0
G,D,"[3, 3]",-2.0,-5.0,0.3803589344024658,1.7532689571380615,0.3595881462649624,81.0,490.0
B,L,"[3, 2]",-1.0,-6.0,0.28032994270324707,1.7441370487213135,0.4536284909878539,81.0,491.0
Y,R,"[3, 3]",-2.0,-8.0,0.27538013458251953,1.561906099319458,0.28263739815989464,81.0,492.0
,,"(3, 3)",,,,,,81.0,
Y,R,"[3, 4]",-2.0,0.0,1.1054420471191406,4.84443998336792,0.610078352089616,,493.0
Y,R,"[3, 5]",-1.0,-1.0,0.710547924041748,2.2019729614257812,0.4956164525882046,82.0,494.0
R,U,"[2, 5]",-1.0,-2.0,0.25568199157714844,1.5494160652160645,0.29523299413884263,82.0,495.0
B,L,"[2, 4]",-1.0,-3.0,0.28192901611328125,1.7109661102294922,0.4392535381356308,82.0,496.0
B,L,"[2, 3]",-1.0,-4.0,0.27378106117248535,1.7826330661773682,0.5051477380074981,82.0,497.0
Y,R,"[2, 4]",-1.0,-5.0,0.24203085899353027,1.8889920711517334,0.6440210341351177,82.0,498.0
,,"(3, 3)",,,,,,82.0,
Y,R,"[3, 4]",-1.0,-1.0,0.8943159580230713,4.450550079345703,0.7445096857965112,,499.0
R,U,"[2, 4]",-1.0,-2.0,0.24367117881774902,1.6152491569519043,0.3768477377532076,83.0,500.0
R,U,"[1, 4]",-1.0,-3.0,0.35498595237731934,1.6161620616912842,0.2598693204792277,83.0,501.0
B,L,"[1, 3]",-1.0,-4.0,0.5334901809692383,2.1159989833831787,0.5755288742856748,83.0,502.0
B,L,"[1, 2]",-1.0,-5.0,0.3348550796508789,1.675973892211914,0.33521966890302063,83.0,503.0
G,D,"[2, 2]",-1.0,-6.0,0.40958619117736816,2.100548028945923,0.6853369918786438,83.0,504.0
,,"(3, 3)",,,,,,83.0,
Y,R,"[3, 4]",-1.0,-1.0,0.89615797996521,4.349319934844971,0.38514235896868476,,505.0
R,U,"[2, 4]",-1.0,-2.0,0.3807699680328369,1.931427001953125,0.5496336865224994,84.0,506.0
R,U,"[1, 4]",-1.0,-3.0,0.29053282737731934,1.7559800148010254,0.4558794895396401,84.0,507.0
B,L,"[1, 3]",-1.0,-4.0,0.29561901092529297,1.7035319805145264,0.4094736028783622,84.0,508.0
B,L,"[1, 2]",-1.0,-5.0,0.42562317848205566,2.160460948944092,0.7362823157838397,84.0,509.0
Y,R,"[1, 3]",-1.0,-6.0,0.7429931163787842,2.29312801361084,0.5463148058203311,84.0,510.0
,,"(3, 3)",,,,,,84.0,
Y,R,"[3, 4]",-1.0,-1.0,0.8981289863586426,3.9950571060180664,0.4248124276370303,,511.0
R,U,"[2, 4]",-1.0,-2.0,0.9509139060974121,2.5584471225738525,0.5997747679149161,85.0,512.0
R,U,"[1, 4]",-1.0,-3.0,0.8332939147949219,2.5947940349578857,0.7445761898985892,85.0,513.0
B,L,"[1, 3]",-1.0,-4.0,0.26929402351379395,1.5249230861663818,0.2532671830267681,85.0,514.0
B,L,"[1, 2]",-1.0,-5.0,0.4348161220550537,1.7008719444274902,0.25414752981970334,85.0,515.0
G,D,"[2, 2]",-1.0,-6.0,0.6058449745178223,2.12941312789917,0.516657941442739,85.0,516.0
,,"(3, 3)",,,,,,85.0,
Y,R,"[3, 4]",-2.0,0.0,1.22800612449646,4.7681190967559814,0.6014266977711923,,517.0
Y,R,"[3, 5]",-1.0,-1.0,0.3983640670776367,1.8769428730010986,0.4784977711663917,86.0,518.0
R,U,"[2, 5]",-1.0,-2.0,0.1915910243988037,1.9130778312683105,0.7248003936969241,86.0,519.0
R,U,"[1, 5]",-1.0,-3.0,0.2658810615539551,1.6792399883270264,0.42111424344963716,86.0,520.0
B,L,"[1, 4]",-1.0,-4.0,0.25461292266845703,1.8757171630859375,0.6133877231136927,86.0,521.0
B,L,"[1, 3]",-1.0,-5.0,0.2733190059661865,1.6744539737701416,0.3880446465857032,86.0,522.0
,,"(3, 3)",,,,,,86.0,
Y,R,"[3, 4]",-2.0,0.0,1.0008230209350586,5.47113299369812,0.4923225778369907,,523.0
Y,R,"[3, 5]",-1.0,-1.0,0.2783980369567871,1.629106044769287,0.35492446507776815,87.0,524.0
R,U,"[2, 5]",-1.0,-2.0,0.2650270462036133,1.8550591468811035,0.576607140150154,87.0,525.0
R,U,"[1, 5]",-1.0,-3.0,0.2381291389465332,1.8049020767211914,0.5648279523618798,87.0,526.0
B,L,"[1, 4]",-1.0,-4.0,0.23243093490600586,1.911618947982788,0.6597632558309766,87.0,527.0
B,L,"[1, 3]",-1.0,-5.0,0.23660707473754883,1.5930228233337402,0.35299706454477825,87.0,528.0
,,"(3, 3)",,,,,,87.0,
Y,R,"[3, 4]",-1.0,-1.0,0.9672930240631104,4.800145149230957,0.5197870502236626,,529.0
R,U,"[2, 4]",-1.0,-2.0,0.7386651039123535,2.3064401149749756,0.5595547858467931,88.0,530.0
R,U,"[1, 4]",-1.0,-3.0,0.4067409038543701,1.895339012145996,0.4883056998245863,88.0,531.0
B,L,"[1, 3]",-1.0,-4.0,0.7272460460662842,2.292149066925049,0.5635926221217433,88.0,532.0
B,L,"[1, 2]",-1.0,-5.0,0.30413198471069336,2.010668992996216,0.6909128134172552,88.0,533.0
Y,R,"[1, 3]",-1.0,-6.0,0.5349428653717041,1.8071670532226562,0.26541343013776253,88.0,534.0
,,"(3, 3)",,,,,,88.0,
Y,R,"[3, 4]",-1.0,-1.0,0.9029550552368164,4.664941072463989,0.6299667032695682,,535.0
R,U,"[2, 4]",-1.0,-2.0,0.27089905738830566,1.9474549293518066,0.6607255925885811,89.0,536.0
R,U,"[1, 4]",-1.0,-3.0,0.7954769134521484,2.451627016067505,0.6624433697846763,89.0,537.0
B,L,"[1, 3]",-1.0,-4.0,0.24684906005859375,1.6794469356536865,0.4253291771289813,89.0,538.0
B,L,"[1, 2]",-1.0,-5.0,0.31038403511047363,1.6576578617095947,0.3498715893614758,89.0,539.0
G,D,"[2, 2]",-1.0,-6.0,0.405627965927124,1.968291997909546,0.5512088085816901,89.0,540.0
,,"(3, 3)",,,,,,89.0,
Y,R,"[3, 4]",-1.0,-1.0,0.8309259414672852,3.9161760807037354,0.4675704369711933,,541.0
R,U,"[2, 4]",-1.0,-2.0,0.3219590187072754,2.000809907913208,0.6681983617088803,90.0,542.0
B,L,"[2, 3]",-1.0,-3.0,0.20566892623901367,1.8494868278503418,0.6343848988443233,90.0,543.0
B,L,"[2, 2]",-1.0,-4.0,0.28580594062805176,1.7537438869476318,0.4550239675754725,90.0,544.0
Y,R,"[2, 3]",-1.0,-5.0,0.5072290897369385,1.8184289932250977,0.30707274878886415,90.0,545.0
G,D,"[3, 3]",-2.0,-7.0,0.3580808639526367,1.903080940246582,0.5433511342475245,90.0,546.0
,,"(3, 3)",,,,,,90.0,
Y,R,"[3, 4]",-1.0,-1.0,0.9714629650115967,3.946415901184082,0.40680867498829215,,547.0
R,U,"[2, 4]",-1.0,-2.0,0.3055450916290283,1.6626219749450684,0.3527661594960961,91.0,548.0
B,L,"[2, 3]",-1.0,-3.0,0.3217601776123047,1.6006100177764893,0.269922762821305,91.0,549.0
G,D,"[3, 3]",-2.0,-5.0,0.6398820877075195,2.2294888496398926,0.5823976617125111,91.0,550.0
R,U,"[2, 3]",-1.0,-6.0,0.32868099212646484,1.8414669036865234,0.49068969802616264,91.0,551.0
Y,R,"[2, 4]",-1.0,-7.0,0.5632948875427246,2.1011340618133545,0.5417863607575599,91.0,552.0
,,"(3, 3)",,,,,,91.0,
Y,R,"[3, 4]",-1.0,-1.0,0.9478950500488281,4.059986114501953,0.5352464158025658,,553.0
R,U,"[2, 4]",-1.0,-2.0,0.3502490520477295,1.9351170063018799,0.5703880898905984,92.0,554.0
R,U,"[1, 4]",-1.0,-3.0,0.26061105728149414,1.9693341255187988,0.7062537213100715,92.0,555.0
B,L,"[1, 3]",-1.0,-4.0,0.23093891143798828,1.8398470878601074,0.61288058385979,92.0,556.0
B,L,"[1, 2]",-1.0,-5.0,0.2270209789276123,1.588244915008545,0.35136025891577,92.0,557.0
Y,R,"[1, 3]",-1.0,-6.0,0.49575090408325195,2.2214150428771973,0.7226567411417966,92.0,558.0
,,"(3, 3)",,,,,,92.0,
Y,R,"[3, 4]",-1.0,-1.0,0.8056850433349609,8.315875053405762,0.4057148252550828,,559.0
R,U,"[2, 4]",-1.0,-2.0,0.2311251163482666,1.7500059604644775,0.5221408324659522,93.0,560.0
Y,R,"[2, 5]",-1.0,-3.0,0.2678039073944092,1.9259707927703857,0.6481610889899434,93.0,561.0
B,L,"[2, 4]",-1.0,-4.0,0.25043702125549316,1.9648258686065674,0.6960053416058886,93.0,562.0
B,L,"[2, 3]",-1.0,-5.0,0.24924302101135254,1.715925931930542,0.4456268613566748,93.0,563.0
R,U,"[1, 3]",-1.0,-6.0,0.9599990844726562,2.674312114715576,0.719815107035745,93.0,564.0
,,"(3, 3)",,,,,,93.0,
Y,R,"[3, 4]",-2.0,0.0,1.3448429107666016,6.873234033584595,0.426880446444857,,565.0
Y,R,"[3, 5]",-1.0,-1.0,0.23518991470336914,1.92696213722229,0.6866484580805025,94.0,566.0
R,U,"[2, 5]",-1.0,-2.0,0.21900415420532227,1.8806920051574707,0.6507309280887168,94.0,567.0
R,U,"[1, 5]",-1.0,-3.0,0.22262191772460938,1.5922491550445557,0.36007607766181765,94.0,568.0
B,L,"[1, 4]",-1.0,-4.0,0.28138184547424316,1.8237159252166748,0.5335784457685928,94.0,569.0
B,L,"[1, 3]",-1.0,-5.0,0.2341921329498291,1.7700259685516357,0.5202592647374227,94.0,570.0
,,"(3, 3)",,,,,,94.0,
Y,R,"[3, 4]",-1.0,-1.0,0.7800531387329102,5.142516851425171,0.7126917653578138,,571.0
R,U,"[2, 4]",-1.0,-2.0,0.2639148235321045,1.6566638946533203,0.3865817479905187,95.0,572.0
B,L,"[2, 3]",-1.0,-3.0,0.27385807037353516,1.8424220085144043,0.5620093737314797,95.0,573.0
R,U,"[1, 3]",-1.0,-4.0,0.3345448970794678,2.049039840698242,0.7110410677618482,95.0,574.0
Y,R,"[1, 4]",-1.0,-5.0,0.29965901374816895,1.9350998401641846,0.6295199396625261,95.0,575.0
G,D,"[2, 4]",-1.0,-6.0,0.28081798553466797,1.7027289867401123,0.41573604701665384,95.0,576.0
,,"(3, 3)",,,,,,95.0,
Y,R,"[3, 4]",-1.0,-1.0,0.7937788963317871,4.500322103500366,0.5662466314594382,,577.0
R,U,"[2, 4]",-1.0,-2.0,0.2577779293060303,1.6128530502319336,0.3459321643528051,96.0,578.0
R,U,"[1, 4]",-1.0,-3.0,0.751013994216919,2.102587938308716,0.34851834018019767,96.0,579.0
B,L,"[1, 3]",-1.0,-4.0,0.34132981300354004,1.7855679988861084,0.43398567107779584,96.0,580.0
B,L,"[1, 2]",-1.0,-5.0,0.3310420513153076,1.8311748504638672,0.4984725283638266,96.0,581.0
Y,R,"[1, 3]",-1.0,-6.0,0.2908759117126465,1.7091968059539795,0.40761200430259475,96.0,582.0
,,"(3, 3)",,,,,,96.0,
Y,R,"[3, 4]",-2.0,0.0,1.1392309665679932,4.792207956314087,0.5665359901672921,,583.0
Y,R,"[3, 5]",-1.0,-1.0,0.21309208869934082,1.8904898166656494,0.673656623621492,97.0,584.0
R,U,"[2, 5]",-1.0,-2.0,0.27979087829589844,1.546720027923584,0.2708596748788216,97.0,585.0
B,L,"[2, 4]",-1.0,-3.0,0.3977668285369873,1.8071339130401611,0.411058251676943,97.0,586.0
R,U,"[1, 4]",-1.0,-4.0,0.529088020324707,1.8014750480651855,0.2793687859798273,97.0,587.0
G,D,"[2, 4]",-1.0,-5.0,0.5921049118041992,2.2680420875549316,0.6804651727368259,97.0,588.0
,,"(3, 3)",,,,,,97.0,
Y,R,"[3, 4]",-1.0,-1.0,0.9469940662384033,4.388998985290527,0.3865327350373819,,589.0
R,U,"[2, 4]",-1.0,-2.0,0.26341891288757324,1.5849080085754395,0.32154981720838466,98.0,590.0
B,L,"[2, 3]",-1.0,-3.0,0.3323960304260254,2.0074689388275146,0.6453358562651512,98.0,591.0
Y,R,"[2, 4]",-1.0,-4.0,0.27443981170654297,1.6380829811096191,0.36719151034208775,98.0,592.0
R,U,"[1, 4]",-1.0,-5.0,0.5473308563232422,1.9700160026550293,0.42046632337192796,98.0,593.0
G,D,"[2, 4]",-1.0,-6.0,0.46690988540649414,2.046052932739258,0.5662657882170391,98.0,594.0
,,"(3, 3)",,,,,,98.0,
Y,R,"[3, 4]",-1.0,-1.0,0.6746501922607422,4.094408988952637,0.6274067164305581,,595.0
R,U,"[2, 4]",-1.0,-2.0,0.34081101417541504,2.047569990158081,0.7083356443812656,99.0,596.0
B,L,"[2, 3]",-1.0,-3.0,0.34265613555908203,2.0445430278778076,0.7028658408498075,99.0,597.0
B,L,"[2, 2]",-2.0,-3.0,1.0417277812957764,2.36346697807312,0.2832592244286869,99.0,598.0
B,L,"[2, 1]",-1.0,-4.0,0.3100259304046631,1.6415951251983643,0.3248492372540547,99.0,599.0
G,D,"[3, 1]",1.0,-3.0,0.4138951301574707,1.7839529514312744,0.35878358869782584,99.0,600.0
,,"(3, 3)",,,,,,99.0,
Y,R,"[3, 4]",-1.0,-1.0,0.8910059928894043,4.998785018920898,0.557461003788658,,601.0
R,U,"[2, 4]",-1.0,-2.0,0.31476688385009766,1.6358709335327148,0.3270464386036843,100.0,602.0
B,L,"[2, 3]",-1.0,-3.0,0.4293558597564697,1.851747989654541,0.42868091007468384,100.0,603.0
R,U,"[1, 3]",-1.0,-4.0,0.45299410820007324,2.1938209533691406,0.7387847428395724,100.0,604.0
Y,R,"[1, 4]",-1.0,-5.0,0.26595211029052734,1.9887897968292236,0.6943548379611133,100.0,605.0
G,D,"[2, 4]",-1.0,-6.0,0.3366081714630127,1.8884408473968506,0.5496611401708491,100.0,606.0
,,"(3, 3)",,,,,,100.0,
Y,R,"[3, 4]",-1.0,-1.0,0.49280595779418945,6.732635974884033,0.46604537858225425,,607.0
R,U,"[2, 4]",-1.0,-2.0,0.26728296279907227,1.980607032775879,0.7129388395423659,101.0,608.0
B,L,"[2, 3]",-1.0,-3.0,0.33907198905944824,1.751688003540039,0.39820941606621535,101.0,609.0
B,L,"[2, 2]",-1.0,-4.0,0.7452831268310547,2.4056568145751953,0.6537006165909418,101.0,610.0
R,U,"[1, 2]",-1.0,-5.0,0.5171411037445068,1.7751660346984863,0.26272093433149646,101.0,611.0
Y,R,"[1, 3]",-1.0,-6.0,0.5635349750518799,1.8431360721588135,0.28914793139426115,101.0,612.0
,,"(3, 3)",,,,,,101.0,
Y,R,"[3, 4]",-1.0,-1.0,0.9214160442352295,4.145883083343506,0.6515710823156374,,613.0
R,U,"[2, 4]",-1.0,-2.0,0.244858980178833,1.7934060096740723,0.544967984668439,102.0,614.0
B,L,"[2, 3]",-1.0,-3.0,0.24742603302001953,1.8370001316070557,0.5985579168063015,102.0,615.0
R,U,"[1, 3]",-1.0,-4.0,0.384490966796875,1.7547731399536133,0.3536037978217553,102.0,616.0
B,L,"[1, 2]",-1.0,-5.0,0.31267404556274414,1.852691888809204,0.5394088431911657,102.0,617.0
B,L,"[1, 1]",-2.0,-5.0,1.3276088237762451,2.7240610122680664,0.3639266951149458,102.0,618.0
,,"(3, 3)",,,,,,102.0,
Y,R,"[3, 4]",-1.0,-1.0,0.7103550434112549,4.526077032089233,0.589632238961238,,619.0
R,U,"[2, 4]",-1.0,-2.0,0.22670197486877441,1.535391092300415,0.30860539149706573,103.0,620.0
R,U,"[1, 4]",-1.0,-2.0,0.08138489723205566,5.8946850299835205,0.6696460289212558,103.0,621.0
R,U,"[0, 4]",0.0,-2.0,0.21065211296081543,1.604058027267456,0.39071434236866953,103.0,622.0
Y,R,"[0, 5]",0.0,-2.0,0.4957160949707031,2.18613600730896,0.693265703145304,103.0,623.0
B,L,"[0, 4]",0.0,-2.0,0.3685770034790039,1.74835205078125,0.39210737811630364,103.0,624.0
,,"(3, 3)",,,,,,103.0,
Y,R,"[3, 4]",-1.0,-1.0,0.7923548221588135,4.6978089809417725,0.6230189664987911,,625.0
R,U,"[2, 4]",-1.0,-2.0,0.23289799690246582,1.503478765487671,0.26018001803469426,104.0,626.0
B,L,"[2, 3]",-1.0,-3.0,0.5518090724945068,2.1930859088897705,0.63624548295192,104.0,627.0
Y,R,"[2, 4]",-1.0,-4.0,0.49814295768737793,1.9101579189300537,0.4133047340987859,104.0,628.0
G,D,"[3, 4]",-1.0,-5.0,0.9552481174468994,2.3062541484832764,0.33627146580943584,104.0,629.0
Y,R,"[3, 5]",-1.0,-6.0,0.7052810192108154,2.307084083557129,0.5932399593203213,104.0,630.0
,,"(3, 3)",,,,,,104.0,
Y,R,"[3, 4]",-1.0,-1.0,0.5858910083770752,3.3795900344848633,0.3064713546791827,,631.0
R,U,"[2, 4]",-1.0,-2.0,0.33769798278808594,2.0836610794067383,0.7397834828347878,105.0,632.0
Y,R,"[2, 5]",-1.0,-3.0,0.32126307487487793,1.804596185684204,0.4781011104064064,105.0,633.0
B,L,"[2, 4]",-1.0,-4.0,0.4081590175628662,2.1503899097442627,0.7448679722314144,105.0,634.0
B,L,"[2, 3]",-1.0,-5.0,0.26716113090515137,1.6991949081420898,0.42778709958041333,105.0,635.0
R,U,"[1, 3]",-1.0,-6.0,0.5481040477752686,2.244739055633545,0.705426000344466,105.0,636.0
,,"(3, 3)",,,,,,105.0,
Y,R,"[3, 4]",-1.0,-1.0,0.6658048629760742,4.013468980789185,0.5524566221639342,,637.0
B,L,"[3, 3]",-2.0,-3.0,0.5760259628295898,1.9777030944824219,0.396944504238466,106.0,638.0
R,U,"[2, 3]",-1.0,-4.0,0.6503698825836182,2.149289131164551,0.479611466244482,106.0,639.0
B,L,"[2, 2]",-2.0,-4.0,1.1084470748901367,2.5656399726867676,0.41206438176433147,106.0,640.0
B,L,"[2, 1]",-1.0,-5.0,0.29674482345581055,1.6569488048553467,0.36897726101989325,106.0,641.0
Y,R,"[2, 2]",-1.0,-6.0,0.350966215133667,1.913468837738037,0.5489521705148855,106.0,642.0
,,"(3, 3)",,,,,,106.0,
Y,R,"[3, 4]",-1.0,-1.0,0.6006460189819336,4.158412933349609,0.6740497679680517,,643.0
R,U,"[2, 4]",-1.0,-2.0,0.22727298736572266,1.680497169494629,0.4548524432446776,107.0,644.0
R,U,"[1, 4]",-1.0,-3.0,0.2841460704803467,1.5622570514678955,0.2673062601788611,107.0,645.0
B,L,"[1, 3]",-1.0,-4.0,0.3415830135345459,1.6042749881744385,0.2548733421985427,107.0,646.0
B,L,"[1, 2]",-1.0,-5.0,0.38755106925964355,2.0410239696502686,0.6454528177783823,107.0,647.0
R,U,"[0, 2]",0.0,-5.0,0.34128403663635254,1.8243069648742676,0.48667648244902395,107.0,648.0
,,"(3, 3)",,,,,,107.0,
Y,R,"[3, 4]",-1.0,-1.0,0.5987119674682617,3.7492759227752686,0.436250400816747,,649.0
R,U,"[2, 4]",-1.0,-2.0,0.2961289882659912,1.8915770053863525,0.5941419938054453,108.0,650.0
R,U,"[1, 4]",-1.0,-3.0,0.2007899284362793,1.5118460655212402,0.3061657928413464,108.0,651.0
B,L,"[1, 3]",-1.0,-4.0,0.4162869453430176,1.8307361602783203,0.4035934774209784,108.0,652.0
B,L,"[1, 2]",-1.0,-5.0,0.3269379138946533,1.5988590717315674,0.2692845020683333,108.0,653.0
G,D,"[2, 2]",-1.0,-6.0,0.4190709590911865,1.8889811038970947,0.45831084181918486,108.0,654.0
,,"(3, 3)",,,,,,108.0,
Y,R,"[3, 4]",-2.0,0.0,1.3292860984802246,4.728208065032959,0.7364845051124616,,655.0
Y,R,"[3, 5]",-1.0,-1.0,0.20662617683410645,1.8356609344482422,0.6221242716307711,109.0,656.0
R,U,"[2, 5]",-1.0,-2.0,0.22940301895141602,1.5518248081207275,0.3242439834043359,109.0,657.0
B,L,"[2, 4]",-1.0,-3.0,0.2846040725708008,1.794255018234253,0.5017166970621217,109.0,658.0
B,L,"[2, 3]",-1.0,-4.0,0.6215000152587891,2.1995840072631836,0.5677177862167819,109.0,659.0
R,U,"[1, 3]",-1.0,-5.0,0.3007938861846924,2.0348610877990723,0.7198887837595791,109.0,660.0
,,"(3, 3)",,,,,,109.0,
Y,R,"[3, 4]",-1.0,-1.0,0.76515793800354,5.216097116470337,0.5521136994180011,,661.0
R,U,"[2, 4]",-1.0,-2.0,0.2447819709777832,1.9521369934082031,0.7041459634125512,110.0,662.0
R,U,"[1, 4]",-1.0,-3.0,0.2628607749938965,1.568220853805542,0.3061153836028406,110.0,663.0
B,L,"[1, 3]",-1.0,-4.0,0.3032689094543457,1.646327018737793,0.335769591356044,110.0,664.0
B,L,"[1, 2]",-1.0,-5.0,0.27173304557800293,2.0071568489074707,0.7258997725629078,110.0,665.0
G,D,"[2, 2]",-1.0,-6.0,0.40505313873291016,1.6848828792572021,0.2779063138873017,110.0,666.0
,,"(3, 3)",,,,,,110.0,
Y,R,"[3, 4]",-1.0,-1.0,0.5604100227355957,3.966477155685425,0.5941071514346112,,667.0
R,U,"[2, 4]",-1.0,-2.0,0.33561205863952637,1.7515909671783447,0.41264742032776147,111.0,668.0
Y,R,"[2, 5]",-1.0,-3.0,0.5391309261322021,2.157986879348755,0.6037531561151486,111.0,669.0
B,L,"[2, 4]",-1.0,-4.0,0.5080029964447021,1.8128578662872314,0.3002653799344979,111.0,670.0
B,L,"[2, 3]",-1.0,-5.0,0.506695032119751,2.1901462078094482,0.6734893044157206,111.0,671.0
G,D,"[3, 3]",-2.0,-7.0,0.36861491203308105,1.7425260543823242,0.3662752167866133,111.0,672.0
,,"(3, 3)",,,,,,111.0,
Y,R,"[3, 4]",-1.0,-1.0,0.6058700084686279,3.7725229263305664,0.7387439142998786,,673.0
R,U,"[2, 4]",-1.0,-2.0,0.19968318939208984,1.5219168663024902,0.3109932907253613,112.0,674.0
R,U,"[1, 4]",-1.0,-3.0,0.38700103759765625,1.6754498481750488,0.2863733674440463,112.0,675.0
B,L,"[1, 3]",-1.0,-4.0,0.30024218559265137,1.706923007965088,0.39332487241956793,112.0,676.0
B,L,"[1, 2]",-1.0,-5.0,0.21094894409179688,1.7134439945220947,0.5066333676135844,112.0,677.0
G,D,"[2, 2]",-1.0,-6.0,0.23642802238464355,1.8259820938110352,0.5825390442525771,112.0,678.0
,,"(3, 3)",,,,,,112.0,
Y,R,"[3, 4]",-1.0,-1.0,0.5701889991760254,4.307774066925049,0.740409829606302,,679.0
R,U,"[2, 4]",-1.0,-2.0,0.22311902046203613,1.8858001232147217,0.6593590251584971,113.0,680.0
R,U,"[1, 4]",-1.0,-3.0,0.2921159267425537,1.9241740703582764,0.6338033925110944,113.0,681.0
B,L,"[1, 3]",-1.0,-4.0,0.2828660011291504,1.9085149765014648,0.6091330952380432,113.0,682.0
G,D,"[2, 3]",-1.0,-5.0,0.40077900886535645,1.6850860118865967,0.2778417392172934,113.0,683.0
B,L,"[2, 2]",-1.0,-6.0,0.4863569736480713,1.8348090648651123,0.34594140771233417,113.0,684.0
,,"(3, 3)",,,,,,113.0,
Y,R,"[3, 4]",-1.0,-1.0,0.7936639785766602,5.121572017669678,0.2675683709740194,,685.0
R,U,"[2, 4]",-1.0,-2.0,0.3749089241027832,1.762756109237671,0.3802897171000655,114.0,686.0
Y,R,"[2, 5]",-1.0,-3.0,0.3612701892852783,1.7578051090240479,0.388049179241844,114.0,687.0
B,L,"[2, 4]",-1.0,-4.0,0.2963690757751465,1.9089970588684082,0.6137258263655968,114.0,688.0
B,L,"[2, 3]",-1.0,-5.0,0.31493186950683594,1.7171969413757324,0.39764431148776086,114.0,689.0
G,D,"[3, 3]",-2.0,-7.0,0.5860850811004639,2.351879119873047,0.7494075464946641,114.0,690.0
,,"(3, 3)",,,,,,114.0,
Y,R,"[3, 4]",-1.0,-1.0,0.5473330020904541,6.768671989440918,0.718289117576597,,691.0
R,U,"[2, 4]",-1.0,-2.0,0.2429499626159668,1.6047098636627197,0.3565290437266874,115.0,692.0
Y,R,"[2, 5]",-1.0,-3.0,0.5581018924713135,2.0229837894439697,0.4626045834856087,115.0,693.0
B,L,"[2, 4]",-1.0,-4.0,0.26443910598754883,1.724534034729004,0.45411053221879416,115.0,694.0
B,L,"[2, 3]",-1.0,-5.0,0.31317591667175293,1.6742420196533203,0.36151277147304545,115.0,695.0
R,U,"[1, 3]",-1.0,-6.0,0.4914400577545166,2.068247079849243,0.5796051364718503,115.0,696.0
,,"(3, 3)",,,,,,115.0,
Y,R,"[3, 4]",-1.0,-1.0,0.5699601173400879,4.405304193496704,0.4018042442461831,,697.0
R,U,"[2, 4]",-1.0,-2.0,0.26569485664367676,1.8227899074554443,0.5577144859962717,116.0,698.0
B,L,"[2, 3]",-1.0,-3.0,0.30559587478637695,1.5634469985961914,0.2548635261811256,116.0,699.0
R,U,"[1, 3]",-1.0,-4.0,0.4859640598297119,2.2006590366363525,0.705178925376509,116.0,700.0
Y,R,"[1, 4]",-1.0,-5.0,0.5440778732299805,2.128918170928955,0.5841786516746545,116.0,701.0
G,D,"[2, 4]",-1.0,-6.0,0.425678014755249,1.7713990211486816,0.3391765516776407,116.0,702.0
,,"(3, 3)",,,,,,116.0,
Y,R,"[3, 4]",-1.0,-1.0,0.6010169982910156,3.5323710441589355,0.25524376378024044,,703.0
R,U,"[2, 4]",-1.0,-2.0,0.4100680351257324,1.8844680786132812,0.47288444271286545,117.0,704.0
R,U,"[1, 4]",-1.0,-3.0,0.2266697883605957,1.8681011199951172,0.6406934472457464,117.0,705.0
B,L,"[1, 3]",-1.0,-4.0,0.2972700595855713,1.8270890712738037,0.5344648001912162,117.0,706.0
B,L,"[1, 2]",-1.0,-5.0,0.26476097106933594,1.9713220596313477,0.7057287696370163,117.0,707.0
Y,R,"[1, 3]",-1.0,-6.0,0.30628108978271484,1.7592370510101318,0.44848539550141264,117.0,708.0
,,"(3, 3)",,,,,,117.0,
Y,R,"[3, 4]",-1.0,-1.0,0.561988115310669,3.435681104660034,0.2844054462381184,,709.0
R,U,"[2, 4]",-1.0,-2.0,0.2666001319885254,1.8338418006896973,0.551416432017334,118.0,710.0
R,U,"[1, 4]",-1.0,-3.0,0.3154301643371582,1.8843028545379639,0.5690142600285946,118.0,711.0
Y,R,"[1, 5]",-1.0,-4.0,0.25997495651245117,1.9279890060424805,0.6635443715621642,118.0,712.0
G,D,"[2, 5]",-1.0,-5.0,0.21652507781982422,1.7140281200408936,0.477819138700895,118.0,713.0
B,L,"[2, 4]",-1.0,-6.0,0.4036269187927246,1.7486369609832764,0.3432819811141778,118.0,714.0
,,"(3, 3)",,,,,,118.0,
Y,R,"[3, 4]",-1.0,-1.0,0.6713528633117676,3.72491192817688,0.28519224904300744,,715.0
R,U,"[2, 4]",-1.0,-2.0,0.3685770034790039,1.9920151233673096,0.6101034835876349,119.0,716.0
R,U,"[1, 4]",-1.0,-3.0,0.23837780952453613,1.6566839218139648,0.41691753900296663,119.0,717.0
B,L,"[1, 3]",-1.0,-4.0,0.1916060447692871,1.7074878215789795,0.5076632632984643,119.0,718.0
B,L,"[1, 2]",-1.0,-5.0,0.3066089153289795,1.906486988067627,0.5974330257408211,119.0,719.0
Y,R,"[1, 3]",-1.0,-6.0,0.26953577995300293,1.7280361652374268,0.44233722171871437,119.0,720.0
,,"(3, 3)",,,,,,119.0,
Y,R,"[3, 4]",-1.0,-1.0,0.5133628845214844,3.6570260524749756,0.3827976964823907,,721.0
R,U,"[2, 4]",-1.0,-2.0,0.27419590950012207,1.7051129341125488,0.4213242323074257,120.0,722.0
B,L,"[2, 3]",-1.0,-3.0,0.31321191787719727,1.5912799835205078,0.2794213605411174,120.0,723.0
G,D,"[3, 3]",-2.0,-5.0,0.35083794593811035,1.7560698986053467,0.40205895033258154,120.0,724.0
B,L,"[3, 2]",-1.0,-6.0,0.4151310920715332,1.7538399696350098,0.32267892837516476,120.0,725.0
Y,R,"[3, 3]",-2.0,-8.0,0.5681500434875488,2.219149112701416,0.6415509399748605,120.0,726.0
,,"(3, 3)",,,,,,120.0,
Y,R,"[3, 4]",-1.0,-1.0,0.4705779552459717,6.681895971298218,0.5736275211163591,,727.0
R,U,"[2, 4]",-1.0,-2.0,0.22092008590698242,1.5698208808898926,0.3436122246013315,121.0,728.0
B,L,"[2, 3]",-1.0,-3.0,0.3027980327606201,1.932365894317627,0.6257736691396973,121.0,729.0
B,L,"[2, 2]",-1.0,-4.0,0.2627429962158203,1.7134850025177002,0.45596489963118375,121.0,730.0
G,D,"[3, 2]",-1.0,-5.0,0.20328092575073242,1.8077991008758545,0.5972043863220442,121.0,731.0
Y,R,"[3, 3]",-2.0,-7.0,0.283336877822876,1.7596590518951416,0.4570060266126854,121.0,732.0
,,"(3, 3)",,,,,,121.0,
Y,R,"[3, 4]",-1.0,-1.0,0.4560568332672119,6.119457006454468,0.3433463115476892,,733.0
R,U,"[2, 4]",-1.0,-2.0,0.20304608345031738,1.5524380207061768,0.34585181578947094,122.0,734.0
R,U,"[1, 4]",-1.0,-3.0,0.2414381504058838,1.6678860187530518,0.4301347033413761,122.0,735.0
B,L,"[1, 3]",-1.0,-4.0,0.25771307945251465,1.7621729373931885,0.49227519601463127,122.0,736.0
B,L,"[1, 2]",-1.0,-5.0,0.24769306182861328,1.6941020488739014,0.4531498043992292,122.0,737.0
Y,R,"[1, 3]",-1.0,-6.0,0.38308000564575195,1.824260950088501,0.42756406984636836,122.0,738.0
,,"(3, 3)",,,,,,122.0,
Y,R,"[3, 4]",-1.0,-1.0,0.6236209869384766,4.702303886413574,0.6796446932687035,,739.0
R,U,"[2, 4]",-1.0,-2.0,0.23576807975769043,1.6315422058105469,0.37831120086638426,123.0,740.0
B,L,"[2, 3]",-1.0,-3.0,0.5260219573974609,1.8040599822998047,0.282593186162053,123.0,741.0
R,U,"[1, 3]",-1.0,-4.0,0.7194209098815918,2.091789960861206,0.35753069964342843,123.0,742.0
G,D,"[2, 3]",-1.0,-5.0,0.4555230140686035,1.7518408298492432,0.29283869296580073,123.0,743.0
Y,R,"[2, 4]",-1.0,-6.0,0.47620511054992676,2.1222829818725586,0.6482732459665052,123.0,744.0
,,"(3, 3)",,,,,,123.0,
Y,R,"[3, 4]",-1.0,-1.0,0.5659201145172119,4.115782022476196,0.3309675143238542,,745.0
R,U,"[2, 4]",-1.0,-2.0,0.30360984802246094,1.6246910095214844,0.3058043949100476,124.0,746.0
B,L,"[2, 3]",-1.0,-3.0,0.34485507011413574,2.004551887512207,0.6599828915156171,124.0,747.0
G,D,"[3, 3]",-2.0,-5.0,0.4329390525817871,2.0186879634857178,0.5787040247364434,124.0,748.0
B,L,"[3, 2]",-1.0,-6.0,0.25428295135498047,1.554603099822998,0.30034255811992744,124.0,749.0
Y,R,"[3, 3]",-2.0,-8.0,0.3335599899291992,1.7580440044403076,0.4245751690845354,124.0,750.0
,,"(3, 3)",,,,,,124.0,
Y,R,"[3, 4]",-1.0,-1.0,0.6773049831390381,4.476529121398926,0.6344528185701438,,751.0
R,U,"[2, 4]",-1.0,-1.0,0.01294708251953125,5.4891932010650635,0.34067904525273307,125.0,752.0
R,U,"[1, 4]",-1.0,-2.0,0.5303871631622314,1.7990899085998535,0.2567248719797012,125.0,753.0
B,L,"[1, 3]",-1.0,-3.0,0.424501895904541,1.7652089595794678,0.3386025248729379,125.0,754.0
G,D,"[2, 3]",-2.0,-3.0,1.0318019390106201,2.5432300567626953,0.4817619728556584,125.0,755.0
G,D,"[3, 3]",-2.0,-5.0,0.2610900402069092,1.8805749416351318,0.5954770446155747,125.0,756.0
,,"(3, 3)",,,,,,125.0,
Y,R,"[3, 4]",-1.0,-1.0,0.5143609046936035,6.419014930725098,0.6809873417427799,,757.0
R,U,"[2, 4]",-1.0,-2.0,0.21913695335388184,1.7245821952819824,0.48921113792347265,126.0,758.0
B,L,"[2, 3]",-1.0,-3.0,0.2736940383911133,1.8129968643188477,0.5353854683927336,126.0,759.0
G,D,"[3, 3]",-2.0,-5.0,0.10109710693359375,1.7608089447021484,0.646281919604746,126.0,760.0
Y,R,"[3, 4]",-1.0,-6.0,0.31038498878479004,1.7366580963134766,0.39980831101625214,126.0,761.0
B,L,"[3, 3]",-2.0,-8.0,0.28518104553222656,1.8740391731262207,0.5737641275859703,126.0,762.0
,,"(3, 3)",,,,,,126.0,
Y,R,"[3, 4]",-1.0,-1.0,0.5193271636962891,4.228950023651123,0.7026227969504866,,763.0
R,U,"[2, 4]",-1.0,-2.0,0.28626585006713867,1.9372100830078125,0.6397310542955517,127.0,764.0
B,L,"[2, 3]",-1.0,-3.0,0.23619794845581055,1.5136361122131348,0.270379643107234,127.0,765.0
G,D,"[3, 3]",-2.0,-5.0,0.3238849639892578,1.762887954711914,0.43332952573866484,127.0,766.0
B,L,"[3, 2]",-1.0,-6.0,0.22809195518493652,1.934464931488037,0.7007865017015977,127.0,767.0
Y,R,"[3, 3]",-2.0,-8.0,0.23555397987365723,1.8546710014343262,0.6056818981972147,127.0,768.0
,,"(3, 3)",,,,,,127.0,
R,U,"[2, 3]",-1.0,-1.0,0.8446071147918701,4.824041128158569,0.3965619373842767,,769.0
Y,R,"[2, 4]",-1.0,-2.0,0.24060702323913574,1.6701600551605225,0.41675496484027397,128.0,770.0
B,L,"[2, 3]",-1.0,-3.0,0.28078794479370117,1.906264066696167,0.6229694582936226,128.0,771.0
B,L,"[2, 2]",-1.0,-4.0,0.28287816047668457,1.7366981506347656,0.42643754009605467,128.0,772.0
G,D,"[3, 2]",-1.0,-5.0,0.23875188827514648,1.6128740310668945,0.3727091299942147,128.0,773.0
B,L,"[3, 1]",1.0,-4.0,0.2901730537414551,1.664959192276001,0.3711369289985899,128.0,774.0
,,"(3, 3)",,,,,,128.0,
Y,R,"[3, 4]",-1.0,-1.0,0.6294481754302979,8.7479989528656,0.6524321341845877,,775.0
R,U,"[2, 4]",-1.0,-2.0,0.2188398838043213,1.8478269577026367,0.6169934983434651,129.0,776.0
B,L,"[2, 3]",-1.0,-3.0,0.1649479866027832,1.6563141345977783,0.4900841217113485,129.0,777.0
G,D,"[3, 3]",-2.0,-5.0,0.19403290748596191,1.8811280727386475,0.6877817348917532,129.0,778.0
B,L,"[3, 2]",-1.0,-6.0,0.2777578830718994,1.9333059787750244,0.6545026771085377,129.0,779.0
Y,R,"[3, 3]",-2.0,-8.0,0.22723793983459473,1.6478750705718994,0.41914027138386806,129.0,780.0
,,"(3, 3)",,,,,,129.0,
Y,R,"[3, 4]",-1.0,-1.0,0.6353259086608887,3.8881828784942627,0.357415100173731,,781.0
R,U,"[2, 4]",-1.0,-2.0,0.2880549430847168,1.6575322151184082,0.3648163686450815,130.0,782.0
B,L,"[2, 3]",-1.0,-3.0,0.25664401054382324,1.6837570667266846,0.41527347763864314,130.0,783.0
G,D,"[3, 3]",-2.0,-5.0,0.16160917282104492,1.6160800457000732,0.44799920131930115,130.0,784.0
B,L,"[3, 2]",-1.0,-6.0,0.2795989513397217,1.96579909324646,0.6635123818634252,130.0,785.0
Y,R,"[3, 3]",-2.0,-8.0,0.2519800662994385,1.6190519332885742,0.34966625523662975,130.0,786.0
,,"(3, 3)",,,,,,130.0,
Y,R,"[3, 4]",-1.0,-1.0,0.8816990852355957,3.718173027038574,0.6177782239597359,,787.0
R,U,"[2, 4]",-1.0,-2.0,0.2508211135864258,1.6460020542144775,0.38080281544020944,131.0,788.0
B,L,"[2, 3]",-1.0,-3.0,0.2429201602935791,1.7480590343475342,0.49531906398133263,131.0,789.0
G,D,"[3, 3]",-2.0,-5.0,0.24965786933898926,1.675969123840332,0.4213338651007554,131.0,790.0
Y,R,"[3, 4]",-1.0,-6.0,0.41857099533081055,2.0899741649627686,0.6610442486925296,131.0,791.0
B,L,"[3, 3]",-2.0,-8.0,0.6960339546203613,2.3445820808410645,0.6391493383403757,131.0,792.0
,,"(3, 3)",,,,,,131.0,
Y,R,"[3, 4]",-1.0,-1.0,0.7449350357055664,3.6196680068969727,0.592104939251509,,793.0
R,U,"[2, 4]",-1.0,-2.0,0.2145709991455078,1.8774230480194092,0.6694779749484329,132.0,794.0
B,L,"[2, 3]",-1.0,-2.0,0.01926589012145996,5.5713019371032715,0.42450798016032554,132.0,795.0
B,L,"[2, 2]",-1.0,-3.0,0.3200521469116211,1.8442978858947754,0.5186337557514353,132.0,796.0
G,D,"[3, 2]",-1.0,-4.0,0.27302980422973633,1.9965498447418213,0.7150358941300501,132.0,797.0
Y,R,"[3, 3]",-2.0,-6.0,0.22498011589050293,1.5769329071044922,0.34233413001060176,132.0,798.0
,,"(3, 3)",,,,,,132.0,
Y,R,"[3, 4]",-1.0,-1.0,0.7040128707885742,4.110011100769043,0.5022704842413557,,799.0
R,U,"[2, 4]",-1.0,-2.0,0.2648019790649414,1.8441829681396484,0.5631237746658113,133.0,800.0
B,L,"[2, 3]",-1.0,-3.0,0.25403404235839844,1.8152899742126465,0.5451064920827914,133.0,801.0
G,D,"[3, 3]",-2.0,-5.0,0.2369229793548584,1.6641299724578857,0.4259822693691689,133.0,802.0
Y,R,"[3, 4]",-1.0,-6.0,0.43054795265197754,2.1622660160064697,0.7214989076682572,133.0,803.0
B,L,"[3, 3]",-2.0,-8.0,0.21291399002075195,1.4884929656982422,0.2602848036698687,133.0,804.0
,,"(3, 3)",,,,,,133.0,
Y,R,"[3, 4]",-1.0,-1.0,0.6703169345855713,4.527527093887329,0.4378512418606345,,805.0
R,U,"[2, 4]",-1.0,-2.0,0.3210411071777344,1.9090490341186523,0.5799826909329231,134.0,806.0
B,L,"[2, 3]",1.0,-1.0,0.20677900314331055,1.7928547859191895,0.5729903420310111,134.0,807.0
Y,R,"[2, 4]",-1.0,-2.0,0.7123620510101318,2.295811891555786,0.5688756572829969,134.0,808.0
R,U,"[1, 4]",-1.0,-3.0,0.23447108268737793,1.7666449546813965,0.5189476831021635,134.0,809.0
G,D,"[2, 4]",-1.0,-4.0,0.2900278568267822,1.7661259174346924,0.4685311213155203,134.0,810.0
,,"(3, 3)",,,,,,134.0,
Y,R,"[3, 4]",-1.0,-1.0,0.7069599628448486,3.7717390060424805,0.3070576903022953,,811.0
R,U,"[2, 4]",-1.0,-2.0,0.2737081050872803,1.7386138439178467,0.4620872241410654,135.0,812.0
B,L,"[2, 3]",1.0,-1.0,0.29038381576538086,1.7587449550628662,0.4711329853539975,135.0,813.0
G,D,"[3, 3]",-2.0,-3.0,0.9228060245513916,2.2747280597686768,0.3457561217723564,135.0,814.0
Y,R,"[3, 4]",-1.0,-4.0,0.4962918758392334,1.8980357646942139,0.4104028405733072,135.0,815.0
R,U,"[2, 4]",-1.0,-5.0,0.6242899894714355,2.301975965499878,0.6790014973364695,135.0,816.0
,,"(3, 3)",,,,,,135.0,
Y,R,"[3, 4]",-1.0,-1.0,0.6439650058746338,3.9573280811309814,0.6199788047902712,,817.0
R,U,"[2, 4]",-1.0,-2.0,0.22796297073364258,1.639204978942871,0.4091181054707166,136.0,818.0
R,U,"[1, 4]",-1.0,-3.0,0.24561715126037598,1.716850996017456,0.4758159190802284,136.0,819.0
B,L,"[1, 3]",-1.0,-4.0,0.2840428352355957,1.945641040802002,0.654649807895765,136.0,820.0
G,D,"[2, 3]",1.0,-3.0,0.24604201316833496,1.9929330348968506,0.730964908329135,136.0,821.0
Y,R,"[2, 4]",-1.0,-4.0,0.4681968688964844,2.0329980850219727,0.5476268716770563,136.0,822.0
,,"(3, 3)",,,,,,136.0,
Y,R,"[3, 4]",-1.0,-1.0,0.8364310264587402,4.394489049911499,0.4256608116190275,,823.0
R,U,"[2, 4]",-1.0,-2.0,0.2605249881744385,1.8006799221038818,0.5429438253751342,137.0,824.0
G,D,"[3, 4]",-1.0,-3.0,0.322598934173584,1.8652191162109375,0.5579767938934369,137.0,825.0
Y,R,"[3, 5]",-1.0,-4.0,0.24910902976989746,1.6399509906768799,0.3815096842973587,137.0,826.0
G,D,"[4, 5]",-1.0,-5.0,0.5030841827392578,1.9581618309020996,0.4396210191804012,137.0,827.0
R,U,"[3, 5]",-1.0,-6.0,0.7294950485229492,2.2201650142669678,0.49315650706712216,137.0,828.0
,,"(3, 3)",,,,,,137.0,
Y,R,"[3, 4]",-1.0,-1.0,0.6143419742584229,3.870033025741577,0.37998873319851456,,829.0
R,U,"[2, 4]",-1.0,-2.0,0.24835610389709473,1.8528470993041992,0.5992939372039813,138.0,830.0
B,L,"[2, 3]",1.0,-1.0,0.8946008682250977,2.188054084777832,0.28758775023746147,138.0,831.0
R,U,"[1, 3]",-2.0,-1.0,1.1462440490722656,2.6641111373901367,0.4848841298161401,138.0,832.0
G,D,"[2, 3]",-2.0,-1.0,1.0757191181182861,2.4935789108276367,0.37889852526889317,138.0,833.0
G,D,"[3, 3]",-2.0,-3.0,0.725517988204956,2.4825549125671387,0.7441732040753305,138.0,834.0
,,"(3, 3)",,,,,,138.0,
Y,R,"[3, 4]",-1.0,-1.0,0.5800840854644775,6.33379602432251,0.5283101100888046,,835.0
R,U,"[2, 4]",-1.0,-2.0,0.2829251289367676,1.749741792678833,0.46144928391954143,139.0,836.0
R,U,"[1, 4]",-1.0,-3.0,0.26413512229919434,1.6654820442199707,0.4103133102594033,139.0,837.0
Y,R,"[1, 5]",-1.0,-4.0,0.2705528736114502,1.7531590461730957,0.4801889403098734,139.0,838.0
G,D,"[2, 5]",-1.0,-5.0,0.2286388874053955,1.5256359577178955,0.2892719086462152,139.0,839.0
Y,R,"[2, 6]",0.0,-5.0,0.4502279758453369,2.192502021789551,0.7314150162038602,139.0,840.0
,,"(3, 3)",,,,,,139.0,
Y,R,"[3, 4]",-1.0,-1.0,0.6352269649505615,4.488250017166138,0.6532285156114417,,841.0
R,U,"[2, 4]",-1.0,-2.0,0.3790469169616699,1.7898931503295898,0.4101029836979213,140.0,842.0
G,D,"[3, 4]",-1.0,-3.0,0.40373802185058594,1.9934709072113037,0.5867546375618955,140.0,843.0
R,U,"[2, 4]",-1.0,-4.0,0.4779040813446045,1.930858850479126,0.45110997918278084,140.0,844.0
Y,R,"[2, 5]",-1.0,-5.0,0.29973602294921875,1.8919258117675781,0.5928833845792492,140.0,845.0
B,L,"[2, 4]",-1.0,-6.0,0.29424095153808594,1.9551398754119873,0.6645566557369031,140.0,846.0
,,"(3, 3)",,,,,,140.0,
Y,R,"[3, 4]",-1.0,-1.0,0.8134739398956299,4.391366958618164,0.6727531707267906,,847.0
R,U,"[2, 4]",-1.0,-2.0,0.25653791427612305,1.9366729259490967,0.6758393391063376,141.0,848.0
G,D,"[3, 4]",-1.0,-3.0,0.3604741096496582,1.8946919441223145,0.5375687102008456,141.0,849.0
Y,R,"[3, 5]",-1.0,-4.0,0.3073141574859619,1.7748420238494873,0.46238013245143306,141.0,850.0
R,U,"[2, 5]",-1.0,-5.0,0.5907769203186035,2.2131431102752686,0.6256016994924201,141.0,851.0
G,D,"[3, 5]",-1.0,-6.0,0.3491249084472656,1.823302984237671,0.4658586310717768,141.0,852.0
,,"(3, 3)",,,,,,141.0,
Y,R,"[3, 4]",-1.0,-1.0,0.7139420509338379,4.242268085479736,0.5912654489482402,,853.0
R,U,"[2, 4]",-1.0,-2.0,0.23952889442443848,1.5358362197875977,0.2942549561007786,142.0,854.0
R,U,"[1, 4]",-1.0,-3.0,0.31028199195861816,1.6922729015350342,0.38634171836277,142.0,855.0
G,D,"[2, 4]",-1.0,-4.0,0.26846909523010254,1.8954410552978516,0.6148029064237684,142.0,856.0
G,D,"[3, 4]",-1.0,-5.0,0.2526099681854248,1.6552209854125977,0.4037075986224676,142.0,857.0
Y,R,"[3, 5]",-1.0,-6.0,0.3265988826751709,1.8011870384216309,0.4714865354995918,142.0,858.0
,,"(3, 3)",,,,,,142.0,
Y,R,"[3, 4]",-1.0,-1.0,0.7741961479187012,4.697466850280762,0.43583518094153645,,859.0
R,U,"[2, 4]",-1.0,-2.0,0.2185680866241455,1.5745370388031006,0.34372178633470685,143.0,860.0
B,L,"[2, 3]",1.0,-1.0,0.37113094329833984,1.870149850845337,0.4970213446578144,143.0,861.0
Y,R,"[2, 4]",-1.0,-2.0,0.30376696586608887,2.010923147201538,0.691264785056118,143.0,862.0
R,U,"[1, 4]",-1.0,-3.0,0.34581780433654785,1.703235149383545,0.3613005423343579,143.0,863.0
G,D,"[2, 4]",-1.0,-4.0,0.25694990158081055,1.5325469970703125,0.2772363486045755,143.0,864.0
,,"(3, 3)",,,,,,143.0,
Y,R,"[3, 4]",-1.0,-1.0,0.7346258163452148,4.27561616897583,0.41942345637749945,,865.0
R,U,"[2, 4]",-1.0,-2.0,0.36241793632507324,2.0086190700531006,0.6445366423996333,144.0,866.0
G,D,"[3, 4]",-1.0,-3.0,0.20479106903076172,1.8957209587097168,0.6902375174522224,144.0,867.0
G,D,"[4, 4]",-1.0,-4.0,0.2698180675506592,1.725773811340332,0.44959628406419266,144.0,868.0
Y,R,"[4, 5]",-1.0,-5.0,0.2704129219055176,1.9806139469146729,0.6966438326359468,144.0,869.0
G,D,"[5, 5]",-1.0,-6.0,0.9220261573791504,2.55177903175354,0.6152377333143091,144.0,870.0
,,"(3, 3)",,,,,,144.0,
Y,R,"[3, 4]",-1.0,-1.0,0.6785671710968018,4.453277111053467,0.36895533695455557,,871.0
R,U,"[2, 4]",-1.0,-2.0,0.2934269905090332,1.560215950012207,0.2624907308415713,145.0,872.0
G,D,"[3, 4]",-1.0,-3.0,0.35834407806396484,2.052353858947754,0.6978789542449646,145.0,873.0
G,D,"[4, 4]",-1.0,-4.0,0.32669711112976074,1.7140672206878662,0.3790512469995701,145.0,874.0
G,D,"[5, 4]",-1.0,-5.0,0.6957049369812012,2.2011539936065674,0.5132087653499802,145.0,875.0
Y,R,"[5, 5]",-1.0,-6.0,0.38309502601623535,1.9569790363311768,0.5535077917482969,145.0,876.0
,,"(3, 3)",,,,,,145.0,
Y,R,"[3, 4]",-1.0,-1.0,0.6513030529022217,7.184185981750488,0.7044877312417488,,877.0
R,U,"[2, 4]",-1.0,-2.0,0.22806310653686523,1.7620999813079834,0.533417465636874,146.0,878.0
B,L,"[2, 3]",1.0,-1.0,0.30592989921569824,1.7491040229797363,0.4324878127780117,146.0,879.0
R,U,"[1, 3]",-1.0,-2.0,0.5745718479156494,2.1558988094329834,0.5715046103097327,146.0,880.0
G,D,"[2, 3]",1.0,-1.0,0.24475812911987305,1.7831950187683105,0.5216770771847079,146.0,881.0
Y,R,"[2, 4]",-1.0,-2.0,0.5127007961273193,1.9683470726013184,0.44005674322569377,146.0,882.0
,,"(3, 3)",,,,,,146.0,
Y,R,"[3, 4]",-1.0,-1.0,0.6896538734436035,4.39173698425293,0.7318186496520126,,883.0
R,U,"[2, 4]",-1.0,-2.0,0.23014402389526367,1.5711851119995117,0.3364820317496598,147.0,884.0
R,U,"[1, 4]",-1.0,-3.0,0.40936899185180664,1.994732141494751,0.5809429609964682,147.0,885.0
G,D,"[2, 4]",-1.0,-4.0,0.27858805656433105,1.7610220909118652,0.47551523631879333,147.0,886.0
Y,R,"[2, 5]",-1.0,-5.0,0.3584589958190918,1.809964895248413,0.45216052110228483,147.0,887.0
B,L,"[2, 4]",-1.0,-6.0,0.40992307662963867,1.6925849914550781,0.27829449889685365,147.0,888.0
,,"(3, 3)",,,,,,147.0,
Y,R,"[3, 4]",-1.0,-1.0,0.7365858554840088,5.48307204246521,0.6278494345854021,,889.0
R,U,"[2, 4]",-1.0,-2.0,0.23646306991577148,1.906059980392456,0.667118858137892,148.0,890.0
G,D,"[3, 4]",-1.0,-3.0,0.25980710983276367,1.5815370082855225,0.3156266278120861,148.0,891.0
G,D,"[4, 4]",-1.0,-4.0,0.3939089775085449,2.0473759174346924,0.6460992891143965,148.0,892.0
Y,R,"[4, 5]",-1.0,-5.0,0.31359219551086426,1.753593921661377,0.4332162726006076,148.0,893.0
B,L,"[4, 4]",-1.0,-6.0,0.5256590843200684,2.1584460735321045,0.6249758411731392,148.0,894.0
,,"(3, 3)",,,,,,148.0,
Y,R,"[3, 4]",-1.0,-1.0,0.737285852432251,7.263592004776001,0.5555480964545889,,895.0
R,U,"[2, 4]",-1.0,-2.0,0.24836492538452148,1.7247049808502197,0.48011867357596194,149.0,896.0
B,L,"[2, 3]",1.0,-1.0,0.24510693550109863,1.909477949142456,0.6396330716813854,149.0,897.0
G,D,"[3, 3]",-2.0,-3.0,0.756295919418335,2.4989569187164307,0.7384208735819122,149.0,898.0
G,D,"[4, 3]",-1.0,-4.0,0.4743010997772217,2.0708608627319336,0.5928476286426347,149.0,899.0
Y,R,"[4, 4]",-1.0,-5.0,0.3088400363922119,1.9204459190368652,0.6131443658133451,149.0,900.0
,,"(3, 3)",,,,,,149.0,
Y,R,"[3, 4]",-1.0,-1.0,0.6127448081970215,4.3531880378723145,0.6830462592352833,,901.0
R,U,"[2, 4]",-1.0,-2.0,0.19137001037597656,1.7585351467132568,0.5584318710942366,150.0,902.0
G,D,"[3, 4]",-1.0,-3.0,0.2157740592956543,1.717353105545044,0.4925816784659241,150.0,903.0
Y,R,"[3, 5]",-1.0,-4.0,0.21690917015075684,1.5318799018859863,0.307984751008955,150.0,904.0
R,U,"[2, 5]",-1.0,-5.0,0.2898869514465332,1.9763660430908203,0.6839545709517844,150.0,905.0
G,D,"[3, 5]",-1.0,-6.0,0.16443991661071777,1.4704790115356445,0.3048767071545171,150.0,906.0
,,"(3, 3)",,,,,,150.0,
Y,R,"[3, 4]",-1.0,-1.0,0.6334230899810791,3.639296054840088,0.31078608195825147,,907.0
R,U,"[2, 4]",-1.0,-2.0,0.22550082206726074,1.6445510387420654,0.42202775657679414,151.0,908.0
B,L,"[2, 3]",1.0,-1.0,0.3936030864715576,1.9664092063903809,0.5715041638841164,151.0,909.0
G,D,"[3, 3]",-2.0,-3.0,0.2960519790649414,1.9973299503326416,0.6856353902961922,151.0,910.0
Y,R,"[3, 4]",-1.0,-4.0,0.49304699897766113,1.7570209503173828,0.25964270583076005,151.0,911.0
R,U,"[2, 4]",-1.0,-5.0,0.3343391418457031,1.8391940593719482,0.49884507363353175,151.0,912.0
,,"(3, 3)",,,,,,151.0,
Y,R,"[3, 4]",-1.0,-1.0,0.6086549758911133,3.9816160202026367,0.5639253332546189,,913.0
R,U,"[2, 4]",-1.0,-2.0,0.3549628257751465,1.9546420574188232,0.5847288985144656,152.0,914.0
R,U,"[1, 4]",-1.0,-2.0,0.08594989776611328,5.51839017868042,0.2869059127949787,152.0,915.0
R,U,"[0, 4]",0.0,-2.0,0.43249988555908203,2.0538408756256104,0.6071115174613768,152.0,916.0
G,D,"[1, 4]",-1.0,-3.0,0.3426961898803711,1.636340856552124,0.2937536462369486,152.0,917.0
Y,R,"[1, 5]",-1.0,-4.0,0.5903711318969727,2.2380878925323486,0.6483043235782262,152.0,918.0
,,"(3, 3)",,,,,,152.0,
Y,R,"[3, 4]",-1.0,-1.0,0.6315891742706299,4.459875822067261,0.45858924994653744,,919.0
R,U,"[2, 4]",-1.0,-2.0,0.2265641689300537,1.915891170501709,0.6910113974796546,153.0,920.0
G,D,"[3, 4]",-1.0,-3.0,0.20589280128479004,1.852471113204956,0.6433404816340742,153.0,921.0
G,D,"[4, 4]",-1.0,-4.0,0.2372281551361084,1.5671899318695068,0.32746018597670323,153.0,922.0
Y,R,"[4, 5]",-1.0,-5.0,0.37657904624938965,2.061785936355591,0.6889459774690566,153.0,923.0
R,U,"[3, 5]",-1.0,-6.0,0.4867699146270752,1.8650360107421875,0.3710666341267398,153.0,924.0
,,"(3, 3)",,,,,,153.0,
Y,R,"[3, 4]",-1.0,-1.0,0.596566915512085,4.555009841918945,0.542808788044642,,925.0
R,U,"[2, 4]",-1.0,-2.0,0.26155710220336914,1.8357620239257812,0.5784443960085068,154.0,926.0
R,U,"[1, 4]",-1.0,-3.0,0.22104907035827637,1.6398978233337402,0.41833679905974475,154.0,927.0
G,D,"[2, 4]",-1.0,-4.0,0.2113208770751953,1.5368728637695312,0.3223502066817432,154.0,928.0
Y,R,"[2, 5]",-1.0,-5.0,0.2847878932952881,1.5692460536956787,0.274882868673615,154.0,929.0
R,U,"[1, 5]",-1.0,-6.0,0.20733404159545898,1.9415619373321533,0.7327567149208263,154.0,930.0
,,"(3, 3)",,,,,,154.0,
Y,R,"[3, 4]",-1.0,-1.0,0.5576770305633545,4.087105989456177,0.3701405273654056,,931.0
R,U,"[2, 4]",-1.0,-2.0,0.21335411071777344,1.7378311157226562,0.5244053960179453,155.0,932.0
G,D,"[3, 4]",-1.0,-3.0,0.21677803993225098,1.6091549396514893,0.3837953335595828,155.0,933.0
Y,R,"[3, 5]",-1.0,-4.0,0.35125207901000977,2.1129941940307617,0.7463984904033636,155.0,934.0
R,U,"[2, 5]",-1.0,-5.0,0.3186829090118408,1.7487740516662598,0.4123714661302134,155.0,935.0
G,D,"[3, 5]",-1.0,-6.0,0.6165499687194824,2.0326080322265625,0.4116364104384159,155.0,936.0
,,"(3, 3)",,,,,,155.0,
Y,R,"[3, 4]",-1.0,-1.0,0.6117050647735596,4.789535999298096,0.36816239346187757,,937.0
R,U,"[2, 4]",-1.0,-2.0,0.16631102561950684,1.4869441986083984,0.3051642378346278,156.0,938.0
B,L,"[2, 3]",1.0,-1.0,0.37222814559936523,1.8372728824615479,0.45862738997159247,156.0,939.0
Y,R,"[2, 4]",-1.0,-2.0,0.32291388511657715,1.9619669914245605,0.6372346066950397,156.0,940.0
G,D,"[3, 4]",-1.0,-2.0,0.032982826232910156,5.671804904937744,0.5090499103889934,156.0,941.0
G,D,"[4, 4]",-1.0,-3.0,0.6795389652252197,2.2749040126800537,0.6006228147425898,156.0,942.0
,,"(3, 3)",,,,,,156.0,
Y,R,"[3, 4]",-1.0,-1.0,0.5510890483856201,3.952436923980713,0.420294575605051,,943.0
R,U,"[2, 4]",-1.0,-2.0,0.25245213508605957,1.8349080085754395,0.5716704830502158,157.0,944.0
Y,R,"[2, 5]",-1.0,-3.0,0.27234601974487305,1.6570169925689697,0.3788426139266923,157.0,945.0
G,D,"[3, 5]",-1.0,-4.0,0.4074831008911133,2.082720994949341,0.677937772357548,157.0,946.0
R,U,"[2, 5]",-1.0,-5.0,0.2420809268951416,1.7230708599090576,0.4844844037226392,157.0,947.0
Y,R,"[2, 6]",0.0,-5.0,0.3630540370941162,1.6739580631256104,0.308696767487644,157.0,948.0
,,"(3, 3)",,,,,,157.0,
R,U,"[2, 3]",1.0,1.0,0.38140106201171875,5.589288949966431,0.3980524266802596,,949.0
Y,R,"[2, 4]",-1.0,0.0,0.8792791366577148,2.33705997467041,0.4517096383480589,158.0,950.0
R,U,"[1, 4]",-1.0,-1.0,0.2349870204925537,1.905580997467041,0.6570067427533355,158.0,951.0
G,D,"[2, 4]",-1.0,-2.0,0.2310481071472168,1.9064240455627441,0.6799967557279503,158.0,952.0
Y,R,"[2, 5]",-1.0,-3.0,0.2945690155029297,1.8129451274871826,0.5098463302401809,158.0,953.0
G,D,"[3, 5]",-1.0,-4.0,0.3047828674316406,1.6919269561767578,0.3852139580906611,158.0,954.0
,,"(3, 3)",,,,,,158.0,
Y,R,"[3, 4]",-1.0,-1.0,0.6001031398773193,5.1028618812561035,0.5715009691163941,,955.0
R,U,"[2, 4]",-1.0,-2.0,0.2287311553955078,1.9063889980316162,0.6779118250665634,159.0,956.0
G,D,"[3, 4]",-1.0,-3.0,0.2650940418243408,1.8089320659637451,0.5368605450096725,159.0,957.0
B,L,"[3, 3]",-2.0,-5.0,0.4392998218536377,1.8270010948181152,0.38068586127366255,159.0,958.0
R,U,"[2, 3]",1.0,-4.0,0.5339281558990479,1.9393880367279053,0.3868091219965679,159.0,959.0
G,D,"[3, 3]",-2.0,-6.0,0.49766111373901367,1.868959903717041,0.35585284566528774,159.0,960.0
,,"(3, 3)",,,,,,159.0,
Y,R,"[3, 4]",-1.0,-1.0,0.6275250911712646,5.517904043197632,0.7234894351689418,,961.0
R,U,"[2, 4]",-1.0,-1.0,0.04598808288574219,5.822883129119873,0.646556121594634,160.0,962.0
R,U,"[1, 4]",-1.0,-2.0,0.23560214042663574,1.735002040863037,0.4815513712317226,160.0,963.0
Y,R,"[1, 5]",-1.0,-3.0,0.27512097358703613,1.6914629936218262,0.4063715664839304,160.0,964.0
G,D,"[2, 5]",-1.0,-4.0,0.23790884017944336,1.51619291305542,0.2727298028496835,160.0,965.0
R,U,"[1, 5]",-1.0,-5.0,0.38149094581604004,2.101735830307007,0.7241288594072361,160.0,966.0
,,"(3, 3)",,,,,,160.0,
Y,R,"[3, 4]",-1.0,-1.0,0.5707690715789795,5.090468883514404,0.3153304276563869,,967.0
R,U,"[2, 4]",-1.0,-2.0,0.47870898246765137,1.8135180473327637,0.3285045404750583,161.0,968.0
B,L,"[2, 3]",1.0,-1.0,0.3445451259613037,1.7172019481658936,0.34600113712463215,161.0,969.0
G,D,"[3, 3]",-2.0,-3.0,0.9141068458557129,2.589470148086548,0.6684381501000523,161.0,970.0
Y,R,"[3, 4]",-1.0,-4.0,0.24806690216064453,1.856015920639038,0.5912780890382383,161.0,971.0
G,D,"[4, 4]",-1.0,-5.0,0.3802490234375,1.8673288822174072,0.4921285555257585,161.0,972.0
,,"(3, 3)",,,,,,161.0,
Y,R,"[3, 4]",-1.0,-1.0,0.850010871887207,4.8597331047058105,0.5518779290066005,,973.0
R,U,"[2, 4]",-1.0,-1.0,0.08280777931213379,5.554095029830933,0.3394415336228329,162.0,974.0
R,U,"[1, 4]",-2.0,-1.0,3.3605079650878906,4.676255226135254,0.26578128951922847,162.0,975.0
Y,R,"[1, 5]",-1.0,-2.0,0.5169739723205566,1.9471418857574463,0.4128206323799204,162.0,976.0
R,U,"[0, 5]",0.0,-2.0,0.34305787086486816,1.7176580429077148,0.36387310910449155,162.0,977.0
G,D,"[1, 5]",-1.0,-3.0,0.3464179039001465,1.9206550121307373,0.5508629170801647,162.0,978.0
,,"(3, 3)",,,,,,162.0,
Y,R,"[3, 4]",-1.0,-1.0,0.5297749042510986,7.157576084136963,0.5586635579650977,,979.0
G,D,"[4, 4]",-1.0,-2.0,0.23993611335754395,1.9009649753570557,0.65940720747613,163.0,980.0
R,U,"[3, 4]",-1.0,-3.0,0.2512819766998291,1.5929679870605469,0.33621757499694604,163.0,981.0
G,D,"[4, 4]",-1.0,-4.0,0.7931151390075684,2.118061065673828,0.3210135811960961,163.0,982.0
Y,R,"[4, 5]",-1.0,-5.0,0.3354780673980713,1.728255033493042,0.3824596210049344,163.0,983.0
B,L,"[4, 4]",-1.0,-6.0,0.6782839298248291,2.0824429988861084,0.3983101448674728,163.0,984.0
,,"(3, 3)",,,,,,163.0,
Y,R,"[3, 4]",-1.0,-1.0,0.7894678115844727,4.833891868591309,0.5988086111097073,,985.0
R,U,"[2, 4]",-1.0,-2.0,0.23266196250915527,1.5385758876800537,0.287777061446208,164.0,986.0
R,U,"[1, 4]",-2.0,-2.0,1.0476078987121582,2.3628220558166504,0.28381669781327834,164.0,987.0
R,U,"[0, 4]",0.0,-2.0,0.37702107429504395,1.7924401760101318,0.4095460977471695,164.0,988.0
G,D,"[1, 4]",-1.0,-3.0,0.28768205642700195,1.8249309062957764,0.5343900320365153,164.0,989.0
Y,R,"[1, 5]",-1.0,-4.0,0.36045098304748535,1.8165760040283203,0.45098066254850366,164.0,990.0
,,"(3, 3)",,,,,,164.0,
Y,R,"[3, 4]",-1.0,-1.0,0.7358829975128174,4.122159004211426,0.3732375509660109,,991.0
R,U,"[2, 4]",-1.0,-2.0,0.24626898765563965,1.7738721370697021,0.5304226301006199,165.0,992.0
G,D,"[3, 4]",-1.0,-3.0,0.369948148727417,2.0686728954315186,0.6822131772430291,165.0,993.0
Y,R,"[3, 5]",-1.0,-4.0,0.23569583892822266,1.5827739238739014,0.3321877008817835,165.0,994.0
B,L,"[3, 4]",-1.0,-5.0,0.4264240264892578,1.996203899383545,0.5612808618321204,165.0,995.0
G,D,"[4, 4]",-1.0,-6.0,0.31339597702026367,1.8261210918426514,0.5209233519784888,165.0,996.0
,,"(3, 3)",,,,,,165.0,
Y,R,"[3, 4]",-1.0,-1.0,0.878342866897583,3.9391679763793945,0.36028891747869224,,997.0
R,U,"[2, 4]",-1.0,-2.0,0.228363037109375,1.6584339141845703,0.43531075165056593,166.0,998.0
G,D,"[3, 4]",-1.0,-3.0,0.3659050464630127,1.6617629528045654,0.29733993325003444,166.0,999.0
Y,R,"[3, 5]",-1.0,-4.0,0.5351598262786865,1.9206359386444092,0.3680273872590281,166.0,1000.0
B,L,"[3, 4]",-1.0,-5.0,0.29479289054870605,1.598371982574463,0.29964169292328036,166.0,1001.0
G,D,"[4, 4]",-1.0,-6.0,0.2707481384277344,1.656851053237915,0.37318215052549397,166.0,1002.0
,,"(3, 3)",,,,,,166.0,
Y,R,"[3, 4]",-1.0,-1.0,0.5954980850219727,3.7710959911346436,0.577396661278604,,1003.0
R,U,"[2, 4]",-1.0,-2.0,0.24726009368896484,1.9884791374206543,0.7491966863212745,167.0,1004.0
G,D,"[3, 4]",-1.0,-3.0,0.33920812606811523,2.0928850173950195,0.7420947293344281,167.0,1005.0
Y,R,"[3, 5]",-1.0,-4.0,0.3038361072540283,1.7256309986114502,0.418204215500684,167.0,1006.0
B,L,"[3, 4]",-1.0,-5.0,0.29486513137817383,2.028240919113159,0.729525210584288,167.0,1007.0
G,D,"[4, 4]",-1.0,-6.0,0.2683088779449463,1.7136549949645996,0.42697159717405586,167.0,1008.0
,,"(3, 3)",,,,,,167.0,
Y,R,"[3, 4]",-1.0,-1.0,0.6563668251037598,3.347503185272217,0.42430562682510603,,1009.0
R,U,"[2, 4]",-1.0,-2.0,0.25963401794433594,1.7447359561920166,0.4857451832258626,168.0,1010.0
G,D,"[3, 4]",-1.0,-3.0,0.7086451053619385,2.051448106765747,0.3373606383654469,168.0,1011.0
Y,R,"[3, 5]",-1.0,-4.0,0.465709924697876,1.7212910652160645,0.2585597413533897,168.0,1012.0
G,D,"[4, 5]",-1.0,-5.0,0.4770369529724121,1.936378002166748,0.46150278050425675,168.0,1013.0
B,L,"[4, 4]",-1.0,-6.0,0.4417390823364258,2.0640170574188232,0.6253032361409583,168.0,1014.0
,,"(3, 3)",,,,,,168.0,
Y,R,"[3, 4]",-1.0,-1.0,0.6463267803192139,3.897533893585205,0.4899145216925251,,1015.0
R,U,"[2, 4]",-1.0,-2.0,0.29752206802368164,1.7869079113006592,0.49336864570358785,169.0,1016.0
B,L,"[2, 3]",1.0,-1.0,0.296065092086792,1.6826119422912598,0.37608184335117134,169.0,1017.0
G,D,"[3, 3]",-2.0,-3.0,0.868772029876709,2.3864691257476807,0.5125394811192375,169.0,1018.0
G,D,"[4, 3]",-1.0,-4.0,0.3714909553527832,2.061763048171997,0.6909716565259946,169.0,1019.0
Y,R,"[4, 4]",-1.0,-5.0,0.35495615005493164,1.6597020626068115,0.3010782393790721,169.0,1020.0
,,"(3, 3)",,,,,,169.0,
Y,R,"[3, 4]",-1.0,-1.0,0.6654379367828369,9.18241810798645,0.5335181352946821,,1021.0
R,U,"[2, 4]",-1.0,-2.0,0.19931507110595703,1.9270451068878174,0.7267710234145326,170.0,1022.0
G,D,"[3, 4]",-1.0,-3.0,0.23576116561889648,1.5566799640655518,0.3172607577722431,170.0,1023.0
Y,R,"[3, 5]",-1.0,-4.0,0.2745039463043213,1.5442569255828857,0.26160225708210305,170.0,1024.0
B,L,"[3, 4]",-1.0,-5.0,0.37078094482421875,1.6721220016479492,0.300355728917574,170.0,1025.0
G,D,"[4, 4]",-1.0,-6.0,0.22389793395996094,1.8213400840759277,0.5882308420198639,170.0,1026.0
,,"(3, 3)",,,,,,170.0,
Y,R,"[3, 4]",-1.0,-1.0,0.5388970375061035,3.473612070083618,0.26216633228436215,,1027.0
R,U,"[2, 4]",-1.0,-2.0,0.330280065536499,1.6993598937988281,0.3781080975793813,171.0,1028.0
Y,R,"[2, 5]",-1.0,-3.0,0.29430603981018066,1.5941438674926758,0.3057500092002941,171.0,1029.0
R,U,"[1, 5]",-1.0,-4.0,0.6054050922393799,1.9498178958892822,0.33877078326349486,171.0,1030.0
B,L,"[1, 4]",-1.0,-5.0,0.8058769702911377,2.1576201915740967,0.34668377971989045,171.0,1031.0
G,D,"[2, 4]",-1.0,-6.0,0.2729170322418213,1.6041009426116943,0.3174001819181589,171.0,1032.0
,,"(3, 3)",,,,,,171.0,
Y,R,"[3, 4]",-1.0,-1.0,0.673504114151001,4.034949064254761,0.7020531126810376,,1033.0
R,U,"[2, 4]",-1.0,-2.0,0.23586392402648926,1.9439160823822021,0.7124107907782817,172.0,1034.0
G,D,"[3, 4]",-1.0,-3.0,0.450793981552124,2.0525059700012207,0.5819274205610129,172.0,1035.0
Y,R,"[3, 5]",-1.0,-4.0,0.26822900772094727,1.6729450225830078,0.40524478223484506,172.0,1036.0
G,D,"[4, 5]",-1.0,-5.0,0.36818695068359375,2.0832951068878174,0.704710930663247,172.0,1037.0
B,L,"[4, 4]",-1.0,-6.0,0.44602489471435547,1.7230210304260254,0.278407075786638,172.0,1038.0
,,"(3, 3)",,,,,,172.0,
Y,R,"[3, 4]",-1.0,-1.0,0.5410380363464355,4.1417670249938965,0.7031421612125668,,1039.0
R,U,"[2, 4]",-1.0,-2.0,0.27945399284362793,1.9908790588378906,0.7105401932578432,173.0,1040.0
Y,R,"[2, 5]",-1.0,-3.0,0.45623087882995605,1.7997980117797852,0.36090107764809903,173.0,1041.0
G,D,"[3, 5]",-1.0,-4.0,0.5093679428100586,2.081425905227661,0.5753135547282325,173.0,1042.0
G,D,"[4, 5]",-1.0,-5.0,0.45938897132873535,2.008812189102173,0.5508532826404562,173.0,1043.0
B,L,"[4, 4]",-1.0,-6.0,0.30590295791625977,1.617959976196289,0.3192634714471821,173.0,1044.0
,,"(3, 3)",,,,,,173.0,
Y,R,"[3, 4]",-1.0,-1.0,0.6637229919433594,4.177865982055664,0.7138766716184854,,1045.0
R,U,"[2, 4]",-1.0,-2.0,0.20044207572937012,1.6337668895721436,0.4142846251743488,174.0,1046.0
B,L,"[2, 3]",1.0,-1.0,0.303203821182251,1.879951000213623,0.5605794566816262,174.0,1047.0
G,D,"[3, 3]",-2.0,-3.0,0.3000459671020508,1.9539499282836914,0.6645207415155142,174.0,1048.0
Y,R,"[3, 4]",-1.0,-4.0,0.2970731258392334,1.803706169128418,0.4851166485832839,174.0,1049.0
R,U,"[2, 4]",-1.0,-5.0,0.42620301246643066,1.9883170127868652,0.556581992765439,174.0,1050.0
,,"(3, 3)",,,,,,174.0,
Y,R,"[3, 4]",-1.0,-1.0,0.6306459903717041,5.300934076309204,0.25822908946252415,,1051.0
R,U,"[2, 4]",-1.0,-2.0,0.31632304191589355,1.7940020561218262,0.4686586106210139,175.0,1052.0
G,D,"[3, 4]",-1.0,-3.0,0.5001420974731445,2.2254350185394287,0.710473932413534,175.0,1053.0
G,D,"[4, 4]",-1.0,-4.0,0.3145909309387207,1.7687749862670898,0.46282351450265125,175.0,1054.0
Y,R,"[4, 5]",-1.0,-5.0,0.3383009433746338,1.8240461349487305,0.47024823484951095,175.0,1055.0
R,U,"[3, 5]",-1.0,-6.0,0.4427049160003662,2.170631170272827,0.7238164952768366,175.0,1056.0
,,"(3, 3)",,,,,,175.0,
Y,R,"[3, 4]",-1.0,-1.0,0.6502199172973633,6.053494930267334,0.4114144731838337,,1057.0
R,U,"[2, 4]",-1.0,-2.0,0.2802269458770752,1.7190911769866943,0.4470190342255717,176.0,1058.0
G,D,"[3, 4]",-1.0,-3.0,0.26840901374816895,1.7787399291992188,0.49239488250017105,176.0,1059.0
G,D,"[4, 4]",-1.0,-4.0,0.27942800521850586,1.7354698181152344,0.4612825883351652,176.0,1060.0
Y,R,"[4, 5]",-1.0,-5.0,0.31330013275146484,1.9900188446044922,0.6845115093293787,176.0,1061.0
