button_choice,action_choice,coordinate_choice,reward,cumulative_reward,rt,total_trial_time,iti,block_n,trial_n
G,D,"[4, 3]",-2.0,0.0,1.5047659873962402,3.141808032989502,0.5924476203081612,0.0,1.0
Y,R,"[4, 4]",-1.0,-1.0,0.5596828460693359,1.941770076751709,0.36809707133614866,0.0,2.0
B,L,"[4, 3]",0.0,-1.0,0.7757790088653564,2.15032696723938,0.3684241934778926,0.0,3.0
B,L,"[4, 2]",-1.0,-2.0,0.42731308937072754,2.105504035949707,0.6569335392942801,0.0,4.0
R,U,"[3, 2]",1.0,-1.0,0.4033010005950928,1.9793150424957275,0.5695966452807459,0.0,5.0
R,U,"[2, 2]",1.0,0.0,0.7080020904541016,2.287384033203125,0.5736498022843148,0.0,6.0
,,"(3, 3)",,,,,,0.0,
R,U,"[2, 3]",-1.0,-1.0,0.802778959274292,9.71379804611206,0.6209526702795949,,7.0
Y,R,"[2, 4]",-1.0,-2.0,0.3075680732727051,1.8845710754394531,0.5722255902862146,1.0,8.0
R,U,"[1, 4]",-1.0,-3.0,0.30319905281066895,1.8740580081939697,0.5630722045355687,1.0,9.0
B,L,"[1, 3]",1.0,-2.0,0.2828540802001953,1.6480748653411865,0.3446997922085614,1.0,10.0
B,L,"[1, 2]",1.0,-1.0,0.39260196685791016,1.6499149799346924,0.2613082186358733,1.0,11.0
B,L,"[1, 1]",-1.0,-2.0,0.7607779502868652,2.390022039413452,0.6176502178520608,1.0,12.0
,,"(3, 3)",,,,,,1.0,
G,D,"[4, 3]",-1.0,-1.0,0.5856850147247314,20.62802219390869,0.39621595382824526,,13.0
Y,R,"[4, 4]",-1.0,-1.0,0.0779881477355957,5.567952871322632,0.33081713289302056,2.0,14.0
Y,R,"[4, 5]",-1.0,-2.0,0.36755990982055664,2.123775005340576,0.7377053833749605,2.0,15.0
B,L,"[4, 4]",-1.0,-2.0,0.059198856353759766,5.690006971359253,0.5113981109161476,2.0,16.0
B,L,"[4, 3]",0.0,-2.0,0.2808399200439453,1.8923699855804443,0.6202468832708339,2.0,17.0
R,U,"[3, 3]",0.0,-2.0,0.7519791126251221,2.493696928024292,0.7472078372889627,2.0,18.0
,,"(3, 3)",,,,,,2.0,
G,D,"[4, 3]",-1.0,-1.0,0.9346461296081543,5.206148862838745,0.5703382165295123,,19.0
R,U,"[3, 3]",0.0,-1.0,0.5350840091705322,2.277827024459839,0.731307161039684,3.0,20.0
Y,R,"[3, 4]",-1.0,-2.0,0.5908768177032471,2.0297460556030273,0.42806918728371035,3.0,21.0
B,L,"[3, 3]",0.0,-2.0,0.5483770370483398,2.067647933959961,0.529103373185518,3.0,22.0
G,D,"[4, 3]",0.0,-2.0,0.6216030120849609,1.9740688800811768,0.35333773896710086,3.0,23.0
R,U,"[3, 3]",0.0,-2.0,0.5924949645996094,2.186105966567993,0.5892836103918009,3.0,24.0
,,"(3, 3)",,,,,,3.0,
Y,R,"[3, 4]",-2.0,0.0,1.0354299545288086,5.6788170337677,0.66788049895891,,25.0
Y,R,"[3, 5]",-1.0,-1.0,0.42896604537963867,1.8714399337768555,0.4397587407663949,4.0,26.0
R,U,"[2, 5]",-1.0,-2.0,0.6354238986968994,1.922590970993042,0.27904583782110504,4.0,27.0
G,D,"[3, 5]",0.0,-2.0,0.5487651824951172,2.2779691219329834,0.74006900408264,4.0,28.0
B,L,"[3, 4]",0.0,-2.0,0.34447503089904785,1.6702070236206055,0.3272783189219718,4.0,29.0
G,D,"[4, 4]",-1.0,-3.0,0.5678939819335938,1.9775440692901611,0.40476330881839157,4.0,30.0
,,"(3, 3)",,,,,,4.0,
R,U,"[2, 3]",-2.0,0.0,1.5205130577087402,4.9145660400390625,0.3361937985276203,,31.0
R,U,"[1, 3]",1.0,1.0,0.27207016944885254,2.006608009338379,0.7256333710063212,5.0,32.0
R,U,"[0, 3]",0.0,1.0,0.36113405227661133,1.6380369663238525,0.2809211869776772,5.0,33.0
Y,R,"[0, 4]",0.0,1.0,0.41024112701416016,1.8760368824005127,0.4568777016098172,5.0,34.0
B,L,"[0, 3]",0.0,1.0,0.284771203994751,1.9387590885162354,0.6620554884867589,5.0,35.0
G,D,"[1, 3]",0.0,1.0,0.31489014625549316,1.569288969039917,0.2650445107567517,5.0,36.0
,,"(3, 3)",,,,,,5.0,
Y,R,"[3, 4]",-1.0,-1.0,0.8909151554107666,4.4599738121032715,0.6247809844229677,,37.0
R,U,"[2, 4]",-1.0,-2.0,0.3235490322113037,2.0730648040771484,0.7477890397723255,6.0,38.0
R,U,"[1, 4]",-1.0,-3.0,0.3842198848724365,1.7292468547821045,0.32755372305692154,6.0,39.0
G,D,"[2, 4]",0.0,-3.0,0.2343120574951172,1.4974818229675293,0.25843201954867023,6.0,40.0
B,L,"[2, 3]",-1.0,-4.0,0.4743330478668213,1.8526759147644043,0.3777409746859618,6.0,41.0
Y,R,"[2, 4]",0.0,-4.0,0.25740694999694824,1.8477821350097656,0.5919914793906059,6.0,42.0
,,"(3, 3)",,,,,,6.0,
R,U,"[2, 3]",-1.0,-1.0,0.8934390544891357,5.528000116348267,0.5699609485536912,,43.0
G,D,"[3, 3]",0.0,-1.0,0.4292788505554199,1.7322700023651123,0.30249732582349265,7.0,44.0
B,L,"[3, 2]",1.0,0.0,0.32106900215148926,1.669234037399292,0.33841340887756005,7.0,45.0
B,L,"[3, 1]",1.0,1.0,0.26456689834594727,1.768183946609497,0.506580497263418,7.0,46.0
B,L,"[3, 0]",0.0,1.0,0.3639249801635742,1.655806064605713,0.29564673630313815,7.0,47.0
Y,R,"[3, 1]",0.0,1.0,0.39490795135498047,1.7040231227874756,0.31599222354599316,7.0,48.0
,,"(3, 3)",,,,,,7.0,
B,L,"[3, 2]",1.0,1.0,0.8318600654602051,6.165395021438599,0.5152298017224242,,49.0
B,L,"[3, 1]",1.0,2.0,0.31780099868774414,2.0175368785858154,0.699146097878862,8.0,50.0
B,L,"[3, 0]",0.0,2.0,0.2996349334716797,1.9730021953582764,0.6723293334751692,8.0,51.0
B,L,"[3, 0]",0.0,2.0,0.33664393424987793,1.740786075592041,0.4132807764725443,8.0,52.0
B,L,"[3, 0]",0.0,2.0,0.46787500381469727,1.9991850852966309,0.5290674035185523,8.0,53.0
B,L,"[3, 0]",0.0,2.0,0.3825371265411377,1.9942951202392578,0.6232733273807696,8.0,54.0
,,"(3, 3)",,,,,,8.0,
B,L,"[3, 2]",1.0,1.0,0.7309420108795166,3.9950668811798096,0.4020523037729849,,55.0
B,L,"[3, 1]",1.0,2.0,0.5766270160675049,2.0945959091186523,0.5132963231298826,9.0,56.0
R,U,"[2, 1]",1.0,3.0,0.5477030277252197,1.9139971733093262,0.3606831255316381,9.0,57.0
R,U,"[1, 1]",-1.0,2.0,0.48978495597839355,2.105394124984741,0.6158584991485412,9.0,58.0
G,D,"[2, 1]",0.0,2.0,0.41829800605773926,2.010003089904785,0.5758646050573869,9.0,59.0
Y,R,"[2, 2]",1.0,3.0,0.9662201404571533,2.3763070106506348,0.419229529592338,9.0,60.0
,,"(3, 3)",,,,,,9.0,
B,L,"[3, 2]",1.0,1.0,0.8575160503387451,4.811108112335205,0.28045911219905595,,61.0
B,L,"[3, 1]",1.0,2.0,0.5104541778564453,2.236427068710327,0.7164201696513774,10.0,62.0
R,U,"[2, 1]",1.0,3.0,0.5931599140167236,2.169965982437134,0.5699636271594142,10.0,63.0
Y,R,"[2, 2]",1.0,4.0,0.30777597427368164,1.6630620956420898,0.3499509560402213,10.0,64.0
Y,R,"[2, 3]",-1.0,3.0,0.2909369468688965,1.8566410541534424,0.5563076529036906,10.0,65.0
G,D,"[3, 3]",0.0,3.0,0.6669740676879883,2.133100986480713,0.47294250279580385,10.0,66.0
,,"(3, 3)",,,,,,10.0,
B,L,"[3, 2]",1.0,1.0,0.824570894241333,4.4358580112457275,0.525435167365081,,67.0
B,L,"[3, 1]",1.0,2.0,0.5045559406280518,2.0603530406951904,0.5524288688913167,11.0,68.0
R,U,"[2, 1]",1.0,3.0,0.5763158798217773,1.872520923614502,0.29188850074906225,11.0,69.0
G,D,"[3, 1]",0.0,3.0,0.4413599967956543,1.8116950988769531,0.37028122911719397,11.0,70.0
R,U,"[2, 1]",0.0,3.0,0.41906094551086426,1.735368013381958,0.3223335501282658,11.0,71.0
R,U,"[1, 1]",-1.0,2.0,0.5736789703369141,1.9383490085601807,0.3606439301580708,11.0,72.0
,,"(3, 3)",,,,,,11.0,
B,L,"[3, 2]",-2.0,0.0,1.4791557788848877,4.9769580364227295,0.4376285554627772,,73.0
B,L,"[3, 1]",1.0,1.0,0.22996306419372559,1.5407130718231201,0.29517561808947246,12.0,74.0
R,U,"[2, 1]",1.0,2.0,0.4936659336090088,2.227674961090088,0.739090097969624,12.0,75.0
Y,R,"[2, 2]",1.0,3.0,0.3466920852661133,1.6365258693695068,0.292869017193044,12.0,76.0
Y,R,"[2, 3]",-1.0,2.0,0.6221399307250977,1.8883788585662842,0.26453289502675015,12.0,77.0
R,U,"[1, 3]",1.0,3.0,0.9552650451660156,2.4666378498077393,0.49747975460097893,12.0,78.0
,,"(3, 3)",,,,,,12.0,
B,L,"[3, 2]",1.0,1.0,0.7940011024475098,5.65982985496521,0.7072132099288042,,79.0
B,L,"[3, 1]",1.0,2.0,0.512814998626709,1.9957098960876465,0.4867413651877124,13.0,80.0
R,U,"[2, 1]",1.0,3.0,0.49590516090393066,1.991814136505127,0.4951117362747419,13.0,81.0
Y,R,"[2, 2]",1.0,4.0,0.600836992263794,2.0101511478424072,0.40546841812486883,13.0,82.0
Y,R,"[2, 3]",-1.0,3.0,0.3412048816680908,1.7082929611206055,0.3638582447261868,13.0,83.0
G,D,"[3, 3]",0.0,3.0,0.6325018405914307,2.0650827884674072,0.42877375910603216,13.0,84.0
,,"(3, 3)",,,,,,13.0,
B,L,"[3, 2]",1.0,1.0,0.7783520221710205,6.461374044418335,0.5566956057208288,,85.0
B,L,"[3, 1]",1.0,2.0,0.29404783248901367,1.6575520038604736,0.3647116524732715,14.0,86.0
R,U,"[2, 1]",1.0,3.0,0.7115139961242676,2.3947031497955322,0.6756721030245796,14.0,87.0
Y,R,"[2, 2]",1.0,4.0,0.5671579837799072,2.2498741149902344,0.6921821489949209,14.0,88.0
R,U,"[1, 2]",1.0,5.0,0.4121870994567871,1.8389859199523926,0.4314810104221319,14.0,89.0
Y,R,"[1, 3]",1.0,6.0,0.7384169101715088,2.3894119262695312,0.6373225993277529,14.0,90.0
,,"(3, 3)",,,,,,14.0,
B,L,"[3, 2]",1.0,1.0,0.7514829635620117,5.675997018814087,0.7138157164491616,,91.0
B,L,"[3, 1]",1.0,2.0,0.19681596755981445,1.8675990104675293,0.6644089558085146,15.0,92.0
R,U,"[2, 1]",1.0,3.0,0.5932071208953857,2.1578550338745117,0.5557849689371326,15.0,93.0
Y,R,"[2, 2]",1.0,4.0,0.49730801582336426,1.8961501121520996,0.40219910909704476,15.0,94.0
R,U,"[1, 2]",1.0,5.0,0.5816891193389893,1.9717991352081299,0.3907256573650159,15.0,95.0
Y,R,"[1, 3]",1.0,6.0,0.46976494789123535,1.893481969833374,0.4340465251616309,15.0,96.0
,,"(3, 3)",,,,,,15.0,
B,L,"[3, 2]",1.0,1.0,0.9554741382598877,4.405451059341431,0.4728983954101536,,97.0
B,L,"[3, 1]",1.0,2.0,0.3960080146789551,1.949444055557251,0.5557371475227136,16.0,98.0
R,U,"[2, 1]",1.0,3.0,0.3461031913757324,1.8701040744781494,0.5258411065201782,16.0,99.0
Y,R,"[2, 2]",1.0,4.0,0.42560505867004395,1.9266350269317627,0.5024642925592401,16.0,100.0
R,U,"[1, 2]",1.0,5.0,0.35416603088378906,1.8623759746551514,0.49820122841537,16.0,101.0
Y,R,"[1, 3]",1.0,6.0,0.48858213424682617,2.020167827606201,0.5350662661852941,16.0,102.0
,,"(3, 3)",,,,,,16.0,
B,L,"[3, 2]",1.0,1.0,0.9014039039611816,4.239290952682495,0.3078429826470561,,103.0
B,L,"[3, 1]",1.0,2.0,0.304718017578125,1.9819049835205078,0.6728560535239669,17.0,104.0
R,U,"[2, 1]",1.0,3.0,0.38152003288269043,1.8383820056915283,0.46184582412272984,17.0,105.0
Y,R,"[2, 2]",1.0,4.0,0.4394571781158447,1.9746959209442139,0.5360693380869703,17.0,106.0
R,U,"[1, 2]",1.0,5.0,0.42189598083496094,1.7761189937591553,0.34572880695523434,17.0,107.0
Y,R,"[1, 3]",1.0,6.0,0.5675449371337891,2.2740559577941895,0.7028612650999173,17.0,108.0
,,"(3, 3)",,,,,,17.0,
B,L,"[3, 2]",1.0,1.0,0.8319809436798096,3.981905937194824,0.2850625863221626,,109.0
B,L,"[3, 1]",1.0,2.0,0.48580503463745117,2.0123867988586426,0.5140946880847523,18.0,110.0
R,U,"[2, 1]",1.0,3.0,0.5893270969390869,2.3243329524993896,0.7216907088776066,18.0,111.0
Y,R,"[2, 2]",1.0,4.0,0.6706869602203369,2.0460050106048584,0.38474685822413607,18.0,112.0
R,U,"[1, 2]",1.0,5.0,0.4527750015258789,2.060032844543457,0.5945086512746878,18.0,113.0
Y,R,"[1, 3]",1.0,6.0,0.4638791084289551,1.797091007232666,0.34185252586048515,18.0,114.0
,,"(3, 3)",,,,,,18.0,
B,L,"[3, 2]",-2.0,0.0,1.044227123260498,4.430601119995117,0.5557299052993594,,115.0
B,L,"[3, 1]",1.0,1.0,0.25069689750671387,1.568803071975708,0.30803600441330886,19.0,116.0
R,U,"[2, 1]",1.0,2.0,0.526170015335083,1.7972619533538818,0.2719457792226231,19.0,117.0
Y,R,"[2, 2]",1.0,3.0,0.3882761001586914,1.6719257831573486,0.27742239762413357,19.0,118.0
R,U,"[1, 2]",1.0,4.0,0.4264791011810303,2.0635199546813965,0.6405701530939087,19.0,119.0
Y,R,"[1, 3]",1.0,5.0,0.5078909397125244,2.1852800846099854,0.6757795923439457,19.0,120.0
,,"(3, 3)",,,,,,19.0,
B,L,"[3, 2]",1.0,1.0,0.8999278545379639,4.068542003631592,0.5611646477380601,,121.0
B,L,"[3, 1]",1.0,2.0,0.35219717025756836,1.780576229095459,0.4251507063646063,20.0,122.0
R,U,"[2, 1]",1.0,3.0,0.556865930557251,2.1246280670166016,0.5665230474227153,20.0,123.0
Y,R,"[2, 2]",1.0,4.0,0.3436160087585449,2.0217249393463135,0.6712558473821301,20.0,124.0
R,U,"[1, 2]",1.0,5.0,0.3892700672149658,1.6803951263427734,0.30218847017614303,20.0,125.0
Y,R,"[1, 3]",1.0,6.0,0.41051578521728516,1.9997200965881348,0.5684532387453125,20.0,126.0
,,"(3, 3)",,,,,,20.0,
B,L,"[3, 2]",1.0,1.0,0.6222047805786133,3.879258871078491,0.7140692906514425,,127.0
B,L,"[3, 1]",1.0,2.0,0.327686071395874,1.9287538528442383,0.5932131480832694,21.0,128.0
R,U,"[2, 1]",1.0,3.0,0.3811180591583252,1.9070329666137695,0.5335566442786008,21.0,129.0
Y,R,"[2, 2]",1.0,4.0,0.2745380401611328,1.7721521854400635,0.48940979492642117,21.0,130.0
R,U,"[1, 2]",1.0,5.0,0.5237629413604736,2.243781089782715,0.7161131325594343,21.0,131.0
Y,R,"[1, 3]",1.0,6.0,0.2978239059448242,1.7139990329742432,0.39702482623544977,21.0,132.0
,,"(3, 3)",,,,,,21.0,
B,L,"[3, 2]",1.0,1.0,0.8567121028900146,3.63779616355896,0.48476927989649343,,133.0
B,L,"[3, 1]",1.0,2.0,0.33901000022888184,1.7584259510040283,0.42662816234382406,22.0,134.0
R,U,"[2, 1]",1.0,3.0,0.5251801013946533,2.1144509315490723,0.5910758995394716,22.0,135.0
Y,R,"[2, 2]",1.0,4.0,0.7295429706573486,2.3127260208129883,0.5870367024046774,22.0,136.0
R,U,"[1, 2]",1.0,5.0,0.46819496154785156,1.9974040985107422,0.5346523438667381,22.0,137.0
Y,R,"[1, 3]",1.0,6.0,0.8640339374542236,2.1454050540924072,0.2802046441053263,22.0,138.0
,,"(3, 3)",,,,,,22.0,
B,L,"[3, 2]",1.0,1.0,0.5812089443206787,7.488217115402222,0.5517074290333364,,139.0
B,L,"[3, 1]",1.0,2.0,0.3558509349822998,2.065973997116089,0.7175470678405489,23.0,140.0
R,U,"[2, 1]",1.0,3.0,0.3904290199279785,2.0390360355377197,0.6400447852838678,23.0,141.0
Y,R,"[2, 2]",1.0,4.0,0.3560459613800049,2.071660041809082,0.7115964386350047,23.0,142.0
R,U,"[1, 2]",1.0,5.0,0.31344079971313477,1.8533720970153809,0.5485653861670423,23.0,143.0
Y,R,"[1, 3]",1.0,6.0,0.43021202087402344,1.7726020812988281,0.3381164161175473,23.0,144.0
,,"(3, 3)",,,,,,23.0,
B,L,"[3, 2]",1.0,1.0,0.6161959171295166,3.9104859828948975,0.7315170021729926,,145.0
B,L,"[3, 1]",1.0,2.0,0.29372286796569824,1.6683650016784668,0.36664875797409513,24.0,146.0
R,U,"[2, 1]",1.0,3.0,0.6080141067504883,1.9736018180847168,0.3572590058973076,24.0,147.0
Y,R,"[2, 2]",1.0,4.0,0.636584997177124,2.2403059005737305,0.5973276083054857,24.0,148.0
R,U,"[1, 2]",1.0,5.0,0.29554009437561035,1.9919891357421875,0.6892099175205834,24.0,149.0
Y,R,"[1, 3]",1.0,6.0,0.3544168472290039,2.1002700328826904,0.7394505882213367,24.0,150.0
,,"(3, 3)",,,,,,24.0,
B,L,"[3, 2]",1.0,1.0,0.6845121383666992,3.8462331295013428,0.6194713989565878,,151.0
B,L,"[3, 1]",1.0,2.0,0.29160380363464355,1.808176040649414,0.5109351399933784,25.0,152.0
R,U,"[2, 1]",1.0,3.0,0.4726738929748535,2.1700491905212402,0.6974628816966172,25.0,153.0
Y,R,"[2, 2]",1.0,4.0,0.2385270595550537,1.6702940464019775,0.4179915580193853,25.0,154.0
R,U,"[1, 2]",1.0,5.0,0.3576540946960449,1.9522011280059814,0.5869015204536063,25.0,155.0
Y,R,"[1, 3]",1.0,6.0,0.3238391876220703,2.066598892211914,0.7366346177734138,25.0,156.0
,,"(3, 3)",,,,,,25.0,
B,L,"[3, 2]",1.0,1.0,0.5486490726470947,3.475184917449951,0.5122200998353017,,157.0
B,L,"[3, 1]",1.0,2.0,0.30762600898742676,1.9406352043151855,0.6360065559628725,26.0,158.0
R,U,"[2, 1]",1.0,3.0,0.3328409194946289,1.891010046005249,0.5436727955237552,26.0,159.0
Y,R,"[2, 2]",1.0,4.0,0.34591197967529297,1.7989799976348877,0.4594322166516205,26.0,160.0
R,U,"[1, 2]",1.0,5.0,0.4127519130706787,1.6590831279754639,0.2519387662850961,26.0,161.0
Y,R,"[1, 3]",1.0,6.0,0.4060640335083008,2.01711106300354,0.6022307066596989,26.0,162.0
,,"(3, 3)",,,,,,26.0,
B,L,"[3, 2]",1.0,1.0,0.6737730503082275,3.4525349140167236,0.2551405448780444,,163.0
B,L,"[3, 1]",1.0,2.0,0.4953341484069824,1.7732629776000977,0.2785595775059164,27.0,164.0
R,U,"[2, 1]",1.0,3.0,0.5711798667907715,2.271712064743042,0.699791907996218,27.0,165.0
Y,R,"[2, 2]",1.0,4.0,0.3426940441131592,1.89503812789917,0.5450505066274486,27.0,166.0
R,U,"[1, 2]",1.0,5.0,0.43929100036621094,2.1861650943756104,0.7475947518750865,27.0,167.0
Y,R,"[1, 3]",1.0,6.0,0.2714269161224365,1.8268330097198486,0.5414176492009855,27.0,168.0
,,"(3, 3)",,,,,,27.0,
B,L,"[3, 2]",1.0,1.0,0.560222864151001,3.6285400390625,0.6027914186529351,,169.0
B,L,"[3, 1]",1.0,2.0,0.3293631076812744,1.744938850402832,0.41510951254244627,28.0,170.0
R,U,"[2, 1]",1.0,3.0,0.5997681617736816,2.028700828552246,0.4271620735333076,28.0,171.0
Y,R,"[2, 2]",1.0,4.0,0.3279139995574951,1.6313109397888184,0.30864935976564317,28.0,172.0
R,U,"[1, 2]",1.0,5.0,0.5475940704345703,1.937371015548706,0.39594189753525655,28.0,173.0
Y,R,"[1, 3]",1.0,6.0,0.5058290958404541,1.7559928894042969,0.251988071858529,28.0,174.0
,,"(3, 3)",,,,,,28.0,
B,L,"[3, 2]",1.0,1.0,0.5036561489105225,3.432337999343872,0.6174132363680529,,175.0
B,L,"[3, 1]",1.0,2.0,0.2857699394226074,1.7729759216308594,0.47382930157092484,29.0,176.0
R,U,"[2, 1]",1.0,3.0,0.5220630168914795,1.9939160346984863,0.4678296923283345,29.0,177.0
Y,R,"[2, 2]",1.0,4.0,0.2699720859527588,1.610440969467163,0.32846732875136736,29.0,178.0
R,U,"[1, 2]",1.0,5.0,0.44408488273620605,2.028413772583008,0.5900279239601443,29.0,179.0
Y,R,"[1, 3]",1.0,6.0,0.24770092964172363,1.5663368701934814,0.3232670411856672,29.0,180.0
,,"(3, 3)",,,,,,29.0,
B,L,"[3, 2]",1.0,1.0,0.6052391529083252,4.827347993850708,0.3340035856888286,,181.0
B,L,"[3, 1]",1.0,2.0,0.35396504402160645,1.688887119293213,0.3228789962157805,30.0,182.0
R,U,"[2, 1]",1.0,3.0,0.5716440677642822,2.1469168663024902,0.569612737106697,30.0,183.0
Y,R,"[2, 2]",1.0,4.0,0.2567579746246338,1.914052963256836,0.6502773933958523,30.0,184.0
R,U,"[1, 2]",1.0,5.0,0.30115509033203125,1.582165002822876,0.26628689652504095,30.0,185.0
Y,R,"[1, 3]",1.0,6.0,0.3282170295715332,1.6581339836120605,0.3243579227149131,30.0,186.0
,,"(3, 3)",,,,,,30.0,
B,L,"[3, 2]",1.0,1.0,0.5606667995452881,3.4648149013519287,0.622083739730119,,187.0
B,L,"[3, 1]",1.0,2.0,0.37455010414123535,1.6553778648376465,0.278030492063113,31.0,188.0
R,U,"[2, 1]",1.0,3.0,0.4923689365386963,1.9408869743347168,0.45190734820191225,31.0,189.0
Y,R,"[2, 2]",1.0,4.0,0.33249688148498535,1.6737430095672607,0.3426516335358349,31.0,190.0
R,U,"[1, 2]",1.0,5.0,0.38802599906921387,1.8263299465179443,0.4354466177624403,31.0,191.0
Y,R,"[1, 3]",1.0,6.0,0.3585638999938965,1.8407459259033203,0.4762078653246892,31.0,192.0
,,"(3, 3)",,,,,,31.0,
B,L,"[3, 2]",1.0,1.0,0.6019749641418457,3.1729187965393066,0.5657263227450213,,193.0
B,L,"[3, 1]",1.0,2.0,0.2561039924621582,1.5948090553283691,0.34411554062396466,32.0,194.0
R,U,"[2, 1]",1.0,3.0,0.5708141326904297,2.02993106842041,0.4568402138274674,32.0,195.0
Y,R,"[2, 2]",1.0,4.0,0.6355619430541992,2.0609869956970215,0.4184785704018678,32.0,196.0
R,U,"[1, 2]",1.0,5.0,0.8721251487731934,2.4776740074157715,0.5959153654521284,32.0,197.0
Y,R,"[1, 3]",1.0,6.0,0.32713985443115234,1.675628900527954,0.32185565494764223,32.0,198.0
,,"(3, 3)",,,,,,32.0,
B,L,"[3, 2]",1.0,1.0,0.7446701526641846,4.200228929519653,0.5385816115265747,,199.0
B,L,"[3, 1]",1.0,2.0,0.3211860656738281,1.6340889930725098,0.3062771616230111,33.0,200.0
R,U,"[2, 1]",1.0,3.0,0.6229288578033447,2.1819519996643066,0.5547644500559885,33.0,201.0
Y,R,"[2, 2]",1.0,4.0,0.4526851177215576,2.1088340282440186,0.6468846040252285,33.0,202.0
R,U,"[1, 2]",1.0,5.0,0.28710007667541504,1.6705799102783203,0.36768286764120256,33.0,203.0
Y,R,"[1, 3]",1.0,6.0,0.3486349582672119,1.8640689849853516,0.49832027143562385,33.0,204.0
,,"(3, 3)",,,,,,33.0,
B,L,"[3, 2]",1.0,1.0,0.5905702114105225,3.5956060886383057,0.6604725838362379,,205.0
B,L,"[3, 1]",1.0,2.0,0.3375718593597412,1.598559856414795,0.2760367326667127,34.0,206.0
R,U,"[2, 1]",1.0,3.0,0.8178360462188721,2.347991943359375,0.5238755425009183,34.0,207.0
Y,R,"[2, 2]",1.0,4.0,0.540809154510498,1.820007085800171,0.27748936057450857,34.0,208.0
R,U,"[1, 2]",1.0,5.0,0.6881840229034424,2.0412240028381348,0.3521385253380499,34.0,209.0
Y,R,"[1, 3]",1.0,6.0,0.4302389621734619,1.9021070003509521,0.4706621253176061,34.0,210.0
,,"(3, 3)",,,,,,34.0,
B,L,"[3, 2]",1.0,1.0,0.5336730480194092,4.273072957992554,0.6436376707410005,,211.0
B,L,"[3, 1]",1.0,2.0,0.3642458915710449,2.061460018157959,0.7054703425010501,35.0,212.0
R,U,"[2, 1]",1.0,3.0,0.28940796852111816,1.8698809146881104,0.5750738220514555,35.0,213.0
Y,R,"[2, 2]",1.0,4.0,0.28663206100463867,1.6599822044372559,0.3686266564929514,35.0,214.0
R,U,"[1, 2]",1.0,5.0,0.5521268844604492,2.244847059249878,0.6799031358918757,35.0,215.0
Y,R,"[1, 3]",1.0,6.0,0.3052399158477783,1.6949400901794434,0.37520059850823156,35.0,216.0
,,"(3, 3)",,,,,,35.0,
B,L,"[3, 2]",1.0,1.0,0.7267038822174072,3.4388411045074463,0.4307765776845282,,217.0
B,L,"[3, 1]",1.0,2.0,0.4709930419921875,2.157198905944824,0.6710302504102235,36.0,218.0
R,U,"[2, 1]",1.0,3.0,0.6529510021209717,2.0850579738616943,0.42311126908969804,36.0,219.0
Y,R,"[2, 2]",1.0,4.0,0.5068349838256836,1.967721939086914,0.4575145064234058,36.0,220.0
R,U,"[1, 2]",1.0,5.0,0.36225199699401855,2.0182650089263916,0.6586819086653651,36.0,221.0
Y,R,"[1, 3]",1.0,6.0,0.30457091331481934,1.6256709098815918,0.31825916665182535,36.0,222.0
,,"(3, 3)",,,,,,36.0,
B,L,"[3, 2]",1.0,1.0,0.5860040187835693,3.309358835220337,0.4275658778817481,,223.0
B,L,"[3, 1]",1.0,2.0,0.464292049407959,2.115705966949463,0.6428965789819105,37.0,224.0
R,U,"[2, 1]",1.0,3.0,0.6336779594421387,2.3261399269104004,0.7025428863536118,37.0,225.0
Y,R,"[2, 2]",1.0,4.0,0.25342702865600586,2.012739896774292,0.7484874066099717,37.0,226.0
R,U,"[1, 2]",1.0,5.0,0.310823917388916,1.9081828594207764,0.5902337512636338,37.0,227.0
Y,R,"[1, 3]",1.0,6.0,0.41687583923339844,1.676673173904419,0.2507369552376848,37.0,228.0
,,"(3, 3)",,,,,,37.0,
B,L,"[3, 2]",1.0,1.0,0.5303030014038086,3.9951040744781494,0.44558435367731625,,229.0
B,L,"[3, 1]",1.0,2.0,0.35256099700927734,1.8152179718017578,0.46085689623569265,38.0,230.0
R,U,"[2, 1]",1.0,3.0,0.5189299583435059,2.160050868988037,0.6374075408993859,38.0,231.0
Y,R,"[2, 2]",1.0,4.0,0.2777838706970215,1.7811470031738281,0.5019840487409828,38.0,232.0
R,U,"[1, 2]",1.0,5.0,0.4499318599700928,2.127310037612915,0.662633755705363,38.0,233.0
Y,R,"[1, 3]",1.0,6.0,0.512382984161377,1.9718809127807617,0.467842290970398,38.0,234.0
,,"(3, 3)",,,,,,38.0,
B,L,"[3, 2]",1.0,1.0,0.606287956237793,3.485029935836792,0.26988037983122515,,235.0
B,L,"[3, 1]",1.0,2.0,0.4608139991760254,1.9509129524230957,0.4874027358453706,39.0,236.0
R,U,"[2, 1]",1.0,3.0,0.660912036895752,2.2580409049987793,0.5953417632051865,39.0,237.0
Y,R,"[2, 2]",1.0,4.0,0.34598803520202637,1.7272160053253174,0.38955824197866695,39.0,238.0
R,U,"[1, 2]",1.0,5.0,0.5067739486694336,1.9145960807800293,0.40410761873295853,39.0,239.0
Y,R,"[1, 3]",1.0,6.0,0.496157169342041,1.8027491569519043,0.3069715530464743,39.0,240.0
,,"(3, 3)",,,,,,39.0,
B,L,"[3, 2]",1.0,1.0,0.6469957828521729,3.326643943786621,0.5667368932718035,,241.0
B,L,"[3, 1]",1.0,2.0,0.4291999340057373,2.01804780960083,0.5847919150833513,40.0,242.0
R,U,"[2, 1]",1.0,3.0,0.4823720455169678,1.9998390674591064,0.5179767727666216,40.0,243.0
Y,R,"[2, 2]",1.0,4.0,0.30741095542907715,2.0621700286865234,0.7466136974622287,40.0,244.0
R,U,"[1, 2]",1.0,5.0,0.3037290573120117,1.8199939727783203,0.5002357457449109,40.0,245.0
Y,R,"[1, 3]",1.0,6.0,0.4173910617828369,2.04744291305542,0.6141086016585844,40.0,246.0
,,"(3, 3)",,,,,,40.0,
B,L,"[3, 2]",1.0,1.0,0.5397140979766846,3.336832046508789,0.6011642529375811,,247.0
B,L,"[3, 1]",1.0,2.0,0.37131190299987793,2.0246191024780273,0.6422615519201706,41.0,248.0
R,U,"[2, 1]",1.0,3.0,0.4564177989959717,2.114682197570801,0.6570686172952054,41.0,249.0
Y,R,"[2, 2]",1.0,4.0,0.35515594482421875,1.6963589191436768,0.33713798561175834,41.0,250.0
R,U,"[1, 2]",1.0,5.0,0.5649189949035645,2.00992488861084,0.4470931948686715,41.0,251.0
Y,R,"[1, 3]",1.0,6.0,0.40552210807800293,1.6924521923065186,0.27304564175842794,41.0,252.0
,,"(3, 3)",,,,,,41.0,
B,L,"[3, 2]",1.0,1.0,0.4965078830718994,3.41469407081604,0.32095795258084087,,253.0
B,L,"[3, 1]",1.0,2.0,0.2964160442352295,1.918252944946289,0.6223318391863073,42.0,254.0
R,U,"[2, 1]",1.0,3.0,0.2510199546813965,1.8870830535888672,0.6260952236465404,42.0,255.0
Y,R,"[2, 2]",1.0,4.0,0.2660341262817383,1.8841331005096436,0.6270149954780257,42.0,256.0
R,U,"[1, 2]",1.0,5.0,0.506324052810669,2.03889799118042,0.5325943365213881,42.0,257.0
Y,R,"[1, 3]",1.0,6.0,0.4056060314178467,2.1389198303222656,0.7214444673107709,42.0,258.0
,,"(3, 3)",,,,,,42.0,
B,L,"[3, 2]",1.0,1.0,0.6105051040649414,3.613111972808838,0.5347085648541612,,259.0
B,L,"[3, 1]",1.0,2.0,0.5015101432800293,2.140671968460083,0.625285753171642,43.0,260.0
R,U,"[2, 1]",1.0,3.0,0.3853299617767334,1.8974711894989014,0.506285607639827,43.0,261.0
Y,R,"[2, 2]",1.0,4.0,0.32535409927368164,1.95420503616333,0.6270879644494707,43.0,262.0
R,U,"[1, 2]",1.0,5.0,0.287416934967041,1.6166911125183105,0.3274309892379948,43.0,263.0
Y,R,"[1, 3]",1.0,6.0,0.26909399032592773,1.6326611042022705,0.3601497202394371,43.0,264.0
,,"(3, 3)",,,,,,43.0,
B,L,"[3, 2]",1.0,1.0,0.5698721408843994,3.5834200382232666,0.4769147213689541,,265.0
B,L,"[3, 1]",1.0,2.0,0.4343578815460205,2.05975604057312,0.6197418347602537,44.0,266.0
R,U,"[2, 1]",1.0,3.0,0.5357649326324463,1.9291908740997314,0.38253897729225494,44.0,267.0
Y,R,"[2, 2]",1.0,4.0,0.4365861415863037,1.8309290409088135,0.3802454927486058,44.0,268.0
R,U,"[1, 2]",1.0,5.0,0.5061988830566406,1.8744919300079346,0.3548195600024814,44.0,269.0
Y,R,"[1, 3]",1.0,6.0,0.5195960998535156,2.160814046859741,0.6319354752035423,44.0,270.0
,,"(3, 3)",,,,,,44.0,
B,L,"[3, 2]",1.0,1.0,0.5381591320037842,3.1551339626312256,0.5706426777754297,,271.0
B,L,"[3, 1]",1.0,2.0,0.530264139175415,2.016342878341675,0.4869807915980139,45.0,272.0
R,U,"[2, 1]",1.0,3.0,0.805413007736206,2.2336039543151855,0.42070293188397656,45.0,273.0
Y,R,"[2, 2]",1.0,4.0,0.3852400779724121,1.8935539722442627,0.4976256697341223,45.0,274.0
R,U,"[1, 2]",1.0,5.0,0.348193883895874,1.9211750030517578,0.5687643447586845,45.0,275.0
Y,R,"[1, 3]",1.0,6.0,0.2828691005706787,1.680798053741455,0.3829899862388343,45.0,276.0
,,"(3, 3)",,,,,,45.0,
B,L,"[3, 2]",1.0,1.0,0.5466468334197998,3.7126660346984863,0.745392386894756,,277.0
B,L,"[3, 1]",1.0,2.0,0.3346688747406006,1.8330390453338623,0.4954819850870559,46.0,278.0
R,U,"[2, 1]",1.0,3.0,0.59747314453125,1.9030768871307373,0.3153867215235307,46.0,279.0
Y,R,"[2, 2]",1.0,4.0,0.2488081455230713,1.992593765258789,0.7408486864340245,46.0,280.0
R,U,"[1, 2]",1.0,5.0,0.3543589115142822,1.974078893661499,0.6151670907571543,46.0,281.0
Y,R,"[1, 3]",1.0,6.0,0.4370570182800293,1.9720268249511719,0.520548923451045,46.0,282.0
,,"(3, 3)",,,,,,46.0,
B,L,"[3, 2]",1.0,1.0,0.5865359306335449,3.941009998321533,0.36209853435763883,,283.0
B,L,"[3, 1]",1.0,2.0,0.4313089847564697,1.9690330028533936,0.5473029136183922,47.0,284.0
R,U,"[2, 1]",1.0,3.0,0.46204209327697754,1.898507833480835,0.42935839207974336,47.0,285.0
Y,R,"[2, 2]",1.0,4.0,0.24196910858154297,1.930323839187622,0.6927220988568403,47.0,286.0
R,U,"[1, 2]",1.0,5.0,0.3635580539703369,2.096500873565674,0.7391641704020222,47.0,287.0
Y,R,"[1, 3]",1.0,6.0,0.2735438346862793,1.7300879955291748,0.4529126672580048,47.0,288.0
,,"(3, 3)",,,,,,47.0,
B,L,"[3, 2]",1.0,1.0,0.6409890651702881,3.178704023361206,0.43184631067701973,,289.0
B,L,"[3, 1]",1.0,2.0,0.4301269054412842,1.9148070812225342,0.4798839004455921,48.0,290.0
R,U,"[2, 1]",1.0,3.0,0.4414699077606201,1.806913137435913,0.35382901496122654,48.0,291.0
Y,R,"[2, 2]",1.0,4.0,0.287539005279541,1.7120258808135986,0.4155962704550806,48.0,292.0
R,U,"[1, 2]",1.0,5.0,0.3328988552093506,2.046006917953491,0.6947861174539551,48.0,293.0
Y,R,"[1, 3]",1.0,6.0,0.28463292121887207,1.6285450458526611,0.3403042071228055,48.0,294.0
,,"(3, 3)",,,,,,48.0,
B,L,"[3, 2]",1.0,1.0,0.5923550128936768,3.2933948040008545,0.3004221510446361,,295.0
B,L,"[3, 1]",1.0,2.0,0.532412052154541,2.2903740406036377,0.7404990257196267,49.0,296.0
R,U,"[2, 1]",1.0,3.0,0.8261778354644775,2.3261070251464844,0.5001912153344716,49.0,297.0
Y,R,"[2, 2]",1.0,4.0,0.5000789165496826,2.060258150100708,0.5437620828621146,49.0,298.0
R,U,"[1, 2]",1.0,5.0,0.5790188312530518,2.128571033477783,0.5557094332566572,49.0,299.0
Y,R,"[1, 3]",1.0,6.0,0.6057548522949219,2.2439279556274414,0.6328254625459564,49.0,300.0
,,"(3, 3)",,,,,,49.0,
B,L,"[3, 2]",1.0,1.0,0.6656961441040039,6.060698986053467,0.6436956540356121,,301.0
B,L,"[3, 1]",1.0,2.0,0.3920309543609619,1.8916921615600586,0.5022648045595849,50.0,302.0
R,U,"[2, 1]",1.0,3.0,0.6090700626373291,1.8901300430297852,0.27599437072622873,50.0,303.0
Y,R,"[2, 2]",1.0,4.0,0.45184898376464844,1.84303617477417,0.38558803969019123,50.0,304.0
R,U,"[1, 2]",1.0,5.0,0.5708649158477783,1.9112739562988281,0.34690955376666804,50.0,305.0
Y,R,"[1, 3]",1.0,6.0,0.4962899684906006,2.1863420009613037,0.682865313895584,50.0,306.0
,,"(3, 3)",,,,,,50.0,
B,L,"[3, 2]",1.0,1.0,0.597836971282959,6.2751429080963135,0.574990741410639,,307.0
B,L,"[3, 1]",1.0,2.0,0.4645528793334961,1.73508882522583,0.2769670126245819,51.0,308.0
R,U,"[2, 1]",1.0,3.0,0.8724968433380127,2.3781328201293945,0.5049244287728545,51.0,309.0
Y,R,"[2, 2]",1.0,4.0,0.29607701301574707,1.5567209720611572,0.2619120921605169,51.0,310.0
R,U,"[1, 2]",1.0,5.0,0.7374091148376465,2.3240201473236084,0.5856009088484678,51.0,311.0
Y,R,"[1, 3]",1.0,6.0,0.3677990436553955,1.6348650455474854,0.254181909920904,51.0,312.0
,,"(3, 3)",,,,,,51.0,
B,L,"[3, 2]",1.0,1.0,0.556373119354248,3.2129580974578857,0.28382077638482706,,313.0
B,L,"[3, 1]",1.0,2.0,0.4031050205230713,1.8448309898376465,0.4285473014820449,52.0,314.0
R,U,"[2, 1]",1.0,3.0,0.5656850337982178,1.8519871234893799,0.2806956209173096,52.0,315.0
Y,R,"[2, 2]",1.0,4.0,0.5381519794464111,2.1281490325927734,0.5753204476438041,52.0,316.0
R,U,"[1, 2]",1.0,5.0,0.46956896781921387,1.7527379989624023,0.2783439009750377,52.0,317.0
Y,R,"[1, 3]",1.0,6.0,0.3845860958099365,1.9543659687042236,0.5658904545813248,52.0,318.0
,,"(3, 3)",,,,,,52.0,
B,L,"[3, 2]",1.0,1.0,0.5862569808959961,3.562425136566162,0.4284604931777592,,319.0
B,L,"[3, 1]",1.0,2.0,0.5831549167633057,2.1863479614257812,0.5979093812578218,53.0,320.0
R,U,"[2, 1]",1.0,3.0,0.46042609214782715,1.8138442039489746,0.34530518543058925,53.0,321.0
Y,R,"[2, 2]",1.0,4.0,0.29020190238952637,1.9735629558563232,0.685271985335635,53.0,322.0
R,U,"[1, 2]",1.0,5.0,0.4749619960784912,1.9050931930541992,0.4240229569054258,53.0,323.0
Y,R,"[1, 3]",1.0,6.0,0.32396578788757324,1.9101660251617432,0.5841042635391243,53.0,324.0
,,"(3, 3)",,,,,,53.0,
B,L,"[3, 2]",1.0,1.0,0.5138559341430664,3.2917490005493164,0.2595283200433974,,325.0
B,L,"[3, 1]",1.0,2.0,0.36321091651916504,1.9567298889160156,0.5993192875731135,54.0,326.0
R,U,"[2, 1]",1.0,3.0,0.30155301094055176,1.8259258270263672,0.508794794058276,54.0,327.0
Y,R,"[2, 2]",1.0,4.0,0.2579319477081299,1.6754789352416992,0.4174118341146072,54.0,328.0
R,U,"[1, 2]",1.0,5.0,0.2510361671447754,1.6363391876220703,0.37061923581927997,54.0,329.0
Y,R,"[1, 3]",1.0,6.0,0.25577592849731445,1.8033421039581299,0.5405520296624571,54.0,330.0
,,"(3, 3)",,,,,,54.0,
B,L,"[3, 2]",1.0,1.0,0.5085170269012451,3.2395360469818115,0.5467871517245817,,331.0
B,L,"[3, 1]",1.0,2.0,0.34177088737487793,1.6803820133209229,0.3274735406873161,55.0,332.0
R,U,"[2, 1]",1.0,3.0,0.6962730884552002,2.058734893798828,0.36941799116659063,55.0,333.0
Y,R,"[2, 2]",1.0,4.0,0.344390869140625,1.748678207397461,0.4013961476155311,55.0,334.0
R,U,"[1, 2]",1.0,5.0,0.3453400135040283,2.045348882675171,0.6965908429119035,55.0,335.0
Y,R,"[1, 3]",1.0,6.0,0.25863194465637207,1.9492290019989014,0.6791686071683591,55.0,336.0
,,"(3, 3)",,,,,,55.0,
B,L,"[3, 2]",1.0,1.0,0.531829833984375,3.23335599899292,0.3129453534764186,,337.0
B,L,"[3, 1]",1.0,2.0,0.507476806640625,1.9881088733673096,0.4675440868682977,56.0,338.0
R,U,"[2, 1]",1.0,3.0,0.3430640697479248,1.7469680309295654,0.3979249289218287,56.0,339.0
Y,R,"[2, 2]",1.0,4.0,0.35613298416137695,1.972809076309204,0.6040679859548197,56.0,340.0
R,U,"[1, 2]",1.0,5.0,0.2515280246734619,1.7541601657867432,0.4915521034665352,56.0,341.0
Y,R,"[1, 3]",1.0,6.0,0.21095991134643555,1.7205610275268555,0.512196071157032,56.0,342.0
,,"(3, 3)",,,,,,56.0,
B,L,"[3, 2]",1.0,1.0,0.6257259845733643,3.5581071376800537,0.6033018297628018,,343.0
B,L,"[3, 1]",1.0,2.0,0.4255831241607666,1.9682998657226562,0.5386991050447887,57.0,344.0
R,U,"[2, 1]",1.0,3.0,0.4877910614013672,2.230710029602051,0.7358650034106793,57.0,345.0
Y,R,"[2, 2]",1.0,4.0,0.33155298233032227,2.0289900302886963,0.6982382625833632,57.0,346.0
R,U,"[1, 2]",1.0,5.0,0.7253270149230957,2.12762713432312,0.39283221137677854,57.0,347.0
Y,R,"[1, 3]",1.0,6.0,0.6846990585327148,2.021652936935425,0.3312359283552059,57.0,348.0
,,"(3, 3)",,,,,,57.0,
B,L,"[3, 2]",1.0,1.0,0.5425269603729248,3.8027548789978027,0.5672089882469624,,349.0
B,L,"[3, 1]",1.0,2.0,0.9535248279571533,2.66589093208313,0.6995860198389392,58.0,350.0
R,U,"[2, 1]",1.0,3.0,0.6709790229797363,2.2693541049957275,0.585765027661671,58.0,351.0
Y,R,"[2, 2]",1.0,4.0,0.29851698875427246,1.7241201400756836,0.4268208672910461,58.0,352.0
R,U,"[1, 2]",1.0,5.0,0.5948679447174072,1.840299129486084,0.2504931817578887,58.0,353.0
Y,R,"[1, 3]",1.0,6.0,0.4277970790863037,1.745603084564209,0.31293712305545796,58.0,354.0
,,"(3, 3)",,,,,,58.0,
B,L,"[3, 2]",1.0,1.0,0.5115530490875244,3.105062961578369,0.30127849980824656,,355.0
B,L,"[3, 1]",-2.0,1.0,1.1299750804901123,2.644361972808838,0.47887097326476114,59.0,356.0
R,U,"[2, 1]",1.0,2.0,0.4157240390777588,1.882869005203247,0.4617386660373503,59.0,357.0
Y,R,"[2, 2]",1.0,3.0,0.5096950531005859,2.0512402057647705,0.5462905677743517,59.0,358.0
R,U,"[1, 2]",1.0,4.0,0.691910982131958,2.2769858837127686,0.5733582450647088,59.0,359.0
Y,R,"[1, 3]",1.0,5.0,0.43822288513183594,2.052042007446289,0.6085265038105996,59.0,360.0
,,"(3, 3)",,,,,,59.0,
B,L,"[3, 2]",1.0,1.0,0.72599196434021,5.311770915985107,0.6204784300922453,,361.0
B,L,"[3, 1]",1.0,2.0,0.43498897552490234,1.8499979972839355,0.4207328867834399,60.0,362.0
B,L,"[3, 0]",0.0,2.0,0.51894211769104,1.9808731079101562,0.4516434182032086,60.0,363.0
Y,R,"[3, 1]",0.0,2.0,0.5019609928131104,2.1281769275665283,0.6295472851715531,60.0,364.0
Y,R,"[3, 2]",0.0,2.0,0.29332995414733887,1.928095817565918,0.6249392298675007,60.0,365.0
B,L,"[3, 1]",0.0,2.0,0.45207810401916504,1.8623268604278564,0.4204726899687214,60.0,366.0
,,"(3, 3)",,,,,,60.0,
B,L,"[3, 2]",1.0,1.0,0.39754486083984375,6.38873291015625,0.4425630973182856,,367.0
B,L,"[3, 1]",1.0,2.0,0.35201215744018555,1.6112430095672607,0.27060179102934934,61.0,368.0
R,U,"[2, 1]",1.0,3.0,0.3685789108276367,2.054671049118042,0.6748715790436621,61.0,369.0
Y,R,"[2, 2]",1.0,4.0,0.2646050453186035,1.9926888942718506,0.734110394746259,61.0,370.0
R,U,"[1, 2]",1.0,5.0,0.3698849678039551,1.8530199527740479,0.47087058267318166,61.0,371.0
Y,R,"[1, 3]",1.0,6.0,0.2785818576812744,1.6518800258636475,0.3728462709222972,61.0,372.0
,,"(3, 3)",,,,,,61.0,
B,L,"[3, 2]",1.0,1.0,0.47195887565612793,2.8132431507110596,0.48601895057401917,,373.0
B,L,"[3, 1]",1.0,2.0,0.5031490325927734,2.097775936126709,0.600356356252086,62.0,374.0
R,U,"[2, 1]",1.0,3.0,0.526231050491333,1.8112359046936035,0.2785912002710067,62.0,375.0
Y,R,"[2, 2]",1.0,4.0,0.348189115524292,1.6123721599578857,0.2744025851581476,62.0,376.0
R,U,"[1, 2]",1.0,5.0,0.2765839099884033,1.6171839237213135,0.34158056679235244,62.0,377.0
Y,R,"[1, 3]",1.0,6.0,0.20499897003173828,1.8632769584655762,0.6545090923390421,62.0,378.0
,,"(3, 3)",,,,,,62.0,
B,L,"[3, 2]",1.0,1.0,0.5208661556243896,2.9933290481567383,0.548097889958103,,379.0
B,L,"[3, 1]",1.0,2.0,0.3044619560241699,2.04213285446167,0.7233102723594431,63.0,380.0
R,U,"[2, 1]",1.0,3.0,0.25618481636047363,1.875553846359253,0.6157475430390013,63.0,381.0
Y,R,"[2, 2]",1.0,4.0,0.28023505210876465,1.535749912261963,0.25174776544813815,63.0,382.0
R,U,"[1, 2]",1.0,5.0,0.469635009765625,2.0961220264434814,0.6142517922648365,63.0,383.0
Y,R,"[1, 3]",1.0,6.0,0.3110029697418213,1.9042420387268066,0.5852419158175961,63.0,384.0
,,"(3, 3)",,,,,,63.0,
B,L,"[3, 2]",1.0,1.0,0.4480478763580322,3.2216718196868896,0.6402558829358127,,385.0
B,L,"[3, 1]",1.0,2.0,0.28818297386169434,1.5870649814605713,0.2943207373532279,64.0,386.0
G,D,"[4, 1]",-1.0,1.0,0.40403008460998535,2.0196380615234375,0.6303974357058619,64.0,387.0
Y,R,"[4, 2]",-1.0,0.0,0.3381659984588623,1.8733971118927002,0.5205447339118168,64.0,388.0
R,U,"[3, 2]",0.0,0.0,0.6951642036437988,2.3868801593780518,0.6906980469054388,64.0,389.0
B,L,"[3, 1]",0.0,0.0,0.2918109893798828,1.583266019821167,0.29079311173457595,64.0,390.0
,,"(3, 3)",,,,,,64.0,
B,L,"[3, 2]",1.0,1.0,0.5282809734344482,4.026692152023315,0.5675495342541561,,391.0
B,L,"[3, 1]",1.0,2.0,0.3193349838256836,1.5899200439453125,0.25773086896548675,65.0,392.0
R,U,"[2, 1]",1.0,3.0,0.6161019802093506,1.883345127105713,0.27439653066203484,65.0,393.0
Y,R,"[2, 2]",1.0,4.0,0.2997441291809082,1.6002240180969238,0.2912792321213118,65.0,394.0
R,U,"[1, 2]",1.0,5.0,0.3338608741760254,2.0022380352020264,0.6765280569646208,65.0,395.0
Y,R,"[1, 3]",1.0,6.0,0.25297093391418457,1.5849030017852783,0.3284668865638207,65.0,396.0
,,"(3, 3)",,,,,,65.0,
B,L,"[3, 2]",1.0,1.0,0.36811089515686035,2.872653007507324,0.4844039213292997,,397.0
B,L,"[3, 1]",1.0,2.0,0.24536895751953125,1.8087348937988281,0.5596943948506516,66.0,398.0
R,U,"[2, 1]",1.0,3.0,0.48352599143981934,2.112123966217041,0.621791684195643,66.0,399.0
Y,R,"[2, 2]",1.0,4.0,0.24100112915039062,1.664025068283081,0.419337706073777,66.0,400.0
R,U,"[1, 2]",1.0,5.0,0.4042799472808838,1.6718759536743164,0.25809967017069835,66.0,401.0
Y,R,"[1, 3]",1.0,6.0,0.2248070240020752,1.8392961025238037,0.6137989839825724,66.0,402.0
,,"(3, 3)",,,,,,66.0,
B,L,"[3, 2]",-1.0,-1.0,0.3583338260650635,2.614423990249634,0.27856437317540955,,403.0
B,L,"[3, 1]",1.0,0.0,0.47434186935424805,1.8157389163970947,0.3443040685580912,67.0,404.0
R,U,"[2, 1]",-1.0,-1.0,0.37124013900756836,1.968874216079712,0.5962593978630264,67.0,405.0
R,U,"[1, 1]",-1.0,-2.0,0.3048868179321289,1.8830268383026123,0.5626067500209594,67.0,406.0
G,D,"[2, 1]",-1.0,-3.0,0.6166529655456543,2.3142268657684326,0.6767950381749724,67.0,407.0
Y,R,"[2, 2]",-1.0,-4.0,0.39267992973327637,1.6433000564575195,0.2539174394744707,67.0,408.0
,,"(3, 3)",,,,,,67.0,
B,L,"[3, 2]",-1.0,-1.0,0.20966720581054688,4.563143014907837,0.3337016009430666,,409.0
B,L,"[3, 1]",1.0,0.0,0.3012421131134033,1.8047380447387695,0.48826641560238726,68.0,410.0
G,D,"[4, 1]",1.0,1.0,0.48728418350219727,2.1049351692199707,0.6098737516888842,68.0,411.0
G,D,"[5, 1]",-1.0,0.0,0.26752614974975586,1.824544906616211,0.5511038617868711,68.0,412.0
Y,R,"[5, 2]",1.0,1.0,0.29207515716552734,1.818331003189087,0.5195785864422955,68.0,413.0
Y,R,"[5, 3]",1.0,2.0,0.6204729080200195,2.236337900161743,0.6057741366665361,68.0,414.0
,,"(3, 3)",,,,,,68.0,
G,D,"[4, 3]",1.0,1.0,0.37479305267333984,5.023317813873291,0.3960592344832113,,415.0
G,D,"[5, 3]",1.0,2.0,0.36075496673583984,1.6450259685516357,0.2912821779555549,69.0,416.0
G,D,"[6, 3]",0.0,2.0,0.6298410892486572,1.9450750350952148,0.31971477456488645,69.0,417.0
R,U,"[5, 3]",1.0,3.0,0.7808670997619629,2.1645150184631348,0.3674246408285661,69.0,418.0
Y,R,"[5, 4]",-1.0,2.0,0.7356770038604736,2.14192795753479,0.3928052252780567,69.0,419.0
Y,R,"[5, 5]",-1.0,1.0,0.28008580207824707,1.819775104522705,0.545672953663452,69.0,420.0
,,"(3, 3)",,,,,,69.0,
G,D,"[4, 3]",1.0,1.0,0.7070338726043701,5.405457019805908,0.35146209898756325,,421.0
G,D,"[5, 3]",1.0,2.0,0.399029016494751,1.9936048984527588,0.5949438236772678,70.0,422.0
R,U,"[4, 3]",1.0,3.0,0.37053894996643066,1.732300043106079,0.3773476449213849,70.0,423.0
R,U,"[3, 3]",-2.0,1.0,0.3964729309082031,2.1338069438934326,0.7275435377373194,70.0,424.0
Y,R,"[3, 4]",-1.0,0.0,0.3780100345611572,1.7370898723602295,0.3649971584907437,70.0,425.0
Y,R,"[3, 5]",-1.0,-1.0,0.28717494010925293,1.7312579154968262,0.4296910923650175,70.0,426.0
,,"(3, 3)",,,,,,70.0,
G,D,"[4, 3]",1.0,1.0,0.6233780384063721,5.059103965759277,0.3222941915342355,,427.0
G,D,"[5, 3]",1.0,2.0,0.3110520839691162,1.8001821041107178,0.4883250074784849,71.0,428.0
R,U,"[4, 3]",1.0,3.0,0.359328031539917,1.7539970874786377,0.39295198340699544,71.0,429.0
B,L,"[4, 2]",1.0,4.0,0.7271280288696289,2.1508851051330566,0.4272430914977315,71.0,430.0
Y,R,"[4, 3]",1.0,5.0,0.338346004486084,1.7439970970153809,0.40462677920660817,71.0,431.0
Y,R,"[4, 4]",-1.0,4.0,0.3692290782928467,1.7172589302062988,0.3386288519821699,71.0,432.0
,,"(3, 3)",,,,,,71.0,
G,D,"[4, 3]",1.0,1.0,0.567899227142334,3.3315188884735107,0.4701057866802496,,433.0
G,D,"[5, 3]",1.0,2.0,0.34554100036621094,1.8407998085021973,0.494216072536125,72.0,434.0
R,U,"[4, 3]",1.0,3.0,0.3762691020965576,2.007776975631714,0.6351885878266443,72.0,435.0
B,L,"[4, 2]",1.0,4.0,0.41857314109802246,1.9617540836334229,0.530421287519135,72.0,436.0
B,L,"[4, 1]",1.0,5.0,0.3588850498199463,1.7344520092010498,0.3651561540077156,72.0,437.0
B,L,"[4, 0]",0.0,5.0,0.8076698780059814,2.5556468963623047,0.7370795314088358,72.0,438.0
,,"(3, 3)",,,,,,72.0,
G,D,"[4, 3]",1.0,1.0,0.3503241539001465,6.264219045639038,0.4186391556373077,,439.0
G,D,"[5, 3]",1.0,2.0,0.37833714485168457,1.668846845626831,0.2875195486420367,73.0,440.0
R,U,"[4, 3]",1.0,3.0,0.4467320442199707,2.0954959392547607,0.6492961418375885,73.0,441.0
B,L,"[4, 2]",1.0,4.0,0.27479004859924316,1.780928134918213,0.4969267613083693,73.0,442.0
B,L,"[4, 1]",1.0,5.0,0.3964829444885254,2.002868890762329,0.5998853108868305,73.0,443.0
R,U,"[3, 1]",1.0,6.0,0.32155704498291016,1.977128028869629,0.660266919471551,73.0,444.0
,,"(3, 3)",,,,,,73.0,
G,D,"[4, 3]",1.0,1.0,0.719264030456543,3.612071990966797,0.30593519190787016,,445.0
G,D,"[5, 3]",1.0,2.0,0.3815450668334961,1.661694049835205,0.28452469286140813,74.0,446.0
R,U,"[4, 3]",1.0,3.0,0.42775702476501465,1.7682039737701416,0.3359362806383054,74.0,447.0
B,L,"[4, 2]",1.0,4.0,0.3553478717803955,1.6707899570465088,0.3234199172974729,74.0,448.0
B,L,"[4, 1]",1.0,5.0,0.4995710849761963,2.127833127975464,0.6177889057284205,74.0,449.0
R,U,"[3, 1]",1.0,6.0,0.3438408374786377,1.8411431312561035,0.49229981407458706,74.0,450.0
,,"(3, 3)",,,,,,74.0,
G,D,"[4, 3]",1.0,1.0,0.49604010581970215,3.1366350650787354,0.3625845775008828,,451.0
G,D,"[5, 3]",1.0,2.0,0.4508168697357178,2.1008760929107666,0.6467189467940208,75.0,452.0
R,U,"[4, 3]",1.0,3.0,0.3752479553222656,2.062507152557373,0.6756202137131598,75.0,453.0
B,L,"[4, 2]",1.0,4.0,0.37265491485595703,1.9704310894012451,0.596234121647526,75.0,454.0
B,L,"[4, 1]",1.0,5.0,0.6112439632415771,2.2506940364837646,0.6300322513973278,75.0,455.0
R,U,"[3, 1]",1.0,6.0,0.27344584465026855,1.7160670757293701,0.429755565228863,75.0,456.0
,,"(3, 3)",,,,,,75.0,
G,D,"[4, 3]",1.0,1.0,0.4233880043029785,3.2861897945404053,0.7156969032702567,,457.0
G,D,"[5, 3]",1.0,2.0,0.3045351505279541,2.0316250324249268,0.7141518940875242,76.0,458.0
R,U,"[4, 3]",1.0,3.0,0.38017702102661133,1.7384390830993652,0.35291427134319386,76.0,459.0
B,L,"[4, 2]",1.0,4.0,0.23370981216430664,1.5664010047912598,0.3359414290830459,76.0,460.0
B,L,"[4, 1]",1.0,5.0,0.27797484397888184,1.888301134109497,0.607390905398666,76.0,461.0
R,U,"[3, 1]",1.0,6.0,0.29077911376953125,1.732692003250122,0.4404107660521314,76.0,462.0
,,"(3, 3)",,,,,,76.0,
G,D,"[4, 3]",1.0,1.0,0.40998101234436035,3.559161901473999,0.7325565977766844,,463.0
G,D,"[5, 3]",1.0,2.0,0.26526808738708496,1.9326221942901611,0.6498565703765973,77.0,464.0
R,U,"[4, 3]",1.0,3.0,0.4297308921813965,2.1348509788513184,0.7014413259898391,77.0,465.0
B,L,"[4, 2]",1.0,4.0,0.15977883338928223,1.8188180923461914,0.6535734120041914,77.0,466.0
B,L,"[4, 1]",1.0,5.0,0.3337249755859375,1.7295942306518555,0.39982592104114034,77.0,467.0
R,U,"[3, 1]",1.0,6.0,0.41174983978271484,1.8519768714904785,0.4342573152006037,77.0,468.0
,,"(3, 3)",,,,,,77.0,
G,D,"[4, 3]",1.0,1.0,0.34792089462280273,3.5310580730438232,0.6485256028164864,,469.0
G,D,"[5, 3]",1.0,2.0,0.3687460422515869,1.7787699699401855,0.3942293389992541,78.0,470.0
R,U,"[4, 3]",1.0,3.0,0.36299610137939453,2.0269391536712646,0.6708534326022227,78.0,471.0
B,L,"[4, 2]",1.0,4.0,0.28089284896850586,1.550239086151123,0.2713982920826065,78.0,472.0
B,L,"[4, 1]",1.0,5.0,0.4005579948425293,1.9250810146331787,0.5129315377899477,78.0,473.0
R,U,"[3, 1]",1.0,6.0,0.3083219528198242,1.8548808097839355,0.5346812773854266,78.0,474.0
,,"(3, 3)",,,,,,78.0,
G,D,"[4, 3]",1.0,1.0,0.3706090450286865,2.587406873703003,0.505431269328732,,475.0
G,D,"[5, 3]",1.0,2.0,0.27210497856140137,1.9032189846038818,0.6252425629211059,79.0,476.0
R,U,"[4, 3]",1.0,3.0,0.3522319793701172,2.064042091369629,0.7058608352068771,79.0,477.0
B,L,"[4, 2]",1.0,4.0,0.46672701835632324,1.8425860404968262,0.3653395714828036,79.0,478.0
B,L,"[4, 1]",1.0,5.0,0.2937471866607666,1.8199551105499268,0.5185436270740371,79.0,479.0
R,U,"[3, 1]",1.0,6.0,0.6531009674072266,2.0739550590515137,0.4261273317310846,79.0,480.0
,,"(3, 3)",,,,,,79.0,
G,D,"[4, 3]",1.0,1.0,0.4500088691711426,2.8988590240478516,0.5913893988428518,,481.0
G,D,"[5, 3]",1.0,2.0,0.2498159408569336,1.7795391082763672,0.5210807339129091,80.0,482.0
R,U,"[4, 3]",1.0,3.0,0.2662668228149414,1.9053800106048584,0.6264388957839556,80.0,483.0
B,L,"[4, 2]",1.0,4.0,0.247589111328125,1.585637092590332,0.34565424161092945,80.0,484.0
B,L,"[4, 1]",1.0,5.0,0.26802682876586914,1.5696449279785156,0.2988158309729643,80.0,485.0
R,U,"[3, 1]",1.0,6.0,0.5267810821533203,2.1974291801452637,0.6624820922249278,80.0,486.0
,,"(3, 3)",,,,,,80.0,
G,D,"[4, 3]",1.0,1.0,0.43027806282043457,2.3246989250183105,0.2877581625203659,,487.0
G,D,"[5, 3]",1.0,2.0,0.4142608642578125,1.7255909442901611,0.31317667338210003,81.0,488.0
R,U,"[4, 3]",1.0,3.0,0.6319890022277832,1.9879639148712158,0.3511586026029489,81.0,489.0
B,L,"[4, 2]",1.0,4.0,0.24887609481811523,1.600074052810669,0.3512477537402467,81.0,490.0
B,L,"[4, 1]",1.0,5.0,0.3537600040435791,1.8730189800262451,0.5075736422361613,81.0,491.0
R,U,"[3, 1]",1.0,6.0,0.3003978729248047,1.8685457706451416,0.5594069500266857,81.0,492.0
,,"(3, 3)",,,,,,81.0,
G,D,"[4, 3]",1.0,1.0,0.2661151885986328,2.3151259422302246,0.474728024287208,,493.0
G,D,"[5, 3]",1.0,2.0,0.30919814109802246,1.7883830070495605,0.479658266253912,82.0,494.0
R,U,"[4, 3]",1.0,3.0,0.7441940307617188,2.457718849182129,0.7038486776029946,82.0,495.0
B,L,"[4, 2]",1.0,4.0,0.3040950298309326,1.8574330806732178,0.5448462163599994,82.0,496.0
B,L,"[4, 1]",1.0,5.0,0.2951838970184326,1.9538090229034424,0.6653227078990037,82.0,497.0
R,U,"[3, 1]",1.0,6.0,0.6255571842193604,2.1635961532592773,0.5288568432067647,82.0,498.0
,,"(3, 3)",,,,,,82.0,
G,D,"[4, 3]",1.0,1.0,0.27926087379455566,2.4981770515441895,0.4772365164958399,,499.0
G,D,"[5, 3]",1.0,2.0,0.47167015075683594,2.2067720890045166,0.7338581372389348,83.0,500.0
R,U,"[4, 3]",1.0,3.0,0.5391170978546143,2.2104389667510986,0.6608591008688569,83.0,501.0
B,L,"[4, 2]",1.0,4.0,0.4911789894104004,2.137557029724121,0.6486953339650269,83.0,502.0
B,L,"[4, 1]",1.0,5.0,0.30625104904174805,1.8318569660186768,0.5139641336683546,83.0,503.0
R,U,"[3, 1]",1.0,6.0,0.2760310173034668,1.713780164718628,0.4278568420833054,83.0,504.0
,,"(3, 3)",,,,,,83.0,
G,D,"[4, 3]",1.0,1.0,0.3199942111968994,2.8150789737701416,0.5594176400586612,,505.0
G,D,"[5, 3]",1.0,2.0,0.24144697189331055,1.634275197982788,0.3940675938659178,84.0,506.0
R,U,"[4, 3]",1.0,3.0,0.3815290927886963,1.8312389850616455,0.458506141344087,84.0,507.0
B,L,"[4, 2]",1.0,4.0,0.2899441719055176,1.9119789600372314,0.6203339123223068,84.0,508.0
B,L,"[4, 1]",1.0,5.0,0.24760007858276367,1.8252708911895752,0.5789281164281792,84.0,509.0
R,U,"[3, 1]",1.0,6.0,0.2699120044708252,1.5517258644104004,0.28108353198668634,84.0,510.0
,,"(3, 3)",,,,,,84.0,
G,D,"[4, 3]",1.0,1.0,0.2767360210418701,3.381977081298828,0.32969999707950043,,511.0
G,D,"[5, 3]",1.0,2.0,0.3988058567047119,1.847594976425171,0.4438882836925147,85.0,512.0
R,U,"[4, 3]",1.0,3.0,0.7077538967132568,2.0876970291137695,0.38182115118753135,85.0,513.0
B,L,"[4, 2]",1.0,4.0,0.3218071460723877,1.6890819072723389,0.35415861645800717,85.0,514.0
B,L,"[4, 1]",-2.0,4.0,1.0594239234924316,2.407719850540161,0.3120705256071753,85.0,515.0
R,U,"[3, 1]",1.0,5.0,0.29843902587890625,1.6116869449615479,0.32375787129362427,85.0,516.0
,,"(3, 3)",,,,,,85.0,
G,D,"[4, 3]",1.0,1.0,0.3543069362640381,2.886352062225342,0.41009002270094436,,517.0
G,D,"[5, 3]",1.0,2.0,0.3946058750152588,1.9641180038452148,0.5739601271433223,86.0,518.0
R,U,"[4, 3]",1.0,3.0,0.26398706436157227,1.8804848194122314,0.6211196885599022,86.0,519.0
B,L,"[4, 2]",1.0,4.0,0.28581905364990234,1.7122998237609863,0.41689590102423285,86.0,520.0
B,L,"[4, 1]",1.0,5.0,0.26674604415893555,1.7630360126495361,0.4966358181855423,86.0,521.0
R,U,"[3, 1]",1.0,6.0,0.29666686058044434,1.8606479167938232,0.5573005736502914,86.0,522.0
,,"(3, 3)",,,,,,86.0,
G,D,"[4, 3]",1.0,1.0,0.24269795417785645,4.667796850204468,0.7251584661080132,,523.0
G,D,"[5, 3]",1.0,2.0,0.24914193153381348,1.8871920108795166,0.628880342124797,87.0,524.0
R,U,"[4, 3]",1.0,3.0,0.2707819938659668,1.71024489402771,0.4392779751616162,87.0,525.0
B,L,"[4, 2]",1.0,4.0,0.6171901226043701,2.18259596824646,0.5551758755895435,87.0,526.0
B,L,"[4, 1]",1.0,5.0,0.23238801956176758,1.7358300685882568,0.5071268271933171,87.0,527.0
R,U,"[3, 1]",1.0,6.0,0.23059916496276855,1.680250883102417,0.45474721268989005,87.0,528.0
,,"(3, 3)",,,,,,87.0,
G,D,"[4, 3]",1.0,1.0,0.26082611083984375,2.8942620754241943,0.548994161304508,,529.0
G,D,"[5, 3]",1.0,2.0,0.23343801498413086,1.5666069984436035,0.31589271139060865,88.0,530.0
R,U,"[4, 3]",1.0,3.0,0.3258330821990967,1.9088220596313477,0.5745503329805457,88.0,531.0
B,L,"[4, 2]",1.0,4.0,0.2728271484375,1.8907880783081055,0.6152260606900246,88.0,532.0
B,L,"[4, 1]",1.0,5.0,0.6701319217681885,1.963494062423706,0.27916702120242487,88.0,533.0
R,U,"[3, 1]",1.0,6.0,0.4360170364379883,1.6952521800994873,0.25767035401622235,88.0,534.0
,,"(3, 3)",,,,,,88.0,
G,D,"[4, 3]",1.0,1.0,0.26332783699035645,4.999350070953369,0.6900478856342229,,535.0
G,D,"[5, 3]",1.0,2.0,0.2492659091949463,1.5876779556274414,0.34476929540089024,89.0,536.0
R,U,"[4, 3]",1.0,3.0,0.3689839839935303,1.9158759117126465,0.5437486570292378,89.0,537.0
B,L,"[4, 2]",1.0,4.0,0.271575927734375,1.630624771118164,0.35793341359181935,89.0,538.0
B,L,"[4, 1]",1.0,5.0,0.24010396003723145,1.5049359798431396,0.26304003955157973,89.0,539.0
R,U,"[3, 1]",1.0,6.0,0.25463199615478516,1.6423909664154053,0.3721033689292007,89.0,540.0
,,"(3, 3)",,,,,,89.0,
G,D,"[4, 3]",1.0,1.0,0.24765896797180176,2.790583848953247,0.6293469994719052,,541.0
G,D,"[5, 3]",1.0,2.0,0.2740471363067627,1.934880018234253,0.6638251955901011,90.0,542.0
R,U,"[4, 3]",1.0,3.0,0.3021819591522217,1.7190029621124268,0.3998921930071291,90.0,543.0
B,L,"[4, 2]",1.0,4.0,0.34241294860839844,1.788167953491211,0.4380155923356155,90.0,544.0
B,L,"[4, 1]",1.0,5.0,0.26459503173828125,1.6926729679107666,0.4307303208241168,90.0,545.0
R,U,"[3, 1]",1.0,6.0,0.36418890953063965,1.9655840396881104,0.5962536220442531,90.0,546.0
,,"(3, 3)",,,,,,90.0,
G,D,"[4, 3]",1.0,1.0,0.2697288990020752,2.8616650104522705,0.5412941384656678,,547.0
G,D,"[5, 3]",1.0,2.0,0.2516460418701172,1.8175761699676514,0.5589880650745727,91.0,548.0
R,U,"[4, 3]",1.0,3.0,0.28504204750061035,1.6538231372833252,0.36301185557610255,91.0,549.0
B,L,"[4, 2]",1.0,4.0,0.47157812118530273,1.8193528652191162,0.3323421421346713,91.0,550.0
B,L,"[4, 1]",1.0,5.0,0.23478007316589355,1.7366080284118652,0.5020994833086876,91.0,551.0
R,U,"[3, 1]",1.0,6.0,0.2545609474182129,1.8631360530853271,0.5986286247280299,91.0,552.0
,,"(3, 3)",,,,,,91.0,
G,D,"[4, 3]",1.0,1.0,0.20890092849731445,2.701367139816284,0.3001929259942102,,553.0
G,D,"[5, 3]",1.0,2.0,0.35601210594177246,2.057404041290283,0.6906051940673867,92.0,554.0
R,U,"[4, 3]",1.0,3.0,0.18432903289794922,1.7047560214996338,0.5122324282172247,92.0,555.0
B,L,"[4, 2]",1.0,4.0,0.23317408561706543,1.793294906616211,0.5555753282254527,92.0,556.0
B,L,"[4, 1]",1.0,5.0,0.27126002311706543,1.9242939949035645,0.646380412163517,92.0,557.0
R,U,"[3, 1]",1.0,6.0,0.30394816398620605,1.6660819053649902,0.3462212097261318,92.0,558.0
,,"(3, 3)",,,,,,92.0,
G,D,"[4, 3]",1.0,1.0,0.3211100101470947,2.61771297454834,0.36398838513730186,,559.0
G,D,"[5, 3]",1.0,2.0,0.25584912300109863,1.7187089920043945,0.44906111887573663,93.0,560.0
R,U,"[4, 3]",1.0,3.0,0.24417400360107422,1.8805220127105713,0.6295250112842711,93.0,561.0
B,L,"[4, 2]",1.0,4.0,0.2258930206298828,1.8041009902954102,0.5671190595152713,93.0,562.0
B,L,"[4, 1]",1.0,5.0,0.23090100288391113,1.514484167098999,0.2819994666674276,93.0,563.0
R,U,"[3, 1]",1.0,6.0,0.4683229923248291,1.8020939826965332,0.31740713449266256,93.0,564.0
,,"(3, 3)",,,,,,93.0,
G,D,"[4, 3]",1.0,1.0,0.2796299457550049,2.9125921726226807,0.5630704049276154,,565.0
G,D,"[5, 3]",1.0,2.0,0.24282097816467285,1.7744901180267334,0.5210288100743481,94.0,566.0
R,U,"[4, 3]",1.0,3.0,0.2881901264190674,1.7068870067596436,0.4113084090433588,94.0,567.0
B,L,"[4, 2]",1.0,4.0,0.2372150421142578,1.6001360416412354,0.36149438014806173,94.0,568.0
B,L,"[4, 1]",1.0,5.0,0.21132898330688477,1.7826719284057617,0.5773984849024713,94.0,569.0
R,U,"[3, 1]",1.0,6.0,0.21639204025268555,1.7629599571228027,0.5403303265929202,94.0,570.0
,,"(3, 3)",,,,,,94.0,
G,D,"[4, 3]",1.0,1.0,0.25008296966552734,2.874228000640869,0.4980259422502557,,571.0
G,D,"[5, 3]",1.0,2.0,0.3582589626312256,1.6653540134429932,0.2962652995738903,95.0,572.0
R,U,"[4, 3]",1.0,3.0,0.7576160430908203,2.2210869789123535,0.45131585950720615,95.0,573.0
B,L,"[4, 2]",1.0,4.0,0.2729799747467041,1.6053369045257568,0.3234584861334005,95.0,574.0
B,L,"[4, 1]",1.0,5.0,0.2590491771697998,1.8749439716339111,0.6145646655962902,95.0,575.0
R,U,"[3, 1]",1.0,6.0,0.4737269878387451,2.0652430057525635,0.5801322601350893,95.0,576.0
,,"(3, 3)",,,,,,95.0,
G,D,"[4, 3]",1.0,1.0,0.24398207664489746,2.8341782093048096,0.6308630354897249,,577.0
G,D,"[5, 3]",1.0,2.0,0.3261880874633789,1.80401611328125,0.4684360091377802,96.0,578.0
R,U,"[4, 3]",1.0,3.0,0.40409207344055176,2.0612058639526367,0.6461283985264387,96.0,579.0
B,L,"[4, 2]",1.0,4.0,0.23181509971618652,1.885434865951538,0.6483664867479894,96.0,580.0
B,L,"[4, 1]",1.0,5.0,0.2601141929626465,1.7872369289398193,0.5189448905520643,96.0,581.0
R,U,"[3, 1]",1.0,6.0,0.29514193534851074,1.9401428699493408,0.642404052450428,96.0,582.0
,,"(3, 3)",,,,,,96.0,
G,D,"[4, 3]",1.0,1.0,0.21198511123657227,3.113065004348755,0.6553204528340164,,583.0
G,D,"[5, 3]",1.0,2.0,0.28116893768310547,1.7685928344726562,0.4909306578747953,97.0,584.0
R,U,"[4, 3]",1.0,3.0,0.26343512535095215,1.6218340396881104,0.362891334443109,97.0,585.0
B,L,"[4, 2]",1.0,4.0,0.29517102241516113,1.8935110569000244,0.5895613988223382,97.0,586.0
B,L,"[4, 1]",1.0,5.0,0.25506091117858887,1.8188180923461914,0.5744641267318635,97.0,587.0
R,U,"[3, 1]",1.0,6.0,0.2568788528442383,1.658419132232666,0.4004153102399243,97.0,588.0
,,"(3, 3)",,,,,,97.0,
G,D,"[4, 3]",1.0,1.0,0.2759058475494385,2.7532269954681396,0.5533011096638762,,589.0
G,D,"[5, 3]",1.0,2.0,0.34604907035827637,1.666330099105835,0.3200955296830854,98.0,590.0
R,U,"[4, 3]",1.0,3.0,0.8696198463439941,2.4474189281463623,0.5674163088083183,98.0,591.0
B,L,"[4, 2]",1.0,4.0,0.23117995262145996,1.7858390808105469,0.5532897119408099,98.0,592.0
B,L,"[4, 1]",1.0,5.0,0.21436595916748047,1.5397469997406006,0.32659395302991795,98.0,593.0
R,U,"[3, 1]",1.0,6.0,0.4435999393463135,1.9571199417114258,0.5168302864032717,98.0,594.0
,,"(3, 3)",,,,,,98.0,
G,D,"[4, 3]",1.0,1.0,0.35304903984069824,2.985590934753418,0.7189265658209434,,595.0
G,D,"[5, 3]",1.0,2.0,0.25679588317871094,1.688410997390747,0.42437126608104875,99.0,596.0
R,U,"[4, 3]",1.0,3.0,0.40455007553100586,2.1504549980163574,0.7412088637060292,99.0,597.0
B,L,"[4, 2]",1.0,4.0,0.21255087852478027,1.9186041355133057,0.7097844541492572,99.0,598.0
B,L,"[4, 1]",1.0,5.0,0.5769948959350586,2.136944055557251,0.5636724506400836,99.0,599.0
R,U,"[3, 1]",1.0,6.0,0.3110790252685547,1.7453629970550537,0.4258093937354847,99.0,600.0
,,"(3, 3)",,,,,,99.0,
G,D,"[4, 3]",1.0,1.0,0.28370094299316406,3.8849968910217285,0.6106554537203022,,601.0
G,D,"[5, 3]",1.0,2.0,0.20749592781066895,1.4932668209075928,0.28749154673168,100.0,602.0
R,U,"[4, 3]",1.0,3.0,0.7025980949401855,2.2577788829803467,0.5619375126962877,100.0,603.0
B,L,"[4, 2]",1.0,4.0,0.24361205101013184,1.6353509426116943,0.39742780971087044,100.0,604.0
B,L,"[4, 1]",1.0,5.0,0.2867391109466553,1.9810900688171387,0.678102428541882,100.0,605.0
R,U,"[3, 1]",-1.0,5.0,0.02093505859375,5.432486057281494,0.294379212616717,100.0,606.0
,,"(3, 3)",,,,,,100.0,
G,D,"[4, 3]",1.0,1.0,0.40030598640441895,3.350720167160034,0.3118372580771918,,607.0
G,D,"[5, 3]",1.0,2.0,0.44326114654541016,1.7500219345092773,0.31213426077173784,101.0,608.0
R,U,"[4, 3]",1.0,3.0,0.32653117179870605,1.9766931533813477,0.6549635060940286,101.0,609.0
B,L,"[4, 2]",1.0,4.0,0.33689093589782715,1.8784070014953613,0.5336346425333682,101.0,610.0
B,L,"[4, 1]",1.0,5.0,0.3399178981781006,1.6673541069030762,0.3177972224589206,101.0,611.0
R,U,"[3, 1]",1.0,6.0,0.5610170364379883,2.30745005607605,0.7414818248998607,101.0,612.0
,,"(3, 3)",,,,,,101.0,
G,D,"[4, 3]",1.0,1.0,0.27480292320251465,2.6845548152923584,0.5597353181803515,,613.0
G,D,"[5, 3]",1.0,2.0,0.4269118309020996,2.0583488941192627,0.6345781519175975,102.0,614.0
R,U,"[4, 3]",1.0,3.0,0.5712189674377441,2.0114049911499023,0.4296266294553564,102.0,615.0
B,L,"[4, 2]",1.0,4.0,0.28579187393188477,1.5729639530181885,0.28608617094492783,102.0,616.0
B,L,"[4, 1]",1.0,5.0,0.9681859016418457,2.638096809387207,0.6572111347123543,102.0,617.0
R,U,"[3, 1]",1.0,6.0,0.2617640495300293,1.7350480556488037,0.47576153499979495,102.0,618.0
,,"(3, 3)",,,,,,102.0,
G,D,"[4, 3]",1.0,1.0,0.5012409687042236,3.0729899406433105,0.38216096227814356,,619.0
G,D,"[5, 3]",1.0,2.0,0.2752711772918701,1.8121130466461182,0.5275576026903563,103.0,620.0
R,U,"[4, 3]",1.0,3.0,0.3933429718017578,2.0978708267211914,0.708575947048866,103.0,621.0
B,L,"[4, 2]",1.0,4.0,0.4124410152435303,2.0869410037994385,0.6790350875446542,103.0,622.0
B,L,"[4, 1]",1.0,5.0,0.3813769817352295,1.651108980178833,0.28047967650483896,103.0,623.0
R,U,"[3, 1]",1.0,6.0,0.46749401092529297,2.015077829360962,0.528510105685549,103.0,624.0
,,"(3, 3)",,,,,,103.0,
G,D,"[4, 3]",1.0,1.0,0.314622163772583,2.9005229473114014,0.27960547279471787,,625.0
G,D,"[5, 3]",1.0,2.0,0.3636958599090576,1.8059091567993164,0.4520398614055266,104.0,626.0
R,U,"[4, 3]",1.0,3.0,0.328204870223999,1.6458919048309326,0.31465152887641246,104.0,627.0
B,L,"[4, 2]",1.0,4.0,0.26413798332214355,1.6256959438323975,0.357110089624377,104.0,628.0
B,L,"[4, 1]",1.0,5.0,0.3166470527648926,1.7620940208435059,0.43577862825903474,104.0,629.0
R,U,"[3, 1]",1.0,6.0,0.3528609275817871,1.727344036102295,0.37976319824839483,104.0,630.0
,,"(3, 3)",,,,,,104.0,
G,D,"[4, 3]",1.0,1.0,0.27562904357910156,3.100350856781006,0.7299239891727445,,631.0
G,D,"[5, 3]",1.0,2.0,0.3048131465911865,1.6389868259429932,0.31924570429089305,105.0,632.0
R,U,"[4, 3]",1.0,3.0,0.25240492820739746,1.6408958435058594,0.37693634555790123,105.0,633.0
B,L,"[4, 2]",1.0,4.0,0.3431529998779297,1.9622259140014648,0.6220738432782276,105.0,634.0
B,L,"[4, 1]",-2.0,4.0,1.480719804763794,3.0461411476135254,0.5351439908252869,105.0,635.0
R,U,"[3, 1]",1.0,5.0,0.24279499053955078,1.901360034942627,0.6530124659123822,105.0,636.0
,,"(3, 3)",,,,,,105.0,
G,D,"[4, 3]",1.0,1.0,0.2378549575805664,2.364532947540283,0.4511470282721702,,637.0
G,D,"[5, 3]",1.0,2.0,0.4534430503845215,1.860598087310791,0.39516524659255586,106.0,638.0
R,U,"[4, 3]",1.0,3.0,0.3601961135864258,1.7083559036254883,0.35364190016637137,106.0,639.0
B,L,"[4, 2]",1.0,4.0,0.3365631103515625,1.8252649307250977,0.4788221075766027,106.0,640.0
B,L,"[4, 1]",1.0,5.0,0.2719299793243408,1.9788908958435059,0.7073239512497203,106.0,641.0
R,U,"[3, 1]",1.0,6.0,0.3086831569671631,1.9456379413604736,0.6364952675331561,106.0,642.0
,,"(3, 3)",,,,,,106.0,
G,D,"[4, 3]",1.0,1.0,0.2949869632720947,3.597501039505005,0.6007394906846821,,643.0
G,D,"[5, 3]",1.0,2.0,0.27907800674438477,1.8181819915771484,0.5358228864608935,107.0,644.0
R,U,"[4, 3]",1.0,3.0,0.24065399169921875,1.5709519386291504,0.32358286407831954,107.0,645.0
B,L,"[4, 2]",1.0,4.0,0.3208351135253906,1.9156100749969482,0.588964922085751,107.0,646.0
B,L,"[4, 1]",1.0,5.0,0.23607802391052246,1.8557910919189453,0.6116218640647546,107.0,647.0
R,U,"[3, 1]",1.0,6.0,0.24811697006225586,1.5526001453399658,0.3143483720000694,107.0,648.0
,,"(3, 3)",,,,,,107.0,
G,D,"[4, 3]",1.0,1.0,0.24534392356872559,2.844831943511963,0.5088878441225818,,649.0
G,D,"[5, 3]",1.0,2.0,0.2783949375152588,1.6124138832092285,0.33821639087242034,108.0,650.0
R,U,"[4, 3]",1.0,3.0,0.3298330307006836,2.043642997741699,0.7149184886140797,108.0,651.0
B,L,"[4, 2]",1.0,4.0,0.6110718250274658,2.0619561672210693,0.4439537986553946,108.0,652.0
B,L,"[4, 1]",1.0,5.0,0.2280271053314209,1.833456039428711,0.6104569417563206,108.0,653.0
R,U,"[3, 1]",1.0,6.0,0.25963497161865234,1.6148600578308105,0.35887044952157465,108.0,654.0
,,"(3, 3)",,,,,,108.0,
G,D,"[4, 3]",1.0,1.0,0.47971105575561523,3.177781105041504,0.32017478350410944,,655.0
G,D,"[5, 3]",1.0,2.0,0.5868990421295166,2.131649971008301,0.5349735562898525,109.0,656.0
R,U,"[4, 3]",1.0,3.0,0.7094419002532959,2.432145833969116,0.7170928053560759,109.0,657.0
B,L,"[4, 2]",1.0,4.0,0.22649812698364258,1.6722090244293213,0.43958354402999683,109.0,658.0
B,L,"[4, 1]",1.0,5.0,0.4175560474395752,1.8264920711517334,0.39948618569038535,109.0,659.0
R,U,"[3, 1]",1.0,6.0,0.6325569152832031,2.0916669368743896,0.4577479657672425,109.0,660.0
,,"(3, 3)",,,,,,109.0,
G,D,"[4, 3]",1.0,1.0,0.24067401885986328,2.843411922454834,0.634300683959012,,661.0
G,D,"[5, 3]",1.0,2.0,0.2652549743652344,1.9281120300292969,0.662412264700433,110.0,662.0
R,U,"[4, 3]",1.0,3.0,0.2614598274230957,1.9241929054260254,0.6702169439992068,110.0,663.0
B,L,"[4, 2]",1.0,4.0,0.3122539520263672,1.6149098873138428,0.30196173370863705,110.0,664.0
B,L,"[4, 1]",1.0,5.0,0.3638579845428467,1.9917497634887695,0.6268138900156994,110.0,665.0
R,U,"[3, 1]",1.0,6.0,0.22341179847717285,1.9699769020080566,0.7465520100538235,110.0,666.0
,,"(3, 3)",,,,,,110.0,
G,D,"[4, 3]",1.0,1.0,0.2749621868133545,2.7196900844573975,0.5997857273776908,,667.0
G,D,"[5, 3]",1.0,2.0,0.4565579891204834,2.065952777862549,0.5991054807761597,111.0,668.0
R,U,"[4, 3]",1.0,3.0,0.36791515350341797,1.8211710453033447,0.4371185878545776,111.0,669.0
B,L,"[4, 2]",1.0,4.0,0.6834909915924072,2.386596918106079,0.6902502988038879,111.0,670.0
B,L,"[4, 1]",1.0,5.0,0.25844907760620117,1.8570969104766846,0.597391007720736,111.0,671.0
R,U,"[3, 1]",1.0,6.0,0.4074728488922119,2.1503798961639404,0.7309014816215019,111.0,672.0
,,"(3, 3)",,,,,,111.0,
G,D,"[4, 3]",1.0,1.0,0.20639586448669434,2.909060001373291,0.5569237747030569,,673.0
G,D,"[5, 3]",1.0,2.0,0.2736070156097412,2.012331962585449,0.7357846165956802,112.0,674.0
R,U,"[4, 3]",1.0,3.0,0.25527310371398926,1.7055110931396484,0.4418105790810416,112.0,675.0
B,L,"[4, 2]",1.0,4.0,0.29404401779174805,1.9443180561065674,0.6526203026299766,112.0,676.0
B,L,"[4, 1]",1.0,5.0,0.2371668815612793,1.7963969707489014,0.549027462007742,112.0,677.0
R,U,"[3, 1]",1.0,6.0,0.28415918350219727,1.6274068355560303,0.326574846732879,112.0,678.0
,,"(3, 3)",,,,,,112.0,
G,D,"[4, 3]",1.0,1.0,0.19377899169921875,2.607234001159668,0.40056186498254553,,679.0
G,D,"[5, 3]",1.0,2.0,0.4659900665283203,1.7943639755249023,0.32835821157650386,113.0,680.0
R,U,"[4, 3]",1.0,3.0,0.5217399597167969,2.17268705368042,0.6507491903184159,113.0,681.0
B,L,"[4, 2]",-1.0,3.0,0.0026340484619140625,5.768841028213501,0.636333070443015,113.0,682.0
B,L,"[4, 1]",1.0,4.0,0.4189879894256592,1.7660510540008545,0.3360364557551358,113.0,683.0
R,U,"[3, 1]",1.0,5.0,0.2954130172729492,1.8013107776641846,0.5040323602369501,113.0,684.0
,,"(3, 3)",,,,,,113.0,
G,D,"[4, 3]",1.0,1.0,0.2688407897949219,2.80108904838562,0.6215550061630148,,685.0
G,D,"[5, 3]",1.0,2.0,0.36571192741394043,2.0219740867614746,0.6602084301347406,114.0,686.0
R,U,"[4, 3]",1.0,3.0,0.4010779857635498,1.9162049293518066,0.510020046776164,114.0,687.0
B,L,"[4, 2]",1.0,4.0,0.3113701343536377,1.9019458293914795,0.5951815192379404,114.0,688.0
B,L,"[4, 1]",1.0,5.0,0.3243570327758789,2.0290470123291016,0.7074496427878569,114.0,689.0
R,U,"[3, 1]",1.0,6.0,0.4041411876678467,1.7142870426177979,0.30550166403339013,114.0,690.0
,,"(3, 3)",,,,,,114.0,
G,D,"[4, 3]",1.0,1.0,0.24727916717529297,3.2173590660095215,0.4894015091616987,,691.0
G,D,"[5, 3]",1.0,2.0,0.27912282943725586,1.812263011932373,0.5349525646383702,115.0,692.0
R,U,"[4, 3]",1.0,3.0,0.6413440704345703,2.185455083847046,0.5371616219723183,115.0,693.0
B,L,"[4, 2]",1.0,4.0,0.33104801177978516,2.0476861000061035,0.7180689756359531,115.0,694.0
B,L,"[4, 1]",1.0,5.0,0.2592649459838867,1.647848129272461,0.38293605990801477,115.0,695.0
R,U,"[3, 1]",1.0,6.0,0.5561690330505371,2.264714002609253,0.6972902305701346,115.0,696.0
,,"(3, 3)",,,,,,115.0,
G,D,"[4, 3]",1.0,1.0,0.3792238235473633,2.859715223312378,0.34079099416226183,,697.0
G,D,"[5, 3]",1.0,2.0,0.48904991149902344,1.7865960597991943,0.29401709302949,116.0,698.0
R,U,"[4, 3]",1.0,3.0,0.6816389560699463,2.3217709064483643,0.6488086850425654,116.0,699.0
B,L,"[4, 2]",1.0,4.0,0.25517916679382324,1.987224817276001,0.7196943314784559,116.0,700.0
B,L,"[4, 1]",1.0,5.0,0.2559041976928711,1.6538748741149902,0.3903610942317898,116.0,701.0
R,U,"[3, 1]",1.0,6.0,0.2831120491027832,1.8569369316101074,0.5638570774837788,116.0,702.0
,,"(3, 3)",,,,,,116.0,
G,D,"[4, 3]",1.0,1.0,0.2694070339202881,2.8729660511016846,0.6367689310217064,,703.0
G,D,"[5, 3]",1.0,2.0,0.2537801265716553,1.998265027999878,0.7350084350275454,117.0,704.0
R,U,"[4, 3]",1.0,3.0,0.33583712577819824,1.9982428550720215,0.6499795545739511,117.0,705.0
B,L,"[4, 2]",1.0,4.0,0.23886418342590332,1.941343069076538,0.6905968532617746,117.0,706.0
B,L,"[4, 1]",1.0,5.0,0.29363012313842773,1.641495943069458,0.3497544286704076,117.0,707.0
R,U,"[3, 1]",1.0,6.0,0.37566208839416504,1.9679830074310303,0.5842771079937927,117.0,708.0
,,"(3, 3)",,,,,,117.0,
G,D,"[4, 3]",1.0,1.0,0.2676701545715332,3.0049078464508057,0.6222880052172253,,709.0
G,D,"[5, 3]",1.0,2.0,0.30925583839416504,1.748297929763794,0.4377236839073654,118.0,710.0
R,U,"[4, 3]",1.0,3.0,0.46929192543029785,1.763451099395752,0.28468890395344837,118.0,711.0
B,L,"[4, 2]",1.0,4.0,0.2838320732116699,1.9792840480804443,0.6801251240143249,118.0,712.0
B,L,"[4, 1]",1.0,5.0,0.23242521286010742,1.587587833404541,0.33476625966268836,118.0,713.0
R,U,"[3, 1]",1.0,6.0,0.24408793449401855,1.5689418315887451,0.32059166495503116,118.0,714.0
,,"(3, 3)",,,,,,118.0,
G,D,"[4, 3]",1.0,1.0,0.2924489974975586,2.739421844482422,0.34357598351095225,,715.0
G,D,"[5, 3]",1.0,2.0,0.37725281715393066,2.087293863296509,0.7135323849352408,119.0,716.0
R,U,"[4, 3]",1.0,3.0,0.21369194984436035,1.7726669311523438,0.553032097561921,119.0,717.0
B,L,"[4, 2]",1.0,4.0,0.2506551742553711,1.8478400707244873,0.600842530248545,119.0,718.0
B,L,"[4, 1]",1.0,5.0,0.2527339458465576,1.871507167816162,0.6224293598685786,119.0,719.0
R,U,"[3, 1]",1.0,6.0,0.2841041088104248,1.672379970550537,0.37839460419748117,119.0,720.0
,,"(3, 3)",,,,,,119.0,
G,D,"[4, 3]",1.0,1.0,0.15613412857055664,3.3435938358306885,0.5552720594238376,,721.0
G,D,"[5, 3]",1.0,2.0,0.34468889236450195,1.6474330425262451,0.30286699417773183,120.0,722.0
R,U,"[4, 3]",1.0,3.0,0.49974799156188965,2.1132659912109375,0.5993341078613064,120.0,723.0
B,L,"[4, 2]",1.0,4.0,0.23829388618469238,1.7410790920257568,0.49047932672109523,120.0,724.0
B,L,"[4, 1]",1.0,5.0,0.2818269729614258,1.592811107635498,0.3168232646427424,120.0,725.0
R,U,"[3, 1]",1.0,6.0,0.2999539375305176,1.8202719688415527,0.5036457301610271,120.0,726.0
,,"(3, 3)",,,,,,120.0,
G,D,"[4, 3]",1.0,1.0,0.25016307830810547,4.13740086555481,0.3911401052758181,,727.0
G,D,"[5, 3]",1.0,2.0,0.2810840606689453,1.674069881439209,0.3986142690382765,121.0,728.0
R,U,"[4, 3]",1.0,3.0,0.49881577491760254,1.9036071300506592,0.38545694875827163,121.0,729.0
B,L,"[4, 2]",1.0,4.0,0.25883007049560547,1.5336849689483643,0.2693609052150323,121.0,730.0
B,L,"[4, 1]",1.0,5.0,0.27071499824523926,1.7346279621124268,0.45390383797783973,121.0,731.0
R,U,"[3, 1]",1.0,6.0,0.24731898307800293,1.5668079853057861,0.3207141529965457,121.0,732.0
,,"(3, 3)",,,,,,121.0,
G,D,"[4, 3]",1.0,1.0,0.26584506034851074,2.7036819458007812,0.3246417957348577,,733.0
G,D,"[5, 3]",1.0,2.0,0.4378190040588379,2.0164859294891357,0.5740826056915085,122.0,734.0
R,U,"[4, 3]",1.0,3.0,0.2505059242248535,1.919597864151001,0.6602405897986208,122.0,735.0
B,L,"[4, 2]",1.0,4.0,0.2487809658050537,1.5780417919158936,0.3387463548630051,122.0,736.0
B,L,"[4, 1]",1.0,5.0,0.3712348937988281,2.039691925048828,0.6614419689135331,122.0,737.0
R,U,"[3, 1]",1.0,6.0,0.6210579872131348,1.965684175491333,0.3442306767158714,122.0,738.0
,,"(3, 3)",,,,,,122.0,
G,D,"[4, 3]",1.0,1.0,0.2999861240386963,2.898102045059204,0.5754803355120001,,739.0
G,D,"[5, 3]",1.0,2.0,0.48848795890808105,2.1991519927978516,0.7078550052630471,123.0,740.0
R,U,"[4, 3]",1.0,3.0,0.5235879421234131,2.103445053100586,0.5780578520294399,123.0,741.0
B,L,"[4, 2]",1.0,4.0,0.35365986824035645,2.0409958362579346,0.6856571735060113,123.0,742.0
B,L,"[4, 1]",1.0,5.0,0.27277421951293945,1.5207140445709229,0.25665801354030876,123.0,743.0
R,U,"[3, 1]",1.0,6.0,0.7191860675811768,2.2787230014801025,0.5520306186516777,123.0,744.0
,,"(3, 3)",,,,,,123.0,
G,D,"[4, 3]",1.0,1.0,0.2701730728149414,2.8612020015716553,0.4299772329679171,,745.0
G,D,"[5, 3]",1.0,2.0,0.2925078868865967,1.7609388828277588,0.4576858149151712,124.0,746.0
R,U,"[4, 3]",1.0,3.0,0.3953511714935303,1.671966791152954,0.27978713173399766,124.0,747.0
B,L,"[4, 2]",1.0,4.0,0.24808979034423828,1.9985978603363037,0.7446803909707571,124.0,748.0
B,L,"[4, 1]",1.0,5.0,0.2178359031677246,1.7011959552764893,0.49612567521648787,124.0,749.0
R,U,"[3, 1]",1.0,6.0,0.261383056640625,1.9568910598754883,0.6861226908044766,124.0,750.0
,,"(3, 3)",,,,,,124.0,
G,D,"[4, 3]",1.0,1.0,0.22409605979919434,2.702759027481079,0.522427736099098,,751.0
G,D,"[5, 3]",1.0,2.0,0.429473876953125,2.041609048843384,0.6139940106045378,125.0,752.0
R,U,"[4, 3]",1.0,3.0,0.22237896919250488,1.5032517910003662,0.28427525799512726,125.0,753.0
B,L,"[4, 2]",1.0,4.0,0.24938201904296875,1.9622929096221924,0.6964201580549512,125.0,754.0
B,L,"[4, 1]",1.0,5.0,0.17882704734802246,1.5120940208435059,0.3252926994922237,125.0,755.0
R,U,"[3, 1]",1.0,6.0,0.3819150924682617,1.7244658470153809,0.34977201717787587,125.0,756.0
,,"(3, 3)",,,,,,125.0,
G,D,"[4, 3]",1.0,1.0,0.2310318946838379,2.6957669258117676,0.7285067869942656,,757.0
G,D,"[5, 3]",1.0,2.0,0.31856703758239746,1.5859131813049316,0.28164040087761705,126.0,758.0
R,U,"[4, 3]",1.0,3.0,0.4684159755706787,1.9180450439453125,0.4328733517204764,126.0,759.0
B,L,"[4, 2]",1.0,4.0,0.294788122177124,1.7602989673614502,0.4598281655103243,126.0,760.0
B,L,"[4, 1]",1.0,5.0,0.3148519992828369,1.8103959560394287,0.503662812148178,126.0,761.0
R,U,"[3, 1]",1.0,6.0,0.4202249050140381,2.0774431228637695,0.6476438895415474,126.0,762.0
,,"(3, 3)",,,,,,126.0,
G,D,"[4, 3]",1.0,1.0,0.23754405975341797,2.844823122024536,0.625918635976191,,763.0
G,D,"[5, 3]",1.0,2.0,0.3407449722290039,1.8768150806427002,0.5360059622718965,127.0,764.0
R,U,"[4, 3]",1.0,3.0,0.5815119743347168,1.8663780689239502,0.28605926785634817,127.0,765.0
B,L,"[4, 2]",1.0,4.0,0.3652040958404541,1.6598460674285889,0.29596909893735823,127.0,766.0
B,L,"[4, 1]",1.0,5.0,0.3338639736175537,1.792323112487793,0.454755372756815,127.0,767.0
R,U,"[3, 1]",1.0,6.0,0.39600491523742676,2.049117088317871,0.653751913247548,127.0,768.0
,,"(3, 3)",,,,,,127.0,
G,D,"[4, 3]",1.0,1.0,0.2063579559326172,2.933436870574951,0.6039997235232956,,769.0
G,D,"[5, 3]",1.0,2.0,0.25478100776672363,1.6122159957885742,0.36648609435091484,128.0,770.0
R,U,"[4, 3]",1.0,3.0,0.32311511039733887,1.6113989353179932,0.27786368384854365,128.0,771.0
B,L,"[4, 2]",1.0,4.0,0.24841094017028809,1.7138869762420654,0.4749404118122771,128.0,772.0
B,L,"[4, 1]",1.0,5.0,0.23568296432495117,1.5088999271392822,0.2841208563587179,128.0,773.0
R,U,"[3, 1]",1.0,6.0,0.295076847076416,2.00120210647583,0.7016316216960771,128.0,774.0
,,"(3, 3)",,,,,,128.0,
G,D,"[4, 3]",1.0,1.0,0.1955430507659912,2.740896224975586,0.5762228942835602,,775.0
G,D,"[5, 3]",1.0,2.0,0.2590370178222656,1.5494868755340576,0.29237403780757776,129.0,776.0
R,U,"[4, 3]",1.0,3.0,0.29590702056884766,1.6708688735961914,0.3798684176017326,129.0,777.0
B,L,"[4, 2]",1.0,4.0,0.24564003944396973,1.555102825164795,0.3017433152410971,129.0,778.0
B,L,"[4, 1]",1.0,5.0,0.25269389152526855,1.7184278964996338,0.45331837831579924,129.0,779.0
R,U,"[3, 1]",1.0,6.0,0.24607515335083008,1.6629550457000732,0.4163730106181865,129.0,780.0
,,"(3, 3)",,,,,,129.0,
G,D,"[4, 3]",1.0,1.0,0.16201019287109375,2.34566593170166,0.29562992380531544,,781.0
G,D,"[5, 3]",1.0,2.0,0.38844895362854004,2.1186161041259766,0.7305376490106266,130.0,782.0
R,U,"[4, 3]",1.0,3.0,0.23607397079467773,1.8323791027069092,0.5801409105105373,130.0,783.0
B,L,"[4, 2]",1.0,4.0,0.21265792846679688,1.7503371238708496,0.5302412487763359,130.0,784.0
B,L,"[4, 1]",1.0,5.0,0.4369790554046631,1.7785179615020752,0.32562264684557185,130.0,785.0
R,U,"[3, 1]",1.0,6.0,0.3951699733734131,1.7273650169372559,0.3363081418292286,130.0,786.0
,,"(3, 3)",,,,,,130.0,
G,D,"[4, 3]",1.0,1.0,0.18791794776916504,2.5350661277770996,0.2879606200417317,,787.0
G,D,"[5, 3]",1.0,2.0,0.33457088470458984,1.633924961090088,0.28864473730759754,131.0,788.0
R,U,"[4, 3]",1.0,3.0,0.3113420009613037,1.7933461666107178,0.4818778313435653,131.0,789.0
B,L,"[4, 2]",1.0,4.0,0.2695310115814209,1.665381908416748,0.397278465565382,131.0,790.0
B,L,"[4, 1]",1.0,5.0,0.2457571029663086,1.8845090866088867,0.6316958045959664,131.0,791.0
R,U,"[3, 1]",1.0,6.0,0.22576093673706055,1.7571148872375488,0.5223334874499364,131.0,792.0
,,"(3, 3)",,,,,,131.0,
G,D,"[4, 3]",1.0,1.0,0.24789190292358398,2.56840181350708,0.507471090595053,,793.0
G,D,"[5, 3]",1.0,2.0,0.27918004989624023,1.6032168865203857,0.32751753820845264,132.0,794.0
R,U,"[4, 3]",1.0,3.0,0.35001277923583984,2.0469799041748047,0.6907308475235953,132.0,795.0
B,L,"[4, 2]",1.0,4.0,0.2700481414794922,1.617258071899414,0.34170039457156404,132.0,796.0
B,L,"[4, 1]",1.0,5.0,0.2934401035308838,1.996683120727539,0.7048134501603035,132.0,797.0
R,U,"[3, 1]",1.0,6.0,0.22365188598632812,1.8374080657958984,0.6088856944200829,132.0,798.0
,,"(3, 3)",,,,,,132.0,
G,D,"[4, 3]",1.0,1.0,0.23906207084655762,2.739145040512085,0.5315025009368761,,799.0
G,D,"[5, 3]",1.0,2.0,0.2786531448364258,1.6350598335266113,0.3501285332348248,133.0,800.0
R,U,"[4, 3]",1.0,3.0,0.25120115280151367,1.6602349281311035,0.3937197782787481,133.0,801.0
B,L,"[4, 2]",1.0,4.0,0.26726484298706055,1.9845821857452393,0.7113950735234207,133.0,802.0
B,L,"[4, 1]",1.0,5.0,0.21981215476989746,1.547752857208252,0.32621954492136906,133.0,803.0
R,U,"[3, 1]",1.0,6.0,0.3260159492492676,1.6313068866729736,0.30743569692374706,133.0,804.0
,,"(3, 3)",,,,,,133.0,
G,D,"[4, 3]",-1.0,-1.0,0.232421875,2.237600803375244,0.46150215909289205,,805.0
G,D,"[5, 3]",-2.0,-1.0,1.6374249458312988,3.2303318977355957,0.5751919271227535,134.0,806.0
Y,R,"[5, 4]",-1.0,-2.0,0.3211390972137451,1.8875219821929932,0.5627813799498124,134.0,807.0
B,L,"[5, 3]",-1.0,-3.0,0.24054288864135742,1.9846909046173096,0.7305287505147584,134.0,808.0
R,U,"[4, 3]",-1.0,-4.0,0.20604705810546875,1.6636018753051758,0.4445994441139426,134.0,809.0
R,U,"[3, 3]",-2.0,-6.0,0.871009111404419,2.4562859535217285,0.5841504421198093,134.0,810.0
,,"(3, 3)",,,,,,134.0,
R,U,"[2, 3]",1.0,1.0,0.4183361530303955,4.64133095741272,0.3757362679730162,,811.0
R,U,"[1, 3]",-1.0,0.0,0.38521599769592285,1.6693079471588135,0.278550923119429,135.0,812.0
B,L,"[1, 2]",1.0,1.0,0.40362095832824707,1.7105109691619873,0.305677701654233,135.0,813.0
B,L,"[1, 1]",1.0,2.0,0.9029850959777832,2.347775936126709,0.43668663762992355,135.0,814.0
Y,R,"[1, 2]",1.0,3.0,0.5900259017944336,2.009442090988159,0.4128495770566768,135.0,815.0
Y,R,"[1, 3]",-1.0,2.0,0.31758594512939453,1.8878250122070312,0.5673920927571741,135.0,816.0
,,"(3, 3)",,,,,,135.0,
R,U,"[2, 3]",1.0,1.0,0.5136690139770508,4.769320011138916,0.7363571170568716,,817.0
G,D,"[3, 3]",-2.0,-1.0,0.4116859436035156,2.124413013458252,0.7110102957685173,136.0,818.0
B,L,"[3, 2]",-1.0,-2.0,0.16907787322998047,1.6855249404907227,0.5133868828424784,136.0,819.0
B,L,"[3, 1]",1.0,-1.0,0.3821098804473877,1.9046111106872559,0.5013239097712783,136.0,820.0
B,L,"[3, 0]",0.0,-1.0,0.3691689968109131,1.791105031967163,0.40914247362455664,136.0,821.0
B,L,"[3, 0]",0.0,-1.0,0.3688831329345703,1.8227741718292236,0.4654061948441252,136.0,822.0
,,"(3, 3)",,,,,,136.0,
R,U,"[2, 3]",1.0,1.0,0.274899959564209,4.95817494392395,0.3401963210964935,,823.0
R,U,"[1, 3]",-1.0,0.0,0.3198888301849365,1.9881999492645264,0.6616528342378214,137.0,824.0
B,L,"[1, 2]",1.0,1.0,0.5636739730834961,2.0035669803619385,0.4321648843400327,137.0,825.0
B,L,"[1, 1]",1.0,2.0,0.3650679588317871,1.744480848312378,0.3767214943449878,137.0,826.0
Y,R,"[1, 2]",1.0,3.0,0.6227807998657227,2.2135438919067383,0.5902245235981448,137.0,827.0
R,U,"[0, 2]",0.0,3.0,0.3432929515838623,1.6547939777374268,0.3117857912502591,137.0,828.0
,,"(3, 3)",,,,,,137.0,
R,U,"[2, 3]",1.0,1.0,0.651965856552124,3.6699130535125732,0.5481341818401271,,829.0
B,L,"[2, 2]",-2.0,1.0,1.1574130058288574,2.913409948348999,0.7280522345103089,138.0,830.0
B,L,"[2, 1]",1.0,2.0,0.23199701309204102,1.9326889514923096,0.7108888033813533,138.0,831.0
B,L,"[2, 0]",0.0,2.0,0.2699317932128906,1.8887050151824951,0.6163205048591236,138.0,832.0
Y,R,"[2, 1]",1.0,3.0,0.27504491806030273,1.586935043334961,0.3036116882960267,138.0,833.0
G,D,"[3, 1]",1.0,4.0,0.4285609722137451,1.8489058017730713,0.4191060847137072,138.0,834.0
,,"(3, 3)",,,,,,138.0,
R,U,"[2, 3]",1.0,1.0,0.8982541561126709,4.194123029708862,0.5966445711403003,,835.0
Y,R,"[2, 4]",-1.0,0.0,0.2787208557128906,1.5479540824890137,0.2613839589371608,139.0,836.0
B,L,"[2, 3]",1.0,1.0,0.30945396423339844,1.6448578834533691,0.33956199355992167,139.0,837.0
B,L,"[2, 2]",1.0,2.0,0.26951003074645996,1.9728429317474365,0.69545708350275,139.0,838.0
Y,R,"[2, 3]",1.0,3.0,0.29686999320983887,1.5391759872436523,0.25184950549916285,139.0,839.0
G,D,"[3, 3]",-2.0,1.0,0.3139209747314453,1.7451438903808594,0.413369584824359,139.0,840.0
,,"(3, 3)",,,,,,139.0,
R,U,"[2, 3]",1.0,1.0,0.5876309871673584,3.8066349029541016,0.586620265805236,,841.0
B,L,"[2, 2]",1.0,2.0,0.3450889587402344,1.6737570762634277,0.32726508114766556,140.0,842.0
B,L,"[2, 1]",1.0,3.0,0.3484928607940674,1.9268391132354736,0.5873091951014233,140.0,843.0
B,L,"[2, 0]",0.0,3.0,0.33069396018981934,2.030750036239624,0.7011495370264211,140.0,844.0
Y,R,"[2, 1]",1.0,4.0,0.3231790065765381,2.07289981842041,0.7413370057902301,140.0,845.0
G,D,"[3, 1]",1.0,5.0,0.30741381645202637,1.725442886352539,0.4166219644802482,140.0,846.0
,,"(3, 3)",,,,,,140.0,
R,U,"[2, 3]",1.0,1.0,0.47217679023742676,3.844831943511963,0.7278032963569846,,847.0
B,L,"[2, 2]",1.0,2.0,0.18538784980773926,1.7664811611175537,0.5945403768428642,141.0,848.0
B,L,"[2, 1]",1.0,3.0,0.21465682983398438,1.9305050373077393,0.7249359416328961,141.0,849.0
B,L,"[2, 0]",0.0,3.0,0.20838594436645508,1.824404001235962,0.6162580066962298,141.0,850.0
Y,R,"[2, 1]",1.0,4.0,0.3009960651397705,1.6663429737091064,0.3494830352155547,141.0,851.0
G,D,"[3, 1]",1.0,5.0,0.6631419658660889,2.314617156982422,0.6471533768655631,141.0,852.0
,,"(3, 3)",,,,,,141.0,
R,U,"[2, 3]",1.0,1.0,0.5305449962615967,3.5342960357666016,0.698104550870984,,853.0
B,L,"[2, 2]",1.0,2.0,0.2572779655456543,1.8391449451446533,0.5707373972921125,142.0,854.0
B,L,"[2, 1]",1.0,3.0,0.28550004959106445,1.8378498554229736,0.5418707997123751,142.0,855.0
Y,R,"[2, 2]",1.0,4.0,0.3987300395965576,1.9342398643493652,0.5428230005215882,142.0,856.0
G,D,"[3, 2]",-1.0,3.0,0.3936269283294678,1.9318158626556396,0.5413396374413342,142.0,857.0
G,D,"[4, 2]",-1.0,2.0,0.5752689838409424,2.005845785140991,0.430771524473562,142.0,858.0
,,"(3, 3)",,,,,,142.0,
R,U,"[2, 3]",1.0,1.0,0.2506279945373535,3.1093649864196777,0.37348600585169306,,859.0
B,L,"[2, 2]",1.0,2.0,0.29180908203125,1.8878390789031982,0.5945672944751662,143.0,860.0
B,L,"[2, 1]",1.0,3.0,0.22658896446228027,1.8370070457458496,0.614804720716545,143.0,861.0
Y,R,"[2, 2]",1.0,4.0,0.25273895263671875,1.8222401142120361,0.5537926035752558,143.0,862.0
Y,R,"[2, 3]",1.0,5.0,0.2680699825286865,1.9090421199798584,0.6294701974846595,143.0,863.0
G,D,"[3, 3]",-2.0,3.0,0.2822868824005127,1.5732340812683105,0.2696932193192251,143.0,864.0
,,"(3, 3)",,,,,,143.0,
R,U,"[2, 3]",-2.0,0.0,1.1543998718261719,3.6107420921325684,0.5469229702322083,,865.0
B,L,"[2, 2]",1.0,1.0,0.27524805068969727,1.9461431503295898,0.6596256612436011,144.0,866.0
B,L,"[2, 1]",1.0,2.0,0.2600131034851074,1.5424590110778809,0.2858578342691327,144.0,867.0
Y,R,"[2, 2]",1.0,3.0,0.3019528388977051,1.6340539455413818,0.3200078035651827,144.0,868.0
Y,R,"[2, 3]",1.0,4.0,0.2921130657196045,1.7347819805145264,0.43812649907814066,144.0,869.0
R,U,"[1, 3]",-1.0,3.0,0.2414538860321045,1.5236279964447021,0.27856199694264305,144.0,870.0
,,"(3, 3)",,,,,,144.0,
R,U,"[2, 3]",1.0,1.0,0.30548596382141113,3.5840578079223633,0.6620713651715244,,871.0
B,L,"[2, 2]",1.0,2.0,0.1546010971069336,1.7104430198669434,0.5560440041211832,145.0,872.0
B,L,"[2, 1]",1.0,3.0,0.2779550552368164,1.8965590000152588,0.6193608302932938,145.0,873.0
Y,R,"[2, 2]",1.0,4.0,0.28702402114868164,1.9608781337738037,0.663437241931754,145.0,874.0
Y,R,"[2, 3]",1.0,5.0,0.2344350814819336,1.540675163269043,0.28784162743479275,145.0,875.0
G,D,"[3, 3]",-2.0,3.0,0.40305590629577637,1.9756598472595215,0.5632231475292122,145.0,876.0
,,"(3, 3)",,,,,,145.0,
R,U,"[2, 3]",-2.0,0.0,1.106492042541504,3.653390884399414,0.3836116202048242,,877.0
B,L,"[2, 2]",1.0,1.0,0.2589578628540039,1.691192865371704,0.42485260282170556,146.0,878.0
B,L,"[2, 1]",1.0,2.0,0.2557380199432373,1.5896079540252686,0.3312465353276092,146.0,879.0
Y,R,"[2, 2]",1.0,3.0,0.26575589179992676,1.7459399700164795,0.46031180711421543,146.0,880.0
Y,R,"[2, 3]",1.0,4.0,0.11569905281066895,1.8408520221710205,0.7342523326039072,146.0,881.0
Y,R,"[2, 4]",-1.0,3.0,0.19356989860534668,1.8888850212097168,0.6899534027669989,146.0,882.0
,,"(3, 3)",,,,,,146.0,
R,U,"[2, 3]",1.0,1.0,0.5822679996490479,2.6664929389953613,0.6897037092305821,,883.0
B,L,"[2, 2]",1.0,2.0,0.3407118320465088,1.74491286277771,0.4016274836806934,147.0,884.0
B,L,"[2, 1]",1.0,3.0,0.6347789764404297,2.204911947250366,0.5564391383972289,147.0,885.0
Y,R,"[2, 2]",1.0,4.0,0.32884907722473145,1.9408390522003174,0.613941382883033,147.0,886.0
Y,R,"[2, 3]",1.0,5.0,0.2639000415802002,1.7927899360656738,0.5234406003865535,147.0,887.0
B,L,"[2, 2]",1.0,6.0,0.3176250457763672,1.8860080242156982,0.5595883106509852,147.0,888.0
,,"(3, 3)",,,,,,147.0,
R,U,"[2, 3]",1.0,1.0,0.4219231605529785,2.651527166366577,0.3113131146430316,,889.0
B,L,"[2, 2]",1.0,2.0,0.25966596603393555,1.7153830528259277,0.4599171575935668,148.0,890.0
B,L,"[2, 1]",1.0,3.0,0.2838139533996582,1.7932641506195068,0.5032457585711514,148.0,891.0
Y,R,"[2, 2]",1.0,4.0,0.20589590072631836,1.7547791004180908,0.5412365468403408,148.0,892.0
Y,R,"[2, 3]",1.0,5.0,0.2261040210723877,1.8914239406585693,0.6661149216827306,148.0,893.0
B,L,"[2, 2]",1.0,6.0,0.22299909591674805,1.8743908405303955,0.6404552906501958,148.0,894.0
,,"(3, 3)",,,,,,148.0,
R,U,"[2, 3]",1.0,1.0,0.30867695808410645,2.6319029331207275,0.7225215406087285,,895.0
B,L,"[2, 2]",1.0,2.0,0.2641739845275879,1.586287021636963,0.3256632654189072,149.0,896.0
B,L,"[2, 1]",1.0,3.0,0.2517859935760498,1.951875925064087,0.6937525944283395,149.0,897.0
Y,R,"[2, 2]",1.0,4.0,0.19734907150268555,1.5107109546661377,0.32140252028033856,149.0,898.0
Y,R,"[2, 3]",1.0,5.0,0.24647188186645508,1.4962470531463623,0.25136220218959937,149.0,899.0
B,L,"[2, 2]",-1.0,5.0,0.09455204010009766,5.67500901222229,0.4429049679089108,149.0,900.0
,,"(3, 3)",,,,,,149.0,
R,U,"[2, 3]",1.0,1.0,0.26534485816955566,2.048638105392456,0.25825311798721345,,901.0
B,L,"[2, 2]",1.0,2.0,0.34595394134521484,1.9023730754852295,0.5605392703649925,150.0,902.0
B,L,"[2, 1]",1.0,3.0,0.3500509262084961,2.0720300674438477,0.7157161260703189,150.0,903.0
Y,R,"[2, 2]",1.0,4.0,0.257749080657959,1.6949961185455322,0.42775551577849835,150.0,904.0
Y,R,"[2, 3]",1.0,5.0,0.30166006088256836,1.5789859294891357,0.2734873573049462,150.0,905.0
B,L,"[2, 2]",1.0,6.0,0.7843492031097412,2.053086996078491,0.27661181271697755,150.0,906.0
,,"(3, 3)",,,,,,150.0,
R,U,"[2, 3]",1.0,1.0,0.3117940425872803,2.803924083709717,0.5802516666615247,,907.0
B,L,"[2, 2]",1.0,2.0,0.2786731719970703,1.7569470405578613,0.4706495186445827,151.0,908.0
B,L,"[2, 1]",1.0,3.0,0.24280905723571777,1.7208080291748047,0.47499356768871753,151.0,909.0
Y,R,"[2, 2]",1.0,4.0,0.26806092262268066,1.565638780593872,0.30732222698234635,151.0,910.0
Y,R,"[2, 3]",1.0,5.0,0.3597080707550049,2.0683579444885254,0.708645188118044,151.0,911.0
B,L,"[2, 2]",1.0,6.0,0.2620511054992676,1.605187177658081,0.34767882446918597,151.0,912.0
,,"(3, 3)",,,,,,151.0,
R,U,"[2, 3]",1.0,1.0,0.23751521110534668,3.468674898147583,0.6659612373893943,,913.0
B,L,"[2, 2]",1.0,2.0,0.31075096130371094,1.6254918575286865,0.3087038336159507,152.0,914.0
B,L,"[2, 1]",1.0,3.0,0.30416297912597656,1.611454963684082,0.3033130522026095,152.0,915.0
Y,R,"[2, 2]",1.0,4.0,0.2575070858001709,1.6106820106506348,0.347350491876596,152.0,916.0
Y,R,"[2, 3]",1.0,5.0,0.2599461078643799,1.5998351573944092,0.330537528184516,152.0,917.0
B,L,"[2, 2]",1.0,6.0,0.3371851444244385,2.043444871902466,0.6902932550072498,152.0,918.0
,,"(3, 3)",,,,,,152.0,
R,U,"[2, 3]",1.0,1.0,0.2685232162475586,2.345133066177368,0.28604543868427956,,919.0
B,L,"[2, 2]",1.0,2.0,0.2547459602355957,1.5425169467926025,0.27852812297619167,153.0,920.0
B,L,"[2, 1]",1.0,3.0,0.337709903717041,1.9381179809570312,0.5995885285618006,153.0,921.0
Y,R,"[2, 2]",1.0,4.0,0.24252891540527344,1.961932897567749,0.7114496598712179,153.0,922.0
Y,R,"[2, 3]",1.0,5.0,0.2677781581878662,1.846388816833496,0.574791848384815,153.0,923.0
B,L,"[2, 2]",1.0,6.0,0.36170196533203125,1.8924169540405273,0.5338078600403242,153.0,924.0
,,"(3, 3)",,,,,,153.0,
R,U,"[2, 3]",1.0,1.0,0.2536020278930664,2.6628079414367676,0.6299048414940326,,925.0
B,L,"[2, 2]",1.0,2.0,0.28815412521362305,1.8497791290283203,0.5465002275360311,154.0,926.0
B,L,"[2, 1]",1.0,3.0,0.2632021903991699,1.7668509483337402,0.4802041187183814,154.0,927.0
Y,R,"[2, 2]",1.0,4.0,0.26071691513061523,1.6806488037109375,0.41095281410787715,154.0,928.0
Y,R,"[2, 3]",1.0,5.0,0.11835312843322754,1.6794788837432861,0.5734683992079302,154.0,929.0
B,L,"[2, 2]",1.0,6.0,0.2296769618988037,1.7734999656677246,0.5472131566757209,154.0,930.0
,,"(3, 3)",,,,,,154.0,
R,U,"[2, 3]",1.0,1.0,0.21772384643554688,2.6923229694366455,0.655949985994851,,931.0
B,L,"[2, 2]",1.0,2.0,0.18622303009033203,1.6517372131347656,0.4580876549917337,155.0,932.0
B,L,"[2, 1]",1.0,3.0,0.2602829933166504,1.7371809482574463,0.47843017230818985,155.0,933.0
Y,R,"[2, 2]",1.0,4.0,0.25270795822143555,1.7508931159973145,0.49597710590451144,155.0,934.0
Y,R,"[2, 3]",1.0,5.0,0.3123629093170166,1.630173921585083,0.3099146047253731,155.0,935.0
B,L,"[2, 2]",1.0,6.0,0.749722957611084,2.344721794128418,0.58762121918156,155.0,936.0
,,"(3, 3)",,,,,,155.0,
R,U,"[2, 3]",1.0,1.0,0.25588083267211914,7.307808876037598,0.7115466826874863,,937.0
B,L,"[2, 2]",1.0,2.0,0.33029890060424805,1.5765650272369385,0.25588321935105857,156.0,938.0
B,L,"[2, 1]",1.0,3.0,0.40280699729919434,1.9391498565673828,0.5446512306576476,156.0,939.0
Y,R,"[2, 2]",1.0,4.0,0.3105030059814453,1.714798927307129,0.4095965062305999,156.0,940.0
Y,R,"[2, 3]",1.0,5.0,0.2551908493041992,1.5964999198913574,0.3396380223268463,156.0,941.0
B,L,"[2, 2]",1.0,6.0,0.28420019149780273,1.7135090827941895,0.4363707179433581,156.0,942.0
,,"(3, 3)",,,,,,156.0,
R,U,"[2, 3]",1.0,1.0,0.272615909576416,2.3580501079559326,0.47794246733657686,,943.0
B,L,"[2, 2]",1.0,2.0,0.26055002212524414,1.9745008945465088,0.7186429153272522,157.0,944.0
B,L,"[2, 1]",1.0,3.0,0.22718286514282227,1.899674892425537,0.6684726306763635,157.0,945.0
Y,R,"[2, 2]",1.0,4.0,0.25321412086486816,1.6099121570587158,0.3453561749539056,157.0,946.0
Y,R,"[2, 3]",1.0,5.0,0.3152639865875244,1.856010913848877,0.5512273940537675,157.0,947.0
B,L,"[2, 2]",1.0,6.0,0.23970508575439453,1.9037189483642578,0.6548175499929871,157.0,948.0
,,"(3, 3)",,,,,,157.0,
R,U,"[2, 3]",1.0,1.0,0.19324517250061035,2.5261740684509277,0.41470731812454287,,949.0
B,L,"[2, 2]",1.0,2.0,0.4205770492553711,1.815119981765747,0.37978140079875533,158.0,950.0
B,L,"[2, 1]",1.0,3.0,0.26612019538879395,1.754822015762329,0.4846334132150087,158.0,951.0
Y,R,"[2, 2]",1.0,4.0,0.26193690299987793,1.9264628887176514,0.6609378566008564,158.0,952.0
Y,R,"[2, 3]",1.0,5.0,0.25833702087402344,1.9185121059417725,0.6627904784751689,158.0,953.0
B,L,"[2, 2]",1.0,6.0,0.2301938533782959,1.819136142730713,0.5820668269651895,158.0,954.0
,,"(3, 3)",,,,,,158.0,
R,U,"[2, 3]",1.0,1.0,0.14974212646484375,2.8650600910186768,0.5973163027037579,,955.0
B,L,"[2, 2]",1.0,2.0,0.3088991641998291,1.9005498886108398,0.5810061962856445,159.0,956.0
B,L,"[2, 1]",1.0,3.0,0.2569239139556885,1.7865219116210938,0.5176025827789612,159.0,957.0
Y,R,"[2, 2]",1.0,4.0,0.2506728172302246,1.5763399600982666,0.31092193681603925,159.0,958.0
Y,R,"[2, 3]",1.0,5.0,0.28324079513549805,1.6395659446716309,0.3337631361744778,159.0,959.0
B,L,"[2, 2]",1.0,6.0,0.25208497047424316,1.6691019535064697,0.402964847762541,159.0,960.0
,,"(3, 3)",,,,,,159.0,
R,U,"[2, 3]",1.0,1.0,0.1711750030517578,2.376281976699829,0.5623231114646907,,961.0
B,L,"[2, 2]",1.0,2.0,0.243851900100708,1.9113240242004395,0.6735454279561337,160.0,962.0
B,L,"[2, 1]",1.0,3.0,0.2166910171508789,1.7492001056671143,0.5063009073383975,160.0,963.0
Y,R,"[2, 2]",1.0,4.0,0.32068777084350586,2.008826971054077,0.6817033227992964,160.0,964.0
Y,R,"[2, 3]",1.0,5.0,0.3047809600830078,1.745844841003418,0.42783711291265264,160.0,965.0
B,L,"[2, 2]",1.0,6.0,0.37048912048339844,1.6942050457000732,0.3387165145037107,160.0,966.0
,,"(3, 3)",,,,,,160.0,
R,U,"[2, 3]",-1.0,0.0,0.07827520370483398,7.226416110992432,0.3819912076851761,,967.0
B,L,"[2, 2]",1.0,1.0,0.30952000617980957,2.004157066345215,0.6857775729818971,161.0,968.0
B,L,"[2, 1]",1.0,2.0,0.28153204917907715,1.767223834991455,0.486538407668362,161.0,969.0
Y,R,"[2, 2]",1.0,3.0,0.2951791286468506,1.7507460117340088,0.45403584629731925,161.0,970.0
Y,R,"[2, 3]",1.0,4.0,0.2284069061279297,1.8604888916015625,0.6311359272492585,161.0,971.0
B,L,"[2, 2]",1.0,5.0,0.23534202575683594,1.6370198726654053,0.3851164366036553,161.0,972.0
,,"(3, 3)",,,,,,161.0,
R,U,"[2, 3]",1.0,1.0,0.35149192810058594,2.3124330043792725,0.2810676631592237,,973.0
B,L,"[2, 2]",1.0,2.0,0.27349209785461426,1.6131069660186768,0.32742185687923836,162.0,974.0
B,L,"[2, 1]",1.0,3.0,0.2305757999420166,1.7542150020599365,0.5314762237482618,162.0,975.0
Y,R,"[2, 2]",1.0,4.0,0.2499239444732666,1.6296298503875732,0.3611858838568242,162.0,976.0
Y,R,"[2, 3]",1.0,5.0,0.2822699546813965,1.5936839580535889,0.3215698557189884,162.0,977.0
B,L,"[2, 2]",1.0,6.0,0.6189770698547363,2.1220321655273438,0.5100189494939035,162.0,978.0
,,"(3, 3)",,,,,,162.0,
R,U,"[2, 3]",1.0,1.0,0.19374990463256836,3.294327974319458,0.43792697764554883,,979.0
B,L,"[2, 2]",1.0,2.0,0.22094297409057617,1.731186866760254,0.5023987948210367,163.0,980.0
B,L,"[2, 1]",1.0,3.0,0.22079110145568848,1.8567712306976318,0.642370085039992,163.0,981.0
Y,R,"[2, 2]",1.0,4.0,0.2646298408508301,1.9219629764556885,0.6644720989428463,163.0,982.0
Y,R,"[2, 3]",1.0,5.0,0.22457098960876465,1.6946210861206055,0.45919945283859154,163.0,983.0
B,L,"[2, 2]",1.0,6.0,0.2623419761657715,1.7253291606903076,0.46791046818702764,163.0,984.0
,,"(3, 3)",,,,,,163.0,
R,U,"[2, 3]",1.0,1.0,0.24610114097595215,2.300281047821045,0.3849787773162082,,985.0
B,L,"[2, 2]",1.0,2.0,0.2531599998474121,1.6072101593017578,0.34227347429781485,164.0,986.0
B,L,"[2, 1]",1.0,3.0,0.24894499778747559,1.6849069595336914,0.42710752487818493,164.0,987.0
Y,R,"[2, 2]",1.0,4.0,0.29865288734436035,1.779473066329956,0.4897855575252414,164.0,988.0
Y,R,"[2, 3]",1.0,5.0,0.24535202980041504,1.6512198448181152,0.407822413534033,164.0,989.0
B,L,"[2, 2]",1.0,6.0,0.2574601173400879,1.9524989128112793,0.6934170120051344,164.0,990.0
,,"(3, 3)",,,,,,164.0,
R,U,"[2, 3]",1.0,1.0,0.2541160583496094,2.6101200580596924,0.7367692761609836,,991.0
B,L,"[2, 2]",1.0,2.0,0.2538928985595703,1.6820361614227295,0.41937057625394475,165.0,992.0
B,L,"[2, 1]",1.0,3.0,0.25275206565856934,1.7585079669952393,0.49447326191698815,165.0,993.0
Y,R,"[2, 2]",1.0,4.0,0.30277299880981445,1.5783119201660156,0.272957164508581,165.0,994.0
Y,R,"[2, 3]",1.0,5.0,0.24057507514953613,1.5007259845733643,0.2569836031422822,165.0,995.0
B,L,"[2, 2]",1.0,6.0,0.26251792907714844,1.7779419422149658,0.5181953097904852,165.0,996.0
,,"(3, 3)",,,,,,165.0,
R,U,"[2, 3]",1.0,1.0,0.15560007095336914,2.4699230194091797,0.27161162090257807,,997.0
B,L,"[2, 2]",1.0,2.0,0.3006398677825928,1.5701370239257812,0.258508892025732,166.0,998.0
B,L,"[2, 1]",1.0,3.0,0.24213504791259766,1.9431829452514648,0.7011955831521883,166.0,999.0
Y,R,"[2, 2]",1.0,4.0,0.14531898498535156,1.4417550563812256,0.29346070834753607,166.0,1000.0
Y,R,"[2, 3]",1.0,5.0,0.20579791069030762,1.500427007675171,0.2938768576994855,166.0,1001.0
B,L,"[2, 2]",1.0,6.0,0.24182701110839844,1.8667309284210205,0.6269830918941792,166.0,1002.0
,,"(3, 3)",,,,,,166.0,
R,U,"[2, 3]",1.0,1.0,0.2206721305847168,2.328387975692749,0.4054728711468378,,1003.0
B,L,"[2, 2]",1.0,2.0,0.2969992160797119,1.6024010181427002,0.30802209234659067,167.0,1004.0
B,L,"[2, 1]",1.0,3.0,0.2610030174255371,1.9834630489349365,0.724652430193767,167.0,1005.0
Y,R,"[2, 2]",1.0,4.0,0.18800687789916992,1.8054630756378174,0.6295481217155279,167.0,1006.0
Y,R,"[2, 3]",1.0,5.0,0.18410301208496094,1.7300300598144531,0.5268881942141249,167.0,1007.0
B,L,"[2, 2]",1.0,6.0,0.2516288757324219,1.6693739891052246,0.4130666220430649,167.0,1008.0
,,"(3, 3)",,,,,,167.0,
R,U,"[2, 3]",1.0,1.0,0.29785895347595215,2.6503288745880127,0.3302802160977434,,1009.0
B,L,"[2, 2]",1.0,2.0,0.5193760395050049,1.8165719509124756,0.28014631843521764,168.0,1010.0
B,L,"[2, 1]",1.0,3.0,0.4267418384552002,1.72943115234375,0.29304349237833344,168.0,1011.0
Y,R,"[2, 2]",1.0,4.0,0.30114316940307617,1.90972900390625,0.619117416219791,168.0,1012.0
Y,R,"[2, 3]",1.0,5.0,0.2796471118927002,2.0144381523132324,0.7334977152355642,168.0,1013.0
B,L,"[2, 2]",1.0,6.0,0.2419881820678711,1.9170241355895996,0.6672213053109536,168.0,1014.0
,,"(3, 3)",,,,,,168.0,
R,U,"[2, 3]",1.0,1.0,0.19110798835754395,2.544456958770752,0.5785453323002394,,1015.0
B,L,"[2, 2]",1.0,2.0,0.2702500820159912,1.8414239883422852,0.5700009346799065,169.0,1016.0
B,L,"[2, 1]",1.0,3.0,0.2542870044708252,1.5842299461364746,0.3212392612438913,169.0,1017.0
Y,R,"[2, 2]",1.0,4.0,0.30079197883605957,1.7788431644439697,0.48323408769586945,169.0,1018.0
Y,R,"[2, 3]",1.0,5.0,0.23254919052124023,1.644834041595459,0.4114762183818472,169.0,1019.0
B,L,"[2, 2]",1.0,6.0,0.34332704544067383,1.9373619556427002,0.5986878568690337,169.0,1020.0
,,"(3, 3)",,,,,,169.0,
R,U,"[2, 3]",1.0,1.0,0.2231459617614746,2.709904909133911,0.6418900083862604,,1021.0
B,L,"[2, 2]",1.0,2.0,0.21444988250732422,1.5517289638519287,0.34395603979987927,170.0,1022.0
B,L,"[2, 1]",1.0,3.0,0.20881986618041992,1.525702953338623,0.31965099629520943,170.0,1023.0
Y,R,"[2, 2]",1.0,4.0,0.7054600715637207,2.0579779148101807,0.3443225178915527,170.0,1024.0
Y,R,"[2, 3]",1.0,5.0,0.24935507774353027,1.8996779918670654,0.6437129857315744,170.0,1025.0
B,L,"[2, 2]",1.0,6.0,0.211561918258667,1.5878369808197021,0.3818501914757247,170.0,1026.0
,,"(3, 3)",,,,,,170.0,
R,U,"[2, 3]",1.0,1.0,0.16645598411560059,4.031515121459961,0.5800782438286902,,1027.0
B,L,"[2, 2]",1.0,2.0,0.2301769256591797,1.6384000778198242,0.4018691227729523,171.0,1028.0
B,L,"[2, 1]",1.0,3.0,0.3930079936981201,2.006235122680664,0.6080385895650864,171.0,1029.0
Y,R,"[2, 2]",1.0,4.0,0.21898698806762695,1.9396491050720215,0.7141073038819983,171.0,1030.0
Y,R,"[2, 3]",1.0,5.0,0.2085258960723877,1.5228359699249268,0.3042194783963423,171.0,1031.0
B,L,"[2, 2]",1.0,6.0,0.7632880210876465,2.08735990524292,0.3248270869128539,171.0,1032.0
,,"(3, 3)",,,,,,171.0,
R,U,"[2, 3]",1.0,1.0,0.20527410507202148,3.160943031311035,0.7022235757256114,,1033.0
B,L,"[2, 2]",1.0,2.0,0.23061299324035645,1.7675669193267822,0.5365271644437188,172.0,1034.0
B,L,"[2, 1]",1.0,3.0,0.3060588836669922,1.9815120697021484,0.6680241270620567,172.0,1035.0
Y,R,"[2, 2]",1.0,4.0,0.22176218032836914,1.964233160018921,0.7321834070419457,172.0,1036.0
Y,R,"[2, 3]",1.0,5.0,0.24135804176330566,1.722548007965088,0.4716183827090234,172.0,1037.0
B,L,"[2, 2]",-1.0,5.0,0.005660057067871094,5.712583065032959,0.5841631282000359,172.0,1038.0
,,"(3, 3)",,,,,,172.0,
R,U,"[2, 3]",1.0,1.0,0.30202698707580566,4.500065088272095,0.4679319512232668,,1039.0
B,L,"[2, 2]",1.0,2.0,0.3631892204284668,1.8709261417388916,0.5054749574150841,173.0,1040.0
B,L,"[2, 1]",1.0,3.0,0.4276299476623535,2.0979909896850586,0.6698894770007231,173.0,1041.0
Y,R,"[2, 2]",1.0,4.0,0.12892889976501465,1.6563620567321777,0.5265336778302827,173.0,1042.0
Y,R,"[2, 3]",1.0,5.0,0.20267581939697266,1.6903479099273682,0.4835095144014619,173.0,1043.0
B,L,"[2, 2]",1.0,6.0,0.27581000328063965,1.98598313331604,0.7027205724900836,173.0,1044.0
,,"(3, 3)",,,,,,173.0,
R,U,"[2, 3]",1.0,1.0,0.291064977645874,2.3874411582946777,0.5236228267181973,,1045.0
B,L,"[2, 2]",1.0,2.0,0.2646660804748535,1.5792088508605957,0.31976445856180513,174.0,1046.0
B,L,"[2, 1]",1.0,3.0,0.27419400215148926,1.6096570491790771,0.32942789545213674,174.0,1047.0
Y,R,"[2, 2]",1.0,4.0,0.20812392234802246,1.7154459953308105,0.5115041234546387,174.0,1048.0
Y,R,"[2, 3]",1.0,5.0,0.24057483673095703,1.5600872039794922,0.3217712283583407,174.0,1049.0
B,L,"[2, 2]",1.0,6.0,0.2528557777404785,1.5435190200805664,0.2820168224647917,174.0,1050.0
,,"(3, 3)",,,,,,174.0,
R,U,"[2, 3]",1.0,1.0,0.32100510597229004,2.3691020011901855,0.3343289399137429,,1051.0
B,L,"[2, 2]",1.0,2.0,0.3063170909881592,2.0018210411071777,0.6858236623395284,175.0,1052.0
B,L,"[2, 1]",1.0,3.0,0.16859912872314453,1.759606122970581,0.5789938948806561,175.0,1053.0
Y,R,"[2, 2]",1.0,4.0,0.2036290168762207,1.8849830627441406,0.6806022313721212,175.0,1054.0
Y,R,"[2, 3]",1.0,5.0,0.17040395736694336,1.6645622253417969,0.47858073611560625,175.0,1055.0
B,L,"[2, 2]",1.0,6.0,0.26369595527648926,1.9847609996795654,0.7298024925459552,175.0,1056.0
,,"(3, 3)",,,,,,175.0,
R,U,"[2, 3]",1.0,1.0,0.17130017280578613,1.9218361377716064,0.26883575591991943,,1057.0
B,L,"[2, 2]",1.0,2.0,0.28302001953125,1.8227460384368896,0.5246338344919457,176.0,1058.0
B,L,"[2, 1]",1.0,3.0,0.19939303398132324,1.8297030925750732,0.6376059754930903,176.0,1059.0
Y,R,"[2, 2]",1.0,4.0,0.2370891571044922,1.9104840755462646,0.6815123464525825,176.0,1060.0
Y,R,"[2, 3]",1.0,5.0,0.20282387733459473,1.6283490657806396,0.4099960819746535,176.0,1061.0
B,L,"[2, 2]",1.0,6.0,0.23255395889282227,1.7010650634765625,0.46118488592197826,176.0,1062.0
,,"(3, 3)",,,,,,176.0,
R,U,"[2, 3]",1.0,1.0,0.24336504936218262,2.297758102416992,0.34258833338343797,,1063.0
B,L,"[2, 2]",1.0,2.0,0.311190128326416,1.8718140125274658,0.5642263084432424,177.0,1064.0
B,L,"[2, 1]",1.0,3.0,0.22519207000732422,1.5494239330291748,0.3137919954392871,177.0,1065.0
Y,R,"[2, 2]",1.0,4.0,0.2418069839477539,1.978327989578247,0.7249736828377893,177.0,1066.0
Y,R,"[2, 3]",1.0,5.0,0.19116497039794922,1.6590499877929688,0.46748781135354844,177.0,1067.0
B,L,"[2, 2]",-1.0,5.0,0.09071111679077148,5.557290077209473,0.32527160251072235,177.0,1068.0
,,"(3, 3)",,,,,,177.0,
R,U,"[2, 3]",1.0,1.0,0.2186119556427002,2.419447898864746,0.4611664827802682,,1069.0
B,L,"[2, 2]",1.0,2.0,0.23309707641601562,1.5773489475250244,0.3554268391739567,178.0,1070.0
B,L,"[2, 1]",1.0,3.0,0.266848087310791,1.755730152130127,0.4776324527913771,178.0,1071.0
Y,R,"[2, 2]",1.0,4.0,0.23506402969360352,1.5309031009674072,0.3088630672013149,178.0,1072.0
Y,R,"[2, 3]",1.0,5.0,0.306657075881958,1.8011078834533691,0.4929546926897271,178.0,1073.0
B,L,"[2, 2]",1.0,6.0,0.22971391677856445,1.718203067779541,0.4946605720292484,178.0,1074.0
,,"(3, 3)",,,,,,178.0,
R,U,"[2, 3]",1.0,1.0,0.258991003036499,2.234846830368042,0.4795651781451434,,1075.0
B,L,"[2, 2]",1.0,2.0,0.2592899799346924,1.5718941688537598,0.301668546438404,179.0,1076.0
B,L,"[2, 1]",1.0,3.0,0.2600688934326172,1.6401309967041016,0.375094879960402,179.0,1077.0
Y,R,"[2, 2]",1.0,4.0,0.24635696411132812,1.725395917892456,0.48364350679613194,179.0,1078.0
Y,R,"[2, 3]",1.0,5.0,0.23199701309204102,1.8039629459381104,0.5708659590852463,179.0,1079.0
