button_choice,action_choice,coordinate_choice,reward,cumulative_reward,rt,total_trial_time,iti,block_n,trial_n
R,U,"[2, 3]",-1.0,-1.0,0.842897891998291,2.467982053756714,0.6029891014386131,0.0,1.0
G,D,"[3, 3]",0.0,-1.0,0.8709390163421631,2.294177770614624,0.41481889938751065,0.0,2.0
B,L,"[3, 2]",1.0,0.0,0.41001200675964355,2.1502468585968018,0.7313425589401447,0.0,3.0
Y,R,"[3, 3]",0.0,0.0,0.4073300361633301,1.7266809940338135,0.3073437494692126,0.0,4.0
B,L,"[3, 2]",0.0,0.0,0.6216590404510498,2.311532974243164,0.6842913468369101,0.0,5.0
G,D,"[4, 2]",-1.0,-1.0,0.4581890106201172,1.8192508220672607,0.35274869457993463,0.0,6.0
,,"(3, 3)",,,,,,0.0,
B,L,"[3, 2]",-2.0,0.0,1.6838040351867676,7.953740119934082,0.6206868742082017,,7.0
G,D,"[4, 2]",-1.0,-1.0,0.3719470500946045,1.7157950401306152,0.33606998179479514,1.0,8.0
Y,R,"[4, 3]",-1.0,-2.0,0.29717016220092773,1.8371851444244385,0.5395461976781817,1.0,9.0
R,U,"[3, 3]",0.0,-2.0,0.16683197021484375,1.5719079971313477,0.39448015946757187,1.0,10.0
B,L,"[3, 2]",0.0,-2.0,0.22409892082214355,1.6184871196746826,0.3960483057166352,1.0,11.0
G,D,"[4, 2]",0.0,-2.0,0.6558120250701904,2.382150173187256,0.7109777338494074,1.0,12.0
,,"(3, 3)",,,,,,1.0,
R,U,"[2, 3]",-1.0,-1.0,0.549232006072998,3.650038957595825,0.6107462549568016,,13.0
B,L,"[2, 2]",1.0,0.0,0.36315298080444336,1.778597116470337,0.40638301256676335,2.0,14.0
Y,R,"[2, 3]",0.0,0.0,0.17711186408996582,1.6664841175079346,0.48906552901887784,2.0,15.0
B,L,"[2, 2]",0.0,0.0,0.16216015815734863,1.5657191276550293,0.40464432493913766,2.0,16.0
Y,R,"[2, 3]",0.0,0.0,0.2683370113372803,1.5367341041564941,0.27479252992949027,2.0,17.0
B,L,"[2, 2]",0.0,0.0,0.7368288040161133,2.026793956756592,0.30160894062306143,2.0,18.0
,,"(3, 3)",,,,,,2.0,
R,U,"[2, 3]",-1.0,-1.0,0.8814318180084229,3.5291788578033447,0.6137718548992002,,19.0
G,D,"[3, 3]",0.0,-1.0,0.16308903694152832,1.7831709384918213,0.6136845793976606,3.0,20.0
Y,R,"[3, 4]",-1.0,-2.0,0.14980101585388184,1.7444210052490234,0.5915049768573382,3.0,21.0
B,L,"[3, 3]",0.0,-2.0,0.14737606048583984,1.4328060150146484,0.2914689611798531,3.0,22.0
R,U,"[2, 3]",0.0,-2.0,0.19304800033569336,1.75919508934021,0.5671136414666511,3.0,23.0
G,D,"[3, 3]",0.0,-2.0,0.46244001388549805,2.2024800777435303,0.7362099370752351,3.0,24.0
,,"(3, 3)",,,,,,3.0,
R,U,"[2, 3]",-1.0,-1.0,0.6681559085845947,3.5824649333953857,0.7022205711783908,,25.0
B,L,"[2, 2]",1.0,0.0,0.19201016426086426,1.737285852432251,0.5397089884018202,4.0,26.0
Y,R,"[2, 3]",0.0,0.0,0.18057703971862793,1.6663570404052734,0.48991606099789253,4.0,27.0
B,L,"[2, 2]",0.0,0.0,0.13396096229553223,1.7427010536193848,0.6159025412484755,4.0,28.0
Y,R,"[2, 3]",0.0,0.0,0.2578730583190918,1.5523319244384766,0.2855873893457071,4.0,29.0
B,L,"[2, 2]",0.0,0.0,0.3707890510559082,1.7151179313659668,0.3342129708577084,4.0,30.0
,,"(3, 3)",,,,,,4.0,
B,L,"[3, 2]",-2.0,0.0,1.3194608688354492,3.6144871711730957,0.36558356944707543,,31.0
B,L,"[3, 1]",1.0,1.0,0.2793569564819336,1.9993441104888916,0.6982631596808663,5.0,32.0
Y,R,"[3, 2]",0.0,1.0,0.1652820110321045,1.6032660007476807,0.43525631624417654,5.0,33.0
G,D,"[4, 2]",-1.0,0.0,0.22029805183410645,1.486964225769043,0.25606453906073723,5.0,34.0
R,U,"[3, 2]",0.0,0.0,0.41294193267822266,2.0739340782165527,0.6631577638957769,5.0,35.0
B,L,"[3, 1]",0.0,0.0,0.18265795707702637,1.500391960144043,0.3141243853386765,5.0,36.0
,,"(3, 3)",,,,,,5.0,
B,L,"[3, 2]",1.0,1.0,0.30649614334106445,3.3838818073272705,0.5983522360022488,,37.0
B,L,"[3, 1]",1.0,2.0,0.1832740306854248,1.587033987045288,0.38580440274340877,6.0,38.0
B,L,"[3, 0]",0.0,2.0,0.20001602172851562,1.4750220775604248,0.26125451818846174,6.0,39.0
B,L,"[3, 0]",0.0,2.0,0.19148802757263184,1.7168231010437012,0.5283037321889739,6.0,40.0
B,L,"[3, 0]",0.0,2.0,0.14754700660705566,1.41019606590271,0.2723165863284508,6.0,41.0
B,L,"[3, 0]",0.0,2.0,0.19090604782104492,1.599998950958252,0.40579171535223973,6.0,42.0
,,"(3, 3)",,,,,,6.0,
B,L,"[3, 2]",1.0,1.0,0.3525259494781494,3.852681875228882,0.508880972466138,,43.0
B,L,"[3, 1]",1.0,2.0,0.1608119010925293,1.6147470474243164,0.4575809605808094,7.0,44.0
B,L,"[3, 0]",0.0,2.0,0.14730286598205566,1.5335149765014648,0.39116866606542283,7.0,45.0
B,L,"[3, 0]",-1.0,2.0,0.08589386940002441,5.704031944274902,0.49653811891800687,7.0,46.0
B,L,"[3, 0]",0.0,2.0,0.1829538345336914,1.5547230243682861,0.36811777981226035,7.0,47.0
B,L,"[3, 0]",0.0,2.0,0.23797607421875,1.7692010402679443,0.5375940039363442,7.0,48.0
,,"(3, 3)",,,,,,7.0,
B,L,"[3, 2]",1.0,1.0,0.8704750537872314,3.584735155105591,0.37337403885460124,,49.0
B,L,"[3, 1]",1.0,2.0,0.21585917472839355,1.5813748836517334,0.3551534424939601,8.0,50.0
B,L,"[3, 0]",0.0,2.0,0.1954331398010254,1.8485538959503174,0.6534173191625964,8.0,51.0
B,L,"[3, 0]",0.0,2.0,0.16385602951049805,1.669600009918213,0.5070949386397163,8.0,52.0
B,L,"[3, 0]",-1.0,2.0,0.016220808029174805,5.808682918548584,0.66695764397219,8.0,53.0
B,L,"[3, 0]",0.0,2.0,0.19006800651550293,1.912416934967041,0.7129824580201374,8.0,54.0
,,"(3, 3)",,,,,,8.0,
B,L,"[3, 2]",1.0,1.0,0.3136930465698242,3.5163261890411377,0.6966699949314358,,55.0
B,L,"[3, 1]",1.0,2.0,0.1674799919128418,1.715881109237671,0.5297412542476749,9.0,56.0
B,L,"[3, 0]",0.0,2.0,0.1739368438720703,1.5912790298461914,0.4048949744392003,9.0,57.0
Y,R,"[3, 1]",0.0,2.0,0.1886730194091797,1.8124229907989502,0.6176047500417067,9.0,58.0
B,L,"[3, 0]",0.0,2.0,0.40789294242858887,2.0596060752868652,0.644034902267826,9.0,59.0
Y,R,"[3, 1]",0.0,2.0,0.18481898307800293,1.6696350574493408,0.4974332472237992,9.0,60.0
,,"(3, 3)",,,,,,9.0,
B,L,"[3, 2]",1.0,1.0,0.6079559326171875,3.051609992980957,0.4144191051496327,,61.0
B,L,"[3, 1]",1.0,2.0,0.169450044631958,1.6900620460510254,0.5036522614624843,10.0,62.0
R,U,"[2, 1]",1.0,3.0,0.1625521183013916,1.723405122756958,0.559912955569006,10.0,63.0
R,U,"[1, 1]",-1.0,2.0,0.19857287406921387,1.8665499687194824,0.6590825034190594,10.0,64.0
B,L,"[1, 0]",0.0,2.0,0.2598578929901123,1.5172641277313232,0.25955455001599004,10.0,65.0
Y,R,"[1, 1]",0.0,2.0,0.26294898986816406,1.7957711219787598,0.5379217049870756,10.0,66.0
,,"(3, 3)",,,,,,10.0,
B,L,"[3, 2]",1.0,1.0,0.34305596351623535,2.9233551025390625,0.37720310282221425,,67.0
B,L,"[3, 1]",1.0,2.0,0.18434810638427734,1.663301944732666,0.47333061313230107,11.0,68.0
R,U,"[2, 1]",1.0,3.0,0.16576790809631348,1.5622670650482178,0.3853884484603861,11.0,69.0
G,D,"[3, 1]",0.0,3.0,0.1999680995941162,1.5805230140686035,0.38234642343471226,11.0,70.0
B,L,"[3, 0]",0.0,3.0,0.20365500450134277,1.5053861141204834,0.3038436618575197,11.0,71.0
B,L,"[3, 0]",0.0,3.0,0.2355360984802246,1.8336210250854492,0.6036240428130764,11.0,72.0
,,"(3, 3)",,,,,,11.0,
B,L,"[3, 2]",1.0,1.0,0.4792819023132324,3.246556043624878,0.682699311350947,,73.0
B,L,"[3, 1]",-1.0,1.0,0.061701059341430664,5.670534133911133,0.4691313169613756,12.0,74.0
B,L,"[3, 0]",0.0,1.0,0.20837712287902832,1.5905590057373047,0.37627335388286076,12.0,75.0
R,U,"[2, 0]",0.0,1.0,0.15494394302368164,1.4861822128295898,0.34530471205832436,12.0,76.0
Y,R,"[2, 1]",1.0,2.0,0.3806009292602539,1.912950038909912,0.5245390923050164,12.0,77.0
Y,R,"[2, 2]",1.0,3.0,0.17017507553100586,1.7897109985351562,0.6141378621104208,12.0,78.0
,,"(3, 3)",,,,,,12.0,
B,L,"[3, 2]",1.0,1.0,0.3616218566894531,3.593479871749878,0.6737937716486827,,79.0
B,L,"[3, 1]",1.0,2.0,0.1585521697998047,1.6702990531921387,0.5102197484744297,13.0,80.0
R,U,"[2, 1]",1.0,3.0,0.16152095794677734,1.649488925933838,0.49289256140272397,13.0,81.0
R,U,"[1, 1]",-1.0,2.0,0.14555692672729492,1.515449047088623,0.35828583355984533,13.0,82.0
Y,R,"[1, 2]",1.0,3.0,0.19926714897155762,1.621088981628418,0.41246436885883847,13.0,83.0
Y,R,"[1, 3]",1.0,4.0,0.14742302894592285,1.6505489349365234,0.4793901038709172,13.0,84.0
,,"(3, 3)",,,,,,13.0,
B,L,"[3, 2]",1.0,1.0,0.2853729724884033,3.3696370124816895,0.7153770555404854,,85.0
B,L,"[3, 1]",1.0,2.0,0.15116286277770996,1.5349609851837158,0.36790328830319724,14.0,86.0
R,U,"[2, 1]",1.0,3.0,0.18867897987365723,1.7280991077423096,0.545549989461142,14.0,87.0
Y,R,"[2, 2]",1.0,4.0,0.13411808013916016,1.8679919242858887,0.7298439713589342,14.0,88.0
Y,R,"[2, 3]",-1.0,4.0,0.08986902236938477,5.718985080718994,0.48229713353604536,14.0,89.0
Y,R,"[2, 4]",-1.0,3.0,0.3237278461456299,1.941457986831665,0.6067360891481968,14.0,90.0
,,"(3, 3)",,,,,,14.0,
B,L,"[3, 2]",1.0,1.0,0.41053199768066406,3.2187840938568115,0.5090504700294443,,91.0
B,L,"[3, 1]",1.0,2.0,0.7126359939575195,2.222954034805298,0.5152928483378658,15.0,92.0
R,U,"[2, 1]",1.0,3.0,0.42426109313964844,1.7832059860229492,0.3487246971600937,15.0,93.0
Y,R,"[2, 2]",1.0,4.0,0.38304901123046875,2.1165590286254883,0.7314054606390349,15.0,94.0
Y,R,"[2, 3]",-1.0,3.0,0.1841750144958496,1.6500358581542969,0.44846672733464454,15.0,95.0
G,D,"[3, 3]",0.0,3.0,0.5661818981170654,1.9560258388519287,0.3878250734040186,15.0,96.0
,,"(3, 3)",,,,,,15.0,
B,L,"[3, 2]",1.0,1.0,0.2908308506011963,2.767512798309326,0.45543090452877827,,97.0
B,L,"[3, 1]",1.0,2.0,0.2665848731994629,1.854053020477295,0.5760814155629581,16.0,98.0
R,U,"[2, 1]",1.0,3.0,0.18269014358520508,1.588935136795044,0.3985386272909957,16.0,99.0
Y,R,"[2, 2]",1.0,4.0,0.3404531478881836,1.6208279132843018,0.26952414174698774,16.0,100.0
G,D,"[3, 2]",0.0,4.0,0.24978113174438477,1.5423660278320312,0.2951325274121405,16.0,101.0
Y,R,"[3, 3]",0.0,4.0,0.25741100311279297,1.7263920307159424,0.4714533252534846,16.0,102.0
,,"(3, 3)",,,,,,16.0,
B,L,"[3, 2]",1.0,1.0,0.6941139698028564,2.986577033996582,0.3418612323165607,,103.0
B,L,"[3, 1]",1.0,2.0,0.2686030864715576,1.7056269645690918,0.43082948929111076,17.0,104.0
R,U,"[2, 1]",1.0,3.0,0.1679821014404297,1.483341932296753,0.3142016266704889,17.0,105.0
R,U,"[1, 1]",-1.0,2.0,0.21564006805419922,1.5274498462677002,0.291685847183478,17.0,106.0
G,D,"[2, 1]",0.0,2.0,0.23485994338989258,1.9361388683319092,0.6941390837421861,17.0,107.0
Y,R,"[2, 2]",1.0,3.0,0.12374091148376465,1.429919958114624,0.30790572442551406,17.0,108.0
,,"(3, 3)",,,,,,17.0,
B,L,"[3, 2]",1.0,1.0,0.7797000408172607,3.5979321002960205,0.6393105687305362,,109.0
B,L,"[3, 1]",1.0,2.0,0.19820117950439453,1.5957679748535156,0.4019461402695656,18.0,110.0
R,U,"[2, 1]",1.0,3.0,0.2741069793701172,1.6129570007324219,0.3316496821447407,18.0,111.0
Y,R,"[2, 2]",1.0,4.0,0.281480073928833,1.7299880981445312,0.44502912307937426,18.0,112.0
Y,R,"[2, 3]",-1.0,3.0,0.2267899513244629,1.8658521175384521,0.6439959956852563,18.0,113.0
G,D,"[3, 3]",-1.0,3.0,0.016450166702270508,5.709612131118774,0.5710986233838041,18.0,114.0
,,"(3, 3)",,,,,,18.0,
B,L,"[3, 2]",1.0,1.0,0.6107680797576904,3.5773589611053467,0.7151382222964435,,115.0
B,L,"[3, 1]",1.0,2.0,0.14498114585876465,1.6505370140075684,0.4995215487531245,19.0,116.0
R,U,"[2, 1]",1.0,3.0,0.23081088066101074,1.4892640113830566,0.25579283475891995,19.0,117.0
Y,R,"[2, 2]",1.0,4.0,0.47475504875183105,2.115046977996826,0.6372990201367925,19.0,118.0
Y,R,"[2, 3]",-1.0,3.0,0.2819089889526367,1.7735180854797363,0.4776081859300328,19.0,119.0
G,D,"[3, 3]",0.0,3.0,0.20714306831359863,1.5028131008148193,0.29755856925377167,19.0,120.0
,,"(3, 3)",,,,,,19.0,
B,L,"[3, 2]",1.0,1.0,0.423907995223999,3.5807271003723145,0.5283054374100411,,121.0
B,L,"[3, 1]",1.0,2.0,0.27467894554138184,1.5921971797943115,0.3211412169543183,20.0,122.0
R,U,"[2, 1]",1.0,3.0,0.27168989181518555,1.7457270622253418,0.4833219501731601,20.0,123.0
G,D,"[3, 1]",0.0,3.0,0.22256708145141602,1.7566258907318115,0.5234755817190849,20.0,124.0
Y,R,"[3, 2]",0.0,3.0,0.21958494186401367,1.6901018619537354,0.48037228834111817,20.0,125.0
B,L,"[3, 1]",0.0,3.0,0.23859786987304688,1.6848108768463135,0.4321975302414114,20.0,126.0
,,"(3, 3)",,,,,,20.0,
B,L,"[3, 2]",1.0,1.0,0.4000520706176758,3.2172739505767822,0.4998529994803721,,127.0
B,L,"[3, 1]",1.0,2.0,0.1655890941619873,1.4666740894317627,0.3001305302132816,21.0,128.0
R,U,"[2, 1]",1.0,3.0,0.2369229793548584,1.6648528575897217,0.41502460357671417,21.0,129.0
Y,R,"[2, 2]",1.0,4.0,0.32010602951049805,1.719404935836792,0.3847938798728748,21.0,130.0
G,D,"[3, 2]",0.0,4.0,0.4403829574584961,1.7737140655517578,0.3253675668949326,21.0,131.0
R,U,"[2, 2]",0.0,4.0,0.47065305709838867,2.133039951324463,0.6582411931508685,21.0,132.0
,,"(3, 3)",,,,,,21.0,
B,L,"[3, 2]",1.0,1.0,0.532926082611084,3.0756869316101074,0.7013625692998505,,133.0
B,L,"[3, 1]",1.0,2.0,0.17533087730407715,1.5900909900665283,0.4080559913188771,22.0,134.0
R,U,"[2, 1]",1.0,3.0,0.24794507026672363,1.8621959686279297,0.6202749531555443,22.0,135.0
Y,R,"[2, 2]",1.0,4.0,0.17293214797973633,1.6804230213165283,0.5011707080810881,22.0,136.0
Y,R,"[2, 3]",-1.0,3.0,0.19867992401123047,1.592648983001709,0.377408877449045,22.0,137.0
G,D,"[3, 3]",0.0,3.0,0.21532511711120605,1.7833240032196045,0.5776934855464956,22.0,138.0
,,"(3, 3)",,,,,,22.0,
B,L,"[3, 2]",1.0,1.0,0.33417701721191406,2.9266839027404785,0.40475142455986995,,139.0
B,L,"[3, 1]",1.0,2.0,0.2716681957244873,1.635883092880249,0.3576927776843559,23.0,140.0
R,U,"[2, 1]",1.0,3.0,0.1372208595275879,1.5992660522460938,0.4734900131413742,23.0,141.0
Y,R,"[2, 2]",1.0,4.0,0.2801837921142578,1.9688198566436768,0.6922799207976154,23.0,142.0
R,U,"[1, 2]",1.0,5.0,0.22038793563842773,1.5470738410949707,0.32344990382579564,23.0,143.0
B,L,"[1, 1]",-1.0,4.0,0.27844905853271484,1.742548942565918,0.4660404418891421,23.0,144.0
,,"(3, 3)",,,,,,23.0,
B,L,"[3, 2]",1.0,1.0,0.5240919589996338,3.541088104248047,0.5910222249296466,,145.0
B,L,"[3, 1]",1.0,2.0,0.14297795295715332,1.837156057357788,0.6948490917518413,24.0,146.0
R,U,"[2, 1]",-1.0,2.0,0.07332491874694824,5.686999082565308,0.4993433264643601,24.0,147.0
R,U,"[1, 1]",-1.0,1.0,0.24363493919372559,1.53497314453125,0.28481810443904987,24.0,148.0
Y,R,"[1, 2]",1.0,2.0,0.4743819236755371,1.965069055557251,0.48321870607342193,24.0,149.0
R,U,"[0, 2]",0.0,2.0,0.9763641357421875,2.5683658123016357,0.5852055039846326,24.0,150.0
,,"(3, 3)",,,,,,24.0,
B,L,"[3, 2]",1.0,1.0,0.37444519996643066,3.0508859157562256,0.5698719445592938,,151.0
B,L,"[3, 1]",1.0,2.0,0.22266888618469238,1.8728609085083008,0.6428930737854472,25.0,152.0
R,U,"[2, 1]",1.0,3.0,0.32100582122802734,1.680699110031128,0.3577133586575081,25.0,153.0
Y,R,"[2, 2]",1.0,4.0,0.3046121597290039,1.7888290882110596,0.48008027281773064,25.0,154.0
R,U,"[1, 2]",1.0,5.0,0.2417280673980713,1.9848110675811768,0.7315640674791857,25.0,155.0
Y,R,"[1, 3]",1.0,6.0,0.4732248783111572,1.8516449928283691,0.367256048998387,25.0,156.0
,,"(3, 3)",,,,,,25.0,
B,L,"[3, 2]",1.0,1.0,0.5857391357421875,3.401204824447632,0.5185284153878236,,157.0
B,L,"[3, 1]",1.0,2.0,0.1941828727722168,1.7012629508972168,0.5032588918258536,26.0,158.0
R,U,"[2, 1]",1.0,3.0,0.2351548671722412,1.699700117111206,0.4535761497104422,26.0,159.0
Y,R,"[2, 2]",1.0,4.0,0.25409889221191406,1.5488851070404053,0.28616771344713504,26.0,160.0
R,U,"[1, 2]",1.0,5.0,0.27460789680480957,1.6952569484710693,0.4148953867430964,26.0,161.0
Y,R,"[1, 3]",1.0,6.0,0.23773908615112305,1.7947399616241455,0.543120452362835,26.0,162.0
,,"(3, 3)",,,,,,26.0,
B,L,"[3, 2]",1.0,1.0,0.34612083435058594,3.210108995437622,0.38720771951098515,,163.0
B,L,"[3, 1]",1.0,2.0,0.17017412185668945,1.8545620441436768,0.6748383341611859,27.0,164.0
R,U,"[2, 1]",1.0,3.0,0.18994808197021484,1.9325029850006104,0.740983985016022,27.0,165.0
Y,R,"[2, 2]",1.0,4.0,0.17487001419067383,1.8512110710144043,0.6759187384056479,27.0,166.0
R,U,"[1, 2]",1.0,5.0,0.17075014114379883,1.6810839176177979,0.5242592353933504,27.0,167.0
Y,R,"[1, 3]",1.0,6.0,0.25424718856811523,1.698728084564209,0.4565988446593761,27.0,168.0
,,"(3, 3)",,,,,,27.0,
B,L,"[3, 2]",-2.0,0.0,1.4412939548492432,3.7363619804382324,0.39364932252341284,,169.0
B,L,"[3, 1]",1.0,1.0,0.26685595512390137,1.7985498905181885,0.52565312739112,28.0,170.0
R,U,"[2, 1]",1.0,2.0,0.2187938690185547,1.7641780376434326,0.5401304049949955,28.0,171.0
Y,R,"[2, 2]",1.0,3.0,0.21212291717529297,1.6944408416748047,0.4845901998960752,28.0,172.0
R,U,"[1, 2]",1.0,4.0,0.2040879726409912,1.6039340496063232,0.38888471647782313,28.0,173.0
Y,R,"[1, 3]",1.0,5.0,0.2140200138092041,1.9253718852996826,0.714283429645755,28.0,174.0
,,"(3, 3)",,,,,,28.0,
B,L,"[3, 2]",1.0,1.0,0.9171650409698486,3.5646309852600098,0.6796185696561544,,175.0
B,L,"[3, 1]",1.0,2.0,0.10914993286132812,1.5009360313415527,0.38111380384802884,29.0,176.0
R,U,"[2, 1]",1.0,3.0,0.3180692195892334,2.0138227939605713,0.6948656749376124,29.0,177.0
Y,R,"[2, 2]",1.0,4.0,0.15393590927124023,1.8893299102783203,0.7343613440173943,29.0,178.0
R,U,"[1, 2]",1.0,5.0,0.19287896156311035,1.7620470523834229,0.5634922096124568,29.0,179.0
Y,R,"[1, 3]",1.0,6.0,0.2401580810546875,1.5921871662139893,0.3397175620969217,29.0,180.0
,,"(3, 3)",,,,,,29.0,
B,L,"[3, 2]",1.0,1.0,0.7857251167297363,3.2648539543151855,0.25217719768374114,,181.0
B,L,"[3, 1]",1.0,2.0,0.27133798599243164,1.7250969409942627,0.4427406219670347,30.0,182.0
R,U,"[2, 1]",-1.0,2.0,0.08671283721923828,5.93400502204895,0.7227396102908061,30.0,183.0
Y,R,"[2, 2]",1.0,3.0,0.3842470645904541,1.7266089916229248,0.33194006616413124,30.0,184.0
R,U,"[1, 2]",1.0,4.0,0.26096010208129883,1.8147430419921875,0.5454335083405495,30.0,185.0
Y,R,"[1, 3]",1.0,5.0,0.2319810390472412,1.6785759925842285,0.4563099988746586,30.0,186.0
,,"(3, 3)",,,,,,30.0,
B,L,"[3, 2]",-2.0,0.0,1.1223359107971191,3.7364890575408936,0.3740425459879346,,187.0
B,L,"[3, 1]",1.0,1.0,0.18328595161437988,1.5288960933685303,0.3521673112658329,31.0,188.0
R,U,"[2, 1]",1.0,2.0,0.23380184173583984,1.4822680950164795,0.2502909340709087,31.0,189.0
Y,R,"[2, 2]",1.0,3.0,0.2434220314025879,1.5671560764312744,0.3168129167563777,31.0,190.0
R,U,"[1, 2]",1.0,4.0,0.19269394874572754,1.6642601490020752,0.46346160192828334,31.0,191.0
Y,R,"[1, 3]",-1.0,4.0,0.022259950637817383,5.668152093887329,0.5123238263315031,31.0,192.0
,,"(3, 3)",,,,,,31.0,
B,L,"[3, 2]",1.0,1.0,0.9689459800720215,3.620145082473755,0.4976921395620798,,193.0
B,L,"[3, 1]",1.0,2.0,0.2344040870666504,1.6843409538269043,0.4479322267310878,32.0,194.0
R,U,"[2, 1]",1.0,3.0,0.23032188415527344,1.6220269203186035,0.3859646987983054,32.0,195.0
Y,R,"[2, 2]",1.0,4.0,0.2357800006866455,1.9125101566314697,0.664429875604153,32.0,196.0
R,U,"[1, 2]",1.0,5.0,0.2086319923400879,1.7139599323272705,0.4944496454814587,32.0,197.0
Y,R,"[1, 3]",1.0,6.0,0.1306591033935547,1.843127965927124,0.7202261795309122,32.0,198.0
,,"(3, 3)",,,,,,32.0,
B,L,"[3, 2]",-2.0,0.0,1.015199899673462,3.7487871646881104,0.5678508341369481,,199.0
B,L,"[3, 1]",1.0,1.0,0.16550803184509277,1.685431957244873,0.5026442757581455,33.0,200.0
R,U,"[2, 1]",1.0,2.0,0.16214299201965332,1.5095620155334473,0.345141513713025,33.0,201.0
Y,R,"[2, 2]",1.0,3.0,0.19311308860778809,1.481597900390625,0.2933088958283829,33.0,202.0
R,U,"[1, 2]",1.0,4.0,0.22099804878234863,1.638746976852417,0.4147610754394301,33.0,203.0
Y,R,"[1, 3]",1.0,5.0,0.16078495979309082,1.4455389976501465,0.2767735762844886,33.0,204.0
,,"(3, 3)",,,,,,33.0,
B,L,"[3, 2]",1.0,1.0,0.4152791500091553,3.1293909549713135,0.6382729327540471,,205.0
B,L,"[3, 1]",1.0,2.0,0.1491999626159668,1.5176091194152832,0.37238043291158746,34.0,206.0
R,U,"[2, 1]",1.0,3.0,0.20441389083862305,1.8441951274871826,0.632608779152917,34.0,207.0
Y,R,"[2, 2]",1.0,4.0,0.17743206024169922,1.8732690811157227,0.6884567295579054,34.0,208.0
R,U,"[1, 2]",1.0,5.0,0.14185690879821777,1.8755970001220703,0.730379883916175,34.0,209.0
Y,R,"[1, 3]",1.0,6.0,0.1602010726928711,1.7427020072937012,0.5727173932437684,34.0,210.0
,,"(3, 3)",,,,,,34.0,
B,L,"[3, 2]",1.0,1.0,0.6702098846435547,2.728571891784668,0.46749492021815864,,211.0
B,L,"[3, 1]",1.0,2.0,0.24551081657409668,1.7271878719329834,0.4776528484109809,35.0,212.0
R,U,"[2, 1]",1.0,3.0,0.21677184104919434,1.5965049266815186,0.3740426424429264,35.0,213.0
Y,R,"[2, 2]",1.0,4.0,0.2639000415802002,1.814924955368042,0.5549913389515209,35.0,214.0
R,U,"[1, 2]",1.0,5.0,0.22306013107299805,1.7426750659942627,0.5140462179351291,35.0,215.0
Y,R,"[1, 3]",1.0,6.0,0.1871340274810791,1.819166898727417,0.6161569242901842,35.0,216.0
,,"(3, 3)",,,,,,35.0,
B,L,"[3, 2]",1.0,1.0,0.5746479034423828,2.4410629272460938,0.27374321135543683,,217.0
B,L,"[3, 1]",1.0,2.0,0.2890040874481201,1.7667410373687744,0.47346768096118097,36.0,218.0
R,U,"[2, 1]",1.0,3.0,0.19149994850158691,1.8794639110565186,0.6857764969002937,36.0,219.0
Y,R,"[2, 2]",1.0,4.0,0.14593815803527832,1.804753065109253,0.6569908984254451,36.0,220.0
R,U,"[1, 2]",1.0,5.0,0.129957914352417,1.8217048645019531,0.6951116888901288,36.0,221.0
Y,R,"[1, 3]",1.0,6.0,0.19138216972351074,1.7940559387207031,0.6058825657202414,36.0,222.0
,,"(3, 3)",,,,,,36.0,
B,L,"[3, 2]",1.0,1.0,0.7732150554656982,3.1384129524230957,0.6934797890260862,,223.0
B,L,"[3, 1]",1.0,2.0,0.15511703491210938,1.5628769397735596,0.4231017247097289,37.0,224.0
G,D,"[4, 1]",-1.0,1.0,0.19311809539794922,1.7840940952301025,0.5738239532625047,37.0,225.0
R,U,"[3, 1]",0.0,1.0,0.25881099700927734,1.804121971130371,0.5443810091031396,37.0,226.0
Y,R,"[3, 2]",-1.0,1.0,0.09181594848632812,5.730854034423828,0.49128714448471067,37.0,227.0
Y,R,"[3, 3]",0.0,1.0,0.351315975189209,1.775710105895996,0.4334317390937102,37.0,228.0
,,"(3, 3)",,,,,,37.0,
B,L,"[3, 2]",1.0,1.0,0.7094631195068359,3.259568929672241,0.6925637327639403,,229.0
B,L,"[3, 1]",1.0,2.0,0.1961979866027832,1.5680148601531982,0.37741205595724236,38.0,230.0
R,U,"[2, 1]",1.0,3.0,0.3054330348968506,1.794076919555664,0.48788566724701976,38.0,231.0
Y,R,"[2, 2]",1.0,4.0,0.1722249984741211,1.6837561130523682,0.5046343327390959,38.0,232.0
R,U,"[1, 2]",1.0,5.0,0.18078207969665527,1.7532451152801514,0.5744276292204809,38.0,233.0
Y,R,"[1, 3]",1.0,6.0,0.24985694885253906,1.6466619968414307,0.40467956388483023,38.0,234.0
,,"(3, 3)",,,,,,38.0,
B,L,"[3, 2]",1.0,1.0,0.5275740623474121,2.959794044494629,0.3143086664415712,,235.0
B,L,"[3, 1]",1.0,2.0,0.24706006050109863,1.9888889789581299,0.7360718661518291,39.0,236.0
R,U,"[2, 1]",1.0,3.0,0.21578121185302734,1.6384961605072021,0.40805621796802827,39.0,237.0
Y,R,"[2, 2]",1.0,4.0,0.14444518089294434,1.8116159439086914,0.6693248953780069,39.0,238.0
R,U,"[1, 2]",1.0,5.0,0.1658921241760254,1.4854888916015625,0.3219713140505068,39.0,239.0
Y,R,"[1, 3]",1.0,6.0,0.28641295433044434,1.965825080871582,0.6704897304099391,39.0,240.0
,,"(3, 3)",,,,,,39.0,
B,L,"[3, 2]",1.0,1.0,0.8984529972076416,2.730189085006714,0.31772257429752104,,241.0
B,L,"[3, 1]",1.0,2.0,0.18718600273132324,1.8368430137634277,0.6373875232557317,40.0,242.0
R,U,"[2, 1]",1.0,3.0,0.18290090560913086,1.9096949100494385,0.7136241216999515,40.0,243.0
Y,R,"[2, 2]",1.0,4.0,0.14921212196350098,1.445958137512207,0.2935180271652165,40.0,244.0
R,U,"[1, 2]",1.0,5.0,0.2879040241241455,1.8882880210876465,0.5979360174378159,40.0,245.0
Y,R,"[1, 3]",1.0,6.0,0.2149209976196289,1.6585721969604492,0.42348295041360007,40.0,246.0
,,"(3, 3)",,,,,,40.0,
B,L,"[3, 2]",1.0,1.0,0.3705739974975586,4.147753953933716,0.45439677324686256,,247.0
B,L,"[3, 1]",1.0,2.0,0.2946639060974121,1.6498539447784424,0.35432446378601035,41.0,248.0
R,U,"[2, 1]",1.0,3.0,0.23560881614685059,1.8065781593322754,0.5772601520918841,41.0,249.0
Y,R,"[2, 2]",1.0,4.0,0.15559983253479004,1.749413013458252,0.5935263348992803,41.0,250.0
R,U,"[1, 2]",1.0,5.0,0.1709890365600586,1.7720310688018799,0.5988600478282478,41.0,251.0
Y,R,"[1, 3]",1.0,6.0,0.2172560691833496,1.7216541767120361,0.4870750974297765,41.0,252.0
,,"(3, 3)",,,,,,41.0,
B,L,"[3, 2]",1.0,1.0,0.8088769912719727,3.5027589797973633,0.6562587745629713,,253.0
B,L,"[3, 1]",1.0,2.0,0.15352106094360352,1.5802078247070312,0.43667796754758925,42.0,254.0
R,U,"[2, 1]",-1.0,2.0,0.08420801162719727,5.49737286567688,0.28421413451394956,42.0,255.0
R,U,"[1, 1]",-1.0,1.0,0.2611539363861084,1.7330410480499268,0.45046324703897406,42.0,256.0
R,U,"[0, 1]",0.0,1.0,0.1706399917602539,1.4766948223114014,0.29392324054317626,42.0,257.0
Y,R,"[0, 2]",0.0,1.0,0.27812695503234863,1.6359658241271973,0.3631836618414546,42.0,258.0
,,"(3, 3)",,,,,,42.0,
B,L,"[3, 2]",1.0,1.0,0.3538949489593506,2.926766872406006,0.5897934368519218,,259.0
B,L,"[3, 1]",1.0,2.0,0.1404869556427002,1.4717390537261963,0.3284616637178232,43.0,260.0
R,U,"[2, 1]",1.0,3.0,0.21756410598754883,1.9120159149169922,0.7073898144345594,43.0,261.0
Y,R,"[2, 2]",1.0,4.0,0.18185091018676758,1.8880338668823242,0.6955390574992051,43.0,262.0
R,U,"[1, 2]",1.0,5.0,0.16762304306030273,1.687263011932373,0.515790978061718,43.0,263.0
Y,R,"[1, 3]",1.0,6.0,0.21254491806030273,1.6066689491271973,0.389287806283269,43.0,264.0
,,"(3, 3)",,,,,,43.0,
B,L,"[3, 2]",1.0,1.0,0.39495110511779785,3.4369218349456787,0.5093564777738322,,265.0
B,L,"[3, 1]",1.0,2.0,0.18507885932922363,1.545705795288086,0.3720860112332376,44.0,266.0
R,U,"[2, 1]",1.0,3.0,0.19025707244873047,1.8010759353637695,0.6063972682384957,44.0,267.0
Y,R,"[2, 2]",1.0,4.0,0.18622994422912598,1.7607359886169434,0.583718518752901,44.0,268.0
R,U,"[1, 2]",-1.0,4.0,0.022835969924926758,5.493180990219116,0.34394246682779295,44.0,269.0
Y,R,"[1, 3]",1.0,5.0,0.515949010848999,1.998317003250122,0.47553739875926326,44.0,270.0
,,"(3, 3)",,,,,,44.0,
B,L,"[3, 2]",1.0,1.0,0.6997888088226318,2.4772210121154785,0.31964710869785157,,271.0
B,L,"[3, 1]",1.0,2.0,0.4614877700805664,2.084843158721924,0.6208977222632344,45.0,272.0
R,U,"[2, 1]",1.0,3.0,0.20614910125732422,1.588433027267456,0.3762994770204373,45.0,273.0
Y,R,"[2, 2]",1.0,4.0,0.26683998107910156,1.5404291152954102,0.283498765942938,45.0,274.0
Y,R,"[2, 3]",-1.0,3.0,0.29275989532470703,1.7156410217285156,0.41572616727621875,45.0,275.0
Y,R,"[2, 4]",-1.0,2.0,0.23320388793945312,1.9877231121063232,0.7365115732326377,45.0,276.0
,,"(3, 3)",,,,,,45.0,
B,L,"[3, 2]",1.0,1.0,0.381666898727417,2.100497007369995,0.33765688815570055,,277.0
B,L,"[3, 1]",1.0,2.0,0.19780707359313965,1.80942702293396,0.6135019277550202,46.0,278.0
R,U,"[2, 1]",1.0,3.0,0.18108606338500977,1.5627691745758057,0.376709536898479,46.0,279.0
Y,R,"[2, 2]",1.0,4.0,0.23798012733459473,1.6212170124053955,0.3977591823669478,46.0,280.0
R,U,"[1, 2]",1.0,5.0,0.18267297744750977,1.724303960800171,0.5385546822057179,46.0,281.0
Y,R,"[1, 3]",1.0,6.0,0.24285006523132324,1.7145509719848633,0.47010316524517487,46.0,282.0
,,"(3, 3)",,,,,,46.0,
B,L,"[3, 2]",1.0,1.0,0.5456881523132324,3.6933791637420654,0.5466456156497312,,283.0
B,L,"[3, 1]",1.0,2.0,0.1575160026550293,1.8620359897613525,0.6921016625569689,47.0,284.0
R,U,"[2, 1]",1.0,3.0,0.17149114608764648,1.5106840133666992,0.33658265697108203,47.0,285.0
Y,R,"[2, 2]",1.0,4.0,0.25740504264831543,1.8227989673614502,0.5590992782901787,47.0,286.0
R,U,"[1, 2]",1.0,5.0,0.17918086051940918,1.4508061408996582,0.27692967022019493,47.0,287.0
Y,R,"[1, 3]",1.0,6.0,0.2757749557495117,1.7901201248168945,0.5169084371457175,47.0,288.0
,,"(3, 3)",,,,,,47.0,
B,L,"[3, 2]",1.0,1.0,0.8944649696350098,3.263991117477417,0.6977942994785643,,289.0
B,L,"[3, 1]",1.0,2.0,0.1780681610107422,1.5259308815002441,0.3405625213945623,48.0,290.0
R,U,"[2, 1]",1.0,3.0,0.2744438648223877,1.556656837463379,0.28067699203998614,48.0,291.0
Y,R,"[2, 2]",1.0,4.0,0.2176220417022705,1.59409499168396,0.35825468990838294,48.0,292.0
R,U,"[1, 2]",1.0,5.0,0.2833070755004883,1.6752030849456787,0.38353804829645044,48.0,293.0
Y,R,"[1, 3]",1.0,6.0,0.23688507080078125,1.598757028579712,0.36553775087712725,48.0,294.0
,,"(3, 3)",,,,,,48.0,
B,L,"[3, 2]",1.0,1.0,0.8368799686431885,2.797532081604004,0.2798298655089392,,295.0
B,L,"[3, 1]",1.0,2.0,0.18704795837402344,1.619286060333252,0.4158463106856967,49.0,296.0
R,U,"[2, 1]",-1.0,2.0,0.017441987991333008,5.533414840698242,0.38291261601328824,49.0,297.0
R,U,"[1, 1]",-1.0,1.0,0.21963286399841309,1.921165943145752,0.6872638412575951,49.0,298.0
Y,R,"[1, 2]",1.0,2.0,0.24593782424926758,1.5525660514831543,0.29034627331604196,49.0,299.0
R,U,"[0, 2]",-2.0,2.0,1.010113000869751,2.4676690101623535,0.40793252462647384,49.0,300.0
,,"(3, 3)",,,,,,49.0,
G,D,"[4, 3]",-1.0,-1.0,0.9257090091705322,3.608525037765503,0.2658249665359519,,301.0
B,L,"[4, 2]",-1.0,-2.0,0.2437729835510254,1.9293498992919922,0.6778463646450026,50.0,302.0
R,U,"[3, 2]",1.0,-1.0,0.1500720977783203,1.453773021697998,0.29828272631438285,50.0,303.0
Y,R,"[3, 3]",0.0,-1.0,0.195296049118042,1.4834330081939697,0.2817347324636763,50.0,304.0
R,U,"[2, 3]",-1.0,-2.0,0.21618294715881348,1.600006103515625,0.3811980387126442,50.0,305.0
Y,R,"[2, 4]",-1.0,-3.0,0.4078350067138672,1.7043039798736572,0.2853092871751919,50.0,306.0
,,"(3, 3)",,,,,,50.0,
B,L,"[3, 2]",1.0,1.0,0.5767269134521484,2.8700830936431885,0.4548232766970227,,307.0
Y,R,"[3, 3]",0.0,1.0,0.44607996940612793,2.1012890338897705,0.6557662000047075,51.0,308.0
R,U,"[2, 3]",-1.0,0.0,0.20416593551635742,1.9574048519134521,0.7460266930433528,51.0,309.0
Y,R,"[2, 4]",-1.0,-1.0,0.21736788749694824,1.698171854019165,0.46087672771018207,51.0,310.0
B,L,"[2, 3]",0.0,-1.0,0.21344518661499023,1.7084288597106934,0.5024652174451214,51.0,311.0
B,L,"[2, 2]",1.0,0.0,0.7133510112762451,2.386018991470337,0.6546004194451753,51.0,312.0
,,"(3, 3)",,,,,,51.0,
B,L,"[3, 2]",1.0,1.0,0.33205604553222656,3.3457329273223877,0.7168176276329964,,313.0
B,L,"[3, 1]",1.0,2.0,0.20790481567382812,1.5086758136749268,0.2923242800074077,52.0,314.0
R,U,"[2, 1]",1.0,3.0,0.24595308303833008,1.8348779678344727,0.5933173678771353,52.0,315.0
Y,R,"[2, 2]",1.0,4.0,0.17350101470947266,1.794058084487915,0.620436367135666,52.0,316.0
R,U,"[1, 2]",1.0,5.0,0.22762513160705566,1.6304330825805664,0.4008720203080076,52.0,317.0
Y,R,"[1, 3]",1.0,6.0,0.29209089279174805,2.047814130783081,0.7479250927863129,52.0,318.0
,,"(3, 3)",,,,,,52.0,
B,L,"[3, 2]",1.0,1.0,0.31804704666137695,3.5947980880737305,0.5426244095171355,,319.0
B,L,"[3, 1]",1.0,2.0,0.22089600563049316,1.9057731628417969,0.6813070540285779,53.0,320.0
R,U,"[2, 1]",1.0,3.0,0.17699408531188965,1.5936388969421387,0.4083599141775037,53.0,321.0
Y,R,"[2, 2]",1.0,4.0,0.20261907577514648,1.926163911819458,0.7174730385012016,53.0,322.0
R,U,"[1, 2]",1.0,5.0,0.1463758945465088,1.8365201950073242,0.6872464927175153,53.0,323.0
Y,R,"[1, 3]",1.0,6.0,0.18907403945922852,1.6368088722229004,0.44065975674341235,53.0,324.0
,,"(3, 3)",,,,,,53.0,
B,L,"[3, 2]",1.0,1.0,0.32935595512390137,5.562696933746338,0.3196563026178155,,325.0
B,L,"[3, 1]",1.0,2.0,0.20693588256835938,1.7278800010681152,0.5138694641347019,54.0,326.0
R,U,"[2, 1]",1.0,3.0,0.17244696617126465,1.720020055770874,0.5334734589440393,54.0,327.0
Y,R,"[2, 2]",1.0,4.0,0.14490985870361328,1.7259869575500488,0.5761211559374844,54.0,328.0
R,U,"[1, 2]",1.0,5.0,0.18703293800354004,1.751952886581421,0.5612894873384514,54.0,329.0
Y,R,"[1, 3]",1.0,6.0,0.21404695510864258,1.5030019283294678,0.2977094046736175,54.0,330.0
,,"(3, 3)",,,,,,54.0,
B,L,"[3, 2]",1.0,1.0,0.3751230239868164,2.989126205444336,0.36983437950229103,,331.0
B,L,"[3, 1]",1.0,2.0,0.10794210433959961,1.7194018363952637,0.6054083672245151,55.0,332.0
R,U,"[2, 1]",1.0,3.0,0.17226696014404297,1.5727808475494385,0.3949603745237086,55.0,333.0
Y,R,"[2, 2]",1.0,4.0,0.17481017112731934,1.8729259967803955,0.7010805884904061,55.0,334.0
R,U,"[1, 2]",-1.0,4.0,0.05769085884094238,5.804304122924805,0.6049336980963931,55.0,335.0
Y,R,"[1, 3]",1.0,5.0,0.370344877243042,1.6525840759277344,0.2743036913000299,55.0,336.0
,,"(3, 3)",,,,,,55.0,
B,L,"[3, 2]",1.0,1.0,0.48920488357543945,3.0413060188293457,0.2654164850653641,,337.0
B,L,"[3, 1]",1.0,2.0,0.32906484603881836,1.7779080867767334,0.4430706060131828,56.0,338.0
R,U,"[2, 1]",1.0,3.0,0.2963528633117676,1.9022572040557861,0.611734120942714,56.0,339.0
Y,R,"[2, 2]",1.0,4.0,0.26146888732910156,1.613677978515625,0.358956923919236,56.0,340.0
R,U,"[1, 2]",1.0,5.0,0.3156859874725342,1.6008450984954834,0.27650708141487207,56.0,341.0
Y,R,"[1, 3]",1.0,6.0,0.4336669445037842,1.732470989227295,0.29201152482790826,56.0,342.0
,,"(3, 3)",,,,,,56.0,
G,D,"[4, 3]",-1.0,-1.0,0.7592699527740479,4.0047078132629395,0.2797079473999406,,343.0
R,U,"[3, 3]",0.0,-1.0,0.596574068069458,1.9280600547790527,0.3242562743319768,57.0,344.0
Y,R,"[3, 4]",-1.0,-2.0,0.17586493492126465,1.5542030334472656,0.3785313284797135,57.0,345.0
B,L,"[3, 3]",0.0,-2.0,0.24782419204711914,1.7310869693756104,0.4926889362680416,57.0,346.0
B,L,"[3, 2]",1.0,-1.0,0.1826620101928711,1.5569498538970947,0.3662270689126343,57.0,347.0
R,U,"[2, 2]",1.0,0.0,0.25577497482299805,1.7662270069122314,0.499017603043789,57.0,348.0
,,"(3, 3)",,,,,,57.0,
Y,R,"[3, 4]",-1.0,-1.0,0.3832859992980957,2.940018892288208,0.40570253212312435,,349.0
B,L,"[3, 3]",0.0,-1.0,0.19769287109375,1.8149399757385254,0.6201749601305737,58.0,350.0
R,U,"[2, 3]",-1.0,-2.0,0.1779940128326416,1.5059089660644531,0.326321580824425,58.0,351.0
G,D,"[3, 3]",0.0,-2.0,0.23396992683410645,1.6903140544891357,0.43338491714689586,58.0,352.0
B,L,"[3, 2]",1.0,-1.0,0.15896081924438477,1.6910829544067383,0.5240482104173856,58.0,353.0
R,U,"[2, 2]",1.0,0.0,0.34459614753723145,1.826211929321289,0.4836476089638346,58.0,354.0
,,"(3, 3)",,,,,,58.0,
B,L,"[3, 2]",1.0,1.0,0.44643187522888184,3.0114171504974365,0.5949677250503027,,355.0
B,L,"[3, 1]",1.0,2.0,0.16720104217529297,1.605478048324585,0.4336922326222895,59.0,356.0
R,U,"[2, 1]",1.0,3.0,0.22353601455688477,1.9612860679626465,0.7278407337266087,59.0,357.0
Y,R,"[2, 2]",1.0,4.0,0.2055528163909912,1.7539942264556885,0.5489058220728391,59.0,358.0
R,U,"[1, 2]",1.0,5.0,0.17979812622070312,1.6900739669799805,0.505662205036664,59.0,359.0
Y,R,"[1, 3]",1.0,6.0,0.21471905708312988,1.8943052291870117,0.6828093898012512,59.0,360.0
,,"(3, 3)",,,,,,59.0,
B,L,"[3, 2]",1.0,1.0,0.7328529357910156,3.4725959300994873,0.5219268169776203,,361.0
B,L,"[3, 1]",1.0,2.0,0.18364596366882324,1.5190179347991943,0.3245671668305001,60.0,362.0
R,U,"[2, 1]",1.0,3.0,0.21513700485229492,1.824779987335205,0.6156504208376177,60.0,363.0
Y,R,"[2, 2]",1.0,4.0,0.45471811294555664,1.7576961517333984,0.2904257441415438,60.0,364.0
R,U,"[1, 2]",1.0,5.0,0.23476696014404297,1.5193910598754883,0.2764214873227603,60.0,365.0
Y,R,"[1, 3]",1.0,6.0,0.3338780403137207,1.7951991558074951,0.4547045227816875,60.0,366.0
,,"(3, 3)",,,,,,60.0,
B,L,"[3, 2]",-2.0,0.0,1.4622690677642822,4.399692058563232,0.4709690771207452,,367.0
B,L,"[3, 1]",1.0,1.0,0.2313060760498047,1.6710131168365479,0.4418818824472028,61.0,368.0
R,U,"[2, 1]",1.0,2.0,0.1760578155517578,1.4610509872436523,0.2863779945204814,61.0,369.0
Y,R,"[2, 2]",1.0,3.0,0.26554417610168457,1.8045940399169922,0.5241125886325861,61.0,370.0
R,U,"[1, 2]",1.0,4.0,0.18043279647827148,1.7144291400909424,0.5385036522818355,61.0,371.0
Y,R,"[1, 3]",1.0,5.0,0.19373106956481934,1.5188720226287842,0.32401447050135535,61.0,372.0
,,"(3, 3)",,,,,,61.0,
B,L,"[3, 2]",1.0,1.0,0.6947908401489258,2.60634708404541,0.3803509967996805,,373.0
G,D,"[4, 2]",-1.0,0.0,0.20330095291137695,1.921079158782959,0.7010102444173942,62.0,374.0
R,U,"[3, 2]",0.0,0.0,0.12279605865478516,1.6741869449615479,0.5419818761390442,62.0,375.0
Y,R,"[3, 3]",0.0,0.0,0.1528921127319336,1.6923978328704834,0.5510515533881057,62.0,376.0
B,L,"[3, 2]",0.0,0.0,0.30628490447998047,1.6061129570007324,0.2906562788134533,62.0,377.0
B,L,"[3, 1]",1.0,1.0,0.17202520370483398,1.7729771137237549,0.5966317047646349,62.0,378.0
,,"(3, 3)",,,,,,62.0,
B,L,"[3, 2]",-2.0,0.0,1.7522988319396973,4.489844083786011,0.5531585117779825,,379.0
G,D,"[4, 2]",-1.0,-1.0,0.28408098220825195,1.57271409034729,0.27616878943269274,63.0,380.0
B,L,"[4, 1]",-1.0,-2.0,0.496567964553833,1.8101167678833008,0.31969395838536996,63.0,381.0
B,L,"[4, 0]",0.0,-2.0,0.22374987602233887,1.8160650730133057,0.585448208907283,63.0,382.0
B,L,"[4, 0]",0.0,-2.0,0.1722581386566162,1.6929409503936768,0.5116914921311169,63.0,383.0
B,L,"[4, 0]",0.0,-2.0,0.20001697540283203,1.4719409942626953,0.2837215626746934,63.0,384.0
,,"(3, 3)",,,,,,63.0,
B,L,"[3, 2]",-2.0,0.0,1.1275789737701416,3.8817100524902344,0.5818515224627676,,385.0
R,U,"[2, 2]",1.0,1.0,0.18301701545715332,1.8265409469604492,0.6253964317713705,64.0,386.0
Y,R,"[2, 3]",-1.0,0.0,0.2406599521636963,1.6746718883514404,0.4331169730135385,64.0,387.0
B,L,"[2, 2]",0.0,0.0,0.2398669719696045,1.9320061206817627,0.6815659522726986,64.0,388.0
R,U,"[1, 2]",1.0,1.0,0.21556401252746582,1.6394391059875488,0.40449591495897985,64.0,389.0
R,U,"[0, 2]",0.0,1.0,0.2731618881225586,1.8781170845031738,0.5991467988789989,64.0,390.0
,,"(3, 3)",,,,,,64.0,
B,L,"[3, 2]",1.0,1.0,0.37731313705444336,3.12410306930542,0.573484606557704,,391.0
B,L,"[3, 1]",1.0,2.0,0.16610503196716309,1.5426630973815918,0.36618696129757167,65.0,392.0
R,U,"[2, 1]",1.0,3.0,0.22702503204345703,1.8657560348510742,0.6316616292099463,65.0,393.0
Y,R,"[2, 2]",1.0,4.0,0.17750787734985352,1.8512098789215088,0.6664069270302291,65.0,394.0
R,U,"[1, 2]",1.0,5.0,0.2433152198791504,1.7184581756591797,0.46831896944920265,65.0,395.0
Y,R,"[1, 3]",1.0,6.0,0.6769781112670898,2.22652006149292,0.5445362209714664,65.0,396.0
,,"(3, 3)",,,,,,65.0,
Y,R,"[3, 4]",-2.0,0.0,1.4481158256530762,3.978732109069824,0.5732072558296917,,397.0
Y,R,"[3, 5]",-1.0,-1.0,0.1216127872467041,1.3808791637420654,0.2545383868251753,66.0,398.0
R,U,"[2, 5]",-1.0,-2.0,0.27138519287109375,1.6297810077667236,0.3508201595284623,66.0,399.0
Y,R,"[2, 6]",-1.0,-2.0,0.055262088775634766,5.559597015380859,0.36037601779366213,66.0,400.0
Y,R,"[2, 6]",0.0,-2.0,0.23300600051879883,1.9356598854064941,0.7124138518919565,66.0,401.0
B,L,"[2, 5]",0.0,-2.0,0.1749858856201172,1.839829921722412,0.6522035401215757,66.0,402.0
,,"(3, 3)",,,,,,66.0,
B,L,"[3, 2]",-1.0,-1.0,0.3461480140686035,4.115089178085327,0.5840330634450555,,403.0
B,L,"[3, 1]",1.0,0.0,0.2675809860229492,1.672339916229248,0.3898981012510753,67.0,404.0
R,U,"[2, 1]",-1.0,-1.0,0.24181890487670898,1.8406219482421875,0.5972104972553329,67.0,405.0
Y,R,"[2, 2]",-1.0,-2.0,0.17803287506103516,1.7121710777282715,0.5259203596034379,67.0,406.0
B,L,"[2, 1]",-1.0,-3.0,0.17393994331359863,1.4629111289978027,0.28908118168384356,67.0,407.0
Y,R,"[2, 2]",-1.0,-4.0,0.23739314079284668,1.6251130104064941,0.38084620640907674,67.0,408.0
,,"(3, 3)",,,,,,67.0,
G,D,"[4, 3]",1.0,1.0,0.6679589748382568,2.9630467891693115,0.5603238755188285,,409.0
G,D,"[5, 3]",1.0,2.0,0.1752150058746338,1.794935941696167,0.621864059035336,68.0,410.0
B,L,"[5, 2]",1.0,3.0,0.21407198905944824,1.547374963760376,0.3363062845026586,68.0,411.0
B,L,"[5, 1]",-1.0,2.0,0.5618648529052734,1.8835649490356445,0.303342765505945,68.0,412.0
R,U,"[4, 1]",1.0,3.0,0.26547908782958984,1.8970270156860352,0.6167369355729009,68.0,413.0
Y,R,"[4, 2]",1.0,4.0,0.19833111763000488,1.6854009628295898,0.48551832766894676,68.0,414.0
,,"(3, 3)",,,,,,68.0,
G,D,"[4, 3]",1.0,1.0,0.4842069149017334,2.2829418182373047,0.36803895983184864,,415.0
G,D,"[5, 3]",1.0,2.0,0.21161198616027832,1.567655086517334,0.35288458960777,69.0,416.0
B,L,"[5, 2]",1.0,3.0,0.26688504219055176,1.6920149326324463,0.41182430334873865,69.0,417.0
R,U,"[4, 2]",1.0,4.0,0.18867993354797363,1.5686860084533691,0.3969084912363693,69.0,418.0
Y,R,"[4, 3]",1.0,5.0,0.1943349838256836,1.5503339767456055,0.34737880872991395,69.0,419.0
R,U,"[3, 3]",-2.0,3.0,0.21716880798339844,1.9054160118103027,0.6690538887986397,69.0,420.0
,,"(3, 3)",,,,,,69.0,
G,D,"[4, 3]",1.0,1.0,0.5402891635894775,2.9087700843811035,0.428217560122291,,421.0
G,D,"[5, 3]",1.0,2.0,0.18143701553344727,1.5258889198303223,0.3541248542074374,70.0,422.0
B,L,"[5, 2]",1.0,3.0,0.1967020034790039,1.8841290473937988,0.6880396471513581,70.0,423.0
R,U,"[4, 2]",1.0,4.0,0.15370988845825195,1.8241560459136963,0.6622258053652972,70.0,424.0
Y,R,"[4, 3]",1.0,5.0,0.1797947883605957,1.7115020751953125,0.5406232732698077,70.0,425.0
B,L,"[4, 2]",1.0,6.0,0.1473538875579834,1.6297969818115234,0.487000623812454,70.0,426.0
,,"(3, 3)",,,,,,70.0,
G,D,"[4, 3]",1.0,1.0,0.8090550899505615,2.9883809089660645,0.5253969089067577,,427.0
G,D,"[5, 3]",1.0,2.0,0.1863701343536377,1.446476936340332,0.2721659339198154,71.0,428.0
B,L,"[5, 2]",1.0,3.0,0.2392280101776123,1.658139944076538,0.4135438311612677,71.0,429.0
R,U,"[4, 2]",-1.0,3.0,0.0017659664154052734,5.740110874176025,0.6036533108558799,71.0,430.0
Y,R,"[4, 3]",1.0,4.0,0.18241310119628906,1.933197021484375,0.7369042568877198,71.0,431.0
G,D,"[5, 3]",1.0,5.0,0.28378796577453613,1.8851299285888672,0.5888009894830079,71.0,432.0
,,"(3, 3)",,,,,,71.0,
G,D,"[4, 3]",1.0,1.0,0.7871861457824707,3.742985963821411,0.7483284914716901,,433.0
G,D,"[5, 3]",1.0,2.0,0.17740893363952637,1.9207980632781982,0.7356217022645913,72.0,434.0
B,L,"[5, 2]",1.0,3.0,0.1877119541168213,1.6772592067718506,0.4799314361054022,72.0,435.0
R,U,"[4, 2]",1.0,4.0,0.18035578727722168,1.4917590618133545,0.3051893966538584,72.0,436.0
Y,R,"[4, 3]",1.0,5.0,0.2542078495025635,1.9754469394683838,0.7137133217204994,72.0,437.0
B,L,"[4, 2]",1.0,6.0,0.15007376670837402,1.4943008422851562,0.3251056388363287,72.0,438.0
,,"(3, 3)",,,,,,72.0,
G,D,"[4, 3]",1.0,1.0,0.9667880535125732,3.38138484954834,0.5561448610406361,,439.0
G,D,"[5, 3]",1.0,2.0,0.1901390552520752,1.7898399829864502,0.5959939543566202,73.0,440.0
B,L,"[5, 2]",1.0,3.0,0.20590996742248535,1.5874300003051758,0.3671590951504397,73.0,441.0
R,U,"[4, 2]",1.0,4.0,0.22475194931030273,1.5115950107574463,0.27888749437072613,73.0,442.0
Y,R,"[4, 3]",1.0,5.0,0.2844679355621338,1.8840019702911377,0.5959293375676504,73.0,443.0
B,L,"[4, 2]",1.0,6.0,0.1645209789276123,1.7183301448822021,0.5475985555485692,73.0,444.0
,,"(3, 3)",,,,,,73.0,
G,D,"[4, 3]",1.0,1.0,0.7577049732208252,2.5896711349487305,0.47101959439855956,,445.0
G,D,"[5, 3]",1.0,2.0,0.20939302444458008,1.6234619617462158,0.4111735474649338,74.0,446.0
B,L,"[5, 2]",1.0,3.0,0.23563909530639648,1.8649649620056152,0.6425798088010141,74.0,447.0
R,U,"[4, 2]",1.0,4.0,0.23399782180786133,1.5029969215393066,0.26246413116296,74.0,448.0
Y,R,"[4, 3]",1.0,5.0,0.3188939094543457,1.589357852935791,0.26846318320250506,74.0,449.0
B,L,"[4, 2]",1.0,6.0,0.1942451000213623,1.4500219821929932,0.25202397013982525,74.0,450.0
,,"(3, 3)",,,,,,74.0,
G,D,"[4, 3]",1.0,1.0,0.7914688587188721,2.7844340801239014,0.6529828366939798,,451.0
G,D,"[5, 3]",1.0,2.0,0.1555180549621582,1.712878942489624,0.5491410937055025,75.0,452.0
B,L,"[5, 2]",1.0,3.0,0.17204999923706055,1.6434252262115479,0.45942760996826426,75.0,453.0
R,U,"[4, 2]",1.0,4.0,0.15375781059265137,1.767819881439209,0.6104966988271543,75.0,454.0
Y,R,"[4, 3]",1.0,5.0,0.14580893516540527,1.4917590618133545,0.3526249213150874,75.0,455.0
B,L,"[4, 2]",1.0,6.0,0.14502477645874023,1.5326778888702393,0.3850349890066602,75.0,456.0
,,"(3, 3)",,,,,,75.0,
B,L,"[3, 2]",-1.0,-1.0,0.4782290458679199,2.6935720443725586,0.6453268385481419,,457.0
G,D,"[4, 2]",1.0,0.0,0.15107202529907227,1.4048140048980713,0.2506022887563432,76.0,458.0
B,L,"[4, 1]",1.0,1.0,0.2523519992828369,1.574207067489624,0.3078341825295097,76.0,459.0
R,U,"[3, 1]",1.0,2.0,0.24198698997497559,1.792457103729248,0.550184061427833,76.0,460.0
Y,R,"[3, 2]",-1.0,1.0,0.19458699226379395,1.564143180847168,0.3644362708039872,76.0,461.0
B,L,"[3, 1]",1.0,2.0,0.19403815269470215,1.8752551078796387,0.6730956580379596,76.0,462.0
,,"(3, 3)",,,,,,76.0,
B,L,"[3, 2]",-1.0,-1.0,0.5150778293609619,2.307260036468506,0.5303237771940114,,463.0
G,D,"[4, 2]",1.0,0.0,0.4154930114746094,2.0580389499664307,0.6382817715141351,77.0,464.0
B,L,"[4, 1]",1.0,1.0,0.1895158290863037,1.6741218566894531,0.47932067885834084,77.0,465.0
R,U,"[3, 1]",1.0,2.0,0.19027113914489746,1.752573013305664,0.5485269536647078,77.0,466.0
B,L,"[3, 0]",0.0,2.0,0.2402360439300537,1.5736050605773926,0.32257045216206187,77.0,467.0
B,L,"[3, 0]",0.0,2.0,0.20249009132385254,1.7877860069274902,0.5932095183780026,77.0,468.0
,,"(3, 3)",,,,,,77.0,
G,D,"[4, 3]",1.0,1.0,0.826138973236084,2.9877729415893555,0.7311586099251757,,469.0
G,D,"[5, 3]",1.0,2.0,0.16312599182128906,1.6414391994476318,0.47286049942165514,78.0,470.0
B,L,"[5, 2]",1.0,3.0,0.2497539520263672,1.6454789638519287,0.3683285541376955,78.0,471.0
R,U,"[4, 2]",1.0,4.0,0.29068613052368164,1.8717517852783203,0.5732218714198634,78.0,472.0
Y,R,"[4, 3]",1.0,5.0,0.20206499099731445,1.7268750667572021,0.5336441229306199,78.0,473.0
B,L,"[4, 2]",1.0,6.0,0.16759395599365234,1.8147509098052979,0.6317898991859366,78.0,474.0
,,"(3, 3)",,,,,,78.0,
G,D,"[4, 3]",1.0,1.0,0.4879491329193115,2.2472379207611084,0.3624996032561252,,475.0
G,D,"[5, 3]",1.0,2.0,0.18604087829589844,1.900583028793335,0.6961776539627811,79.0,476.0
B,L,"[5, 2]",1.0,3.0,0.1349020004272461,1.8094148635864258,0.6555489666949834,79.0,477.0
R,U,"[4, 2]",1.0,4.0,0.19476819038391113,1.571810007095337,0.377854543274653,79.0,478.0
Y,R,"[4, 3]",1.0,5.0,0.31810617446899414,1.7568480968475342,0.43471147098696616,79.0,479.0
B,L,"[4, 2]",1.0,6.0,0.1654949188232422,1.4441709518432617,0.278931206357494,79.0,480.0
,,"(3, 3)",,,,,,79.0,
G,D,"[4, 3]",1.0,1.0,0.49753808975219727,2.5659430027008057,0.5282267187490162,,481.0
G,D,"[5, 3]",1.0,2.0,0.14270520210266113,1.5486650466918945,0.41028545255405985,80.0,482.0
B,L,"[5, 2]",1.0,3.0,0.19030094146728516,1.6620230674743652,0.4723595329254888,80.0,483.0
R,U,"[4, 2]",1.0,4.0,0.20963788032531738,1.9533519744873047,0.7422578151785011,80.0,484.0
Y,R,"[4, 3]",1.0,5.0,0.2056429386138916,1.4940788745880127,0.28677466019798026,80.0,485.0
B,L,"[4, 2]",1.0,6.0,0.2637338638305664,1.8159642219543457,0.552519453388,80.0,486.0
,,"(3, 3)",,,,,,80.0,
G,D,"[4, 3]",1.0,1.0,0.49513792991638184,2.448823928833008,0.5181646694228913,,487.0
G,D,"[5, 3]",1.0,2.0,0.1529090404510498,1.511577844619751,0.34660325337161213,81.0,488.0
B,L,"[5, 2]",1.0,3.0,0.22624778747558594,1.8830327987670898,0.6459188365856423,81.0,489.0
R,U,"[4, 2]",1.0,4.0,0.16695284843444824,1.82790207862854,0.6408097197247211,81.0,490.0
Y,R,"[4, 3]",1.0,5.0,0.1784679889678955,1.6474099159240723,0.4716100003493697,81.0,491.0
B,L,"[4, 2]",1.0,6.0,0.18805599212646484,1.7412400245666504,0.5462065923250616,81.0,492.0
,,"(3, 3)",,,,,,81.0,
G,D,"[4, 3]",1.0,1.0,0.48122620582580566,2.3880670070648193,0.5175463294865821,,493.0
G,D,"[5, 3]",1.0,2.0,0.19267797470092773,1.667654037475586,0.4688069550058395,82.0,494.0
B,L,"[5, 2]",1.0,3.0,0.20299410820007324,1.7144889831542969,0.4997904154565241,82.0,495.0
R,U,"[4, 2]",1.0,4.0,0.18539190292358398,1.4562430381774902,0.25638034882808713,82.0,496.0
Y,R,"[4, 3]",1.0,5.0,0.16854000091552734,1.8659889698028564,0.6885306347936264,82.0,497.0
B,L,"[4, 2]",1.0,6.0,0.10486197471618652,1.606907844543457,0.4960733007170588,82.0,498.0
,,"(3, 3)",,,,,,82.0,
G,D,"[4, 3]",1.0,1.0,0.4267599582672119,3.02901291847229,0.5751525471896898,,499.0
G,D,"[5, 3]",1.0,2.0,0.21521306037902832,1.7067720890045166,0.48208475927239425,83.0,500.0
B,L,"[5, 2]",1.0,3.0,0.22947406768798828,1.8777871131896973,0.6427362313417628,83.0,501.0
R,U,"[4, 2]",1.0,4.0,0.20182490348815918,1.66451096534729,0.4576014101314658,83.0,502.0
Y,R,"[4, 3]",1.0,5.0,0.20107293128967285,1.643625020980835,0.4345628904844294,83.0,503.0
B,L,"[4, 2]",1.0,6.0,0.2091050148010254,1.925117015838623,0.7094956119719219,83.0,504.0
,,"(3, 3)",,,,,,83.0,
Y,R,"[3, 4]",-2.0,0.0,1.018833875656128,4.368861198425293,0.6285534977229423,,505.0
Y,R,"[3, 5]",-1.0,-1.0,0.21066498756408691,1.6871299743652344,0.4659032655136954,84.0,506.0
R,U,"[2, 5]",-1.0,-2.0,0.20966410636901855,1.5205821990966797,0.3035600185965281,84.0,507.0
G,D,"[3, 5]",-1.0,-3.0,0.20992302894592285,1.6087861061096191,0.3954802457358766,84.0,508.0
B,L,"[3, 4]",-1.0,-4.0,0.14892792701721191,1.8302791118621826,0.6922525748545407,84.0,509.0
R,U,"[2, 4]",-1.0,-5.0,0.4025609493255615,1.7125248908996582,0.3050637784816612,84.0,510.0
,,"(3, 3)",,,,,,84.0,
G,D,"[4, 3]",1.0,1.0,0.9337167739868164,2.970036029815674,0.6582461305083571,,511.0
G,D,"[5, 3]",1.0,2.0,0.15433001518249512,1.7845730781555176,0.6431283182178011,85.0,512.0
B,L,"[5, 2]",1.0,3.0,0.2219088077545166,1.7885279655456543,0.564930792572188,85.0,513.0
R,U,"[4, 2]",1.0,4.0,0.26694798469543457,1.5592930316925049,0.29115016020068546,85.0,514.0
Y,R,"[4, 3]",1.0,5.0,0.30393195152282715,1.6311330795288086,0.32242936253046556,85.0,515.0
B,L,"[4, 2]",1.0,6.0,0.2063601016998291,1.6844420433044434,0.4735251065042345,85.0,516.0
,,"(3, 3)",,,,,,85.0,
G,D,"[4, 3]",1.0,1.0,0.42524194717407227,3.6392831802368164,0.42955503567645814,,517.0
G,D,"[5, 3]",1.0,2.0,0.20392894744873047,1.902858018875122,0.6987498689529625,86.0,518.0
B,L,"[5, 2]",1.0,3.0,0.17106103897094727,1.4717381000518799,0.2876446585259527,86.0,519.0
R,U,"[4, 2]",1.0,4.0,0.2812330722808838,1.6840660572052002,0.4050153399364175,86.0,520.0
Y,R,"[4, 3]",1.0,5.0,0.2538461685180664,1.599668025970459,0.33813952051523477,86.0,521.0
B,L,"[4, 2]",1.0,6.0,0.20206189155578613,1.7898859977722168,0.5777851736135077,86.0,522.0
,,"(3, 3)",,,,,,86.0,
G,D,"[4, 3]",1.0,1.0,0.39025020599365234,2.68461012840271,0.612702283013037,,523.0
G,D,"[5, 3]",1.0,2.0,0.18261504173278809,1.486166000366211,0.29900247325937374,87.0,524.0
B,L,"[5, 2]",1.0,3.0,0.26212501525878906,1.5285391807556152,0.26113247857048866,87.0,525.0
R,U,"[4, 2]",1.0,4.0,0.21144700050354004,1.6082370281219482,0.4025525947670344,87.0,526.0
Y,R,"[4, 3]",1.0,5.0,0.21102690696716309,1.505856990814209,0.292004604999292,87.0,527.0
B,L,"[4, 2]",1.0,6.0,0.11681890487670898,1.41908597946167,0.3109885766914212,87.0,528.0
,,"(3, 3)",,,,,,87.0,
Y,R,"[3, 4]",-1.0,-1.0,0.26929497718811035,2.64047908782959,0.5679316678316033,,529.0
B,L,"[3, 3]",-2.0,-3.0,0.19496703147888184,1.4958629608154297,0.26421305940009215,88.0,530.0
Y,R,"[3, 4]",-1.0,-4.0,0.3020029067993164,1.7568798065185547,0.4543266089352233,88.0,531.0
G,D,"[4, 4]",-1.0,-5.0,0.16792988777160645,1.5490310192108154,0.3700651068838941,88.0,532.0
R,U,"[3, 4]",-1.0,-6.0,0.18004107475280762,1.9137330055236816,0.7334837556988401,88.0,533.0
G,D,"[4, 4]",-1.0,-7.0,0.6651840209960938,1.972679853439331,0.30683067028266714,88.0,534.0
,,"(3, 3)",,,,,,88.0,
G,D,"[4, 3]",1.0,1.0,0.45894789695739746,2.7103850841522217,0.3006954400221794,,535.0
G,D,"[5, 3]",1.0,2.0,0.20198702812194824,1.8254849910736084,0.6092376231879955,89.0,536.0
B,L,"[5, 2]",1.0,3.0,0.16631698608398438,1.7021479606628418,0.5280444988210284,89.0,537.0
R,U,"[4, 2]",1.0,4.0,0.23538708686828613,1.8518130779266357,0.6132280307222174,89.0,538.0
Y,R,"[4, 3]",1.0,5.0,0.17148184776306152,1.8735151290893555,0.6866989164430086,89.0,539.0
B,L,"[4, 2]",-1.0,5.0,0.05824995040893555,5.624840021133423,0.4452286371079649,89.0,540.0
,,"(3, 3)",,,,,,89.0,
G,D,"[4, 3]",1.0,1.0,0.3687098026275635,3.139185905456543,0.6676988975635874,,541.0
G,D,"[5, 3]",1.0,2.0,0.16299080848693848,1.8452739715576172,0.6798088315895898,90.0,542.0
B,L,"[5, 2]",1.0,3.0,0.20802688598632812,1.8982350826263428,0.6780060393362799,90.0,543.0
R,U,"[4, 2]",1.0,4.0,0.20461511611938477,1.4669439792633057,0.2620639695962604,90.0,544.0
Y,R,"[4, 3]",1.0,5.0,0.3968360424041748,1.7977311611175537,0.4097050377345185,90.0,545.0
B,L,"[4, 2]",1.0,6.0,0.20687103271484375,1.5771560668945312,0.3704292826367559,90.0,546.0
,,"(3, 3)",,,,,,90.0,
G,D,"[4, 3]",1.0,1.0,0.517751932144165,2.66104793548584,0.2981769746550654,,547.0
G,D,"[5, 3]",1.0,2.0,0.2027280330657959,1.9408869743347168,0.7220494464463184,91.0,548.0
B,L,"[5, 2]",1.0,3.0,0.16670894622802734,1.5340290069580078,0.35654598960749045,91.0,549.0
R,U,"[4, 2]",1.0,4.0,0.21401000022888184,1.6134018898010254,0.4035697736929813,91.0,550.0
Y,R,"[4, 3]",1.0,5.0,0.4773440361022949,1.7624268531799316,0.28287228586337615,91.0,551.0
B,L,"[4, 2]",1.0,6.0,0.5386581420898438,2.178898811340332,0.6280812799639284,91.0,552.0
,,"(3, 3)",,,,,,91.0,
G,D,"[4, 3]",1.0,1.0,0.4185299873352051,2.497269868850708,0.3087526224592451,,553.0
G,D,"[5, 3]",1.0,2.0,0.24096298217773438,1.5874748229980469,0.34589781778453466,92.0,554.0
B,L,"[5, 2]",1.0,3.0,0.2725539207458496,1.5452039241790771,0.2743969851408193,92.0,555.0
R,U,"[4, 2]",1.0,4.0,0.22367191314697266,1.7303497791290283,0.5041379130604859,92.0,556.0
Y,R,"[4, 3]",1.0,5.0,0.2042219638824463,1.6325938701629639,0.4365820654163502,92.0,557.0
B,L,"[4, 2]",1.0,6.0,0.2038109302520752,1.569727897644043,0.3562027764405962,92.0,558.0
,,"(3, 3)",,,,,,92.0,
G,D,"[4, 3]",1.0,1.0,0.4162411689758301,2.805497169494629,0.5779381829885437,,559.0
G,D,"[5, 3]",1.0,2.0,0.13938403129577637,1.713831901550293,0.5748102340837604,93.0,560.0
B,L,"[5, 2]",1.0,3.0,0.15845799446105957,1.7853829860687256,0.6265862636036642,93.0,561.0
R,U,"[4, 2]",1.0,4.0,0.1921079158782959,1.7395730018615723,0.5496316793544347,93.0,562.0
Y,R,"[4, 3]",1.0,5.0,0.18515396118164062,1.6466708183288574,0.4460735899094378,93.0,563.0
B,L,"[4, 2]",1.0,6.0,0.18897795677185059,1.8013708591461182,0.5969229585549385,93.0,564.0
,,"(3, 3)",,,,,,93.0,
G,D,"[4, 3]",1.0,1.0,0.2672300338745117,2.8269219398498535,0.656905029061643,,565.0
G,D,"[5, 3]",-1.0,1.0,0.0343470573425293,5.569185018539429,0.40893718914209215,94.0,566.0
B,L,"[5, 2]",1.0,2.0,0.30851006507873535,1.9535179138183594,0.6457610455024582,94.0,567.0
R,U,"[4, 2]",1.0,3.0,0.2227489948272705,1.8251159191131592,0.6037533713581542,94.0,568.0
Y,R,"[4, 3]",1.0,4.0,0.16631793975830078,1.652191162109375,0.4724992323370286,94.0,569.0
B,L,"[4, 2]",1.0,5.0,0.1791691780090332,1.4733350276947021,0.2958006931463088,94.0,570.0
,,"(3, 3)",,,,,,94.0,
G,D,"[4, 3]",1.0,1.0,0.46799302101135254,3.109830141067505,0.6884372561498794,,571.0
G,D,"[5, 3]",1.0,2.0,0.2016758918762207,1.8781609535217285,0.6664628257148826,95.0,572.0
B,L,"[5, 2]",1.0,3.0,0.18257498741149902,1.45066499710083,0.2506603516633866,95.0,573.0
R,U,"[4, 2]",1.0,4.0,0.24339914321899414,1.8137249946594238,0.5637935923717681,95.0,574.0
Y,R,"[4, 3]",1.0,5.0,0.23158597946166992,1.8863000869750977,0.6504256454825661,95.0,575.0
B,L,"[4, 2]",1.0,6.0,0.15620708465576172,1.509984016418457,0.3432789642277239,95.0,576.0
,,"(3, 3)",,,,,,95.0,
G,D,"[4, 3]",1.0,1.0,0.4007852077484131,2.280411958694458,0.4568883294636107,,577.0
G,D,"[5, 3]",1.0,2.0,0.37491917610168457,1.7027480602264404,0.32609827151800763,96.0,578.0
B,L,"[5, 2]",1.0,3.0,0.24285387992858887,1.6772940158843994,0.4363892884953387,96.0,579.0
R,U,"[4, 2]",1.0,4.0,0.2615959644317627,1.96394681930542,0.7002826483494906,96.0,580.0
Y,R,"[4, 3]",1.0,5.0,0.10883712768554688,1.7946219444274902,0.6781010413765485,96.0,581.0
B,L,"[4, 2]",1.0,6.0,0.1783740520477295,1.5854310989379883,0.4132161287612738,96.0,582.0
,,"(3, 3)",,,,,,96.0,
G,D,"[4, 3]",1.0,1.0,0.45825886726379395,2.4217529296875,0.38496954097562447,,583.0
G,D,"[5, 3]",1.0,2.0,0.32767605781555176,1.6207249164581299,0.2886422643038112,97.0,584.0
B,L,"[5, 2]",1.0,3.0,0.3115420341491699,1.7388701438903809,0.42726594845760973,97.0,585.0
R,U,"[4, 2]",1.0,4.0,0.22477412223815918,1.909548044204712,0.6864059032757182,97.0,586.0
Y,R,"[4, 3]",1.0,5.0,0.19603610038757324,1.94474196434021,0.7475617436955806,97.0,587.0
B,L,"[4, 2]",1.0,6.0,0.18787908554077148,1.5244970321655273,0.32235953744225987,97.0,588.0
,,"(3, 3)",,,,,,97.0,
G,D,"[4, 3]",1.0,1.0,0.576092004776001,2.508481025695801,0.26394468015910727,,589.0
G,D,"[5, 3]",1.0,2.0,0.285642147064209,1.7488510608673096,0.4624507014657545,98.0,590.0
B,L,"[5, 2]",1.0,3.0,0.2685070037841797,1.5499022006988525,0.2791135709237078,98.0,591.0
R,U,"[4, 2]",1.0,4.0,0.25616884231567383,2.004380941390991,0.7495677548461245,98.0,592.0
Y,R,"[4, 3]",1.0,5.0,0.19151711463928223,1.7877528667449951,0.5873434619749254,98.0,593.0
B,L,"[4, 2]",1.0,6.0,0.19238591194152832,1.7139561176300049,0.517839246845226,98.0,594.0
,,"(3, 3)",,,,,,98.0,
G,D,"[4, 3]",1.0,1.0,0.4028639793395996,2.85915207862854,0.6771439820493961,,595.0
G,D,"[5, 3]",1.0,2.0,0.18324017524719238,1.460179090499878,0.2705442405157145,99.0,596.0
B,L,"[5, 2]",1.0,3.0,0.34664487838745117,1.6484971046447754,0.3020414128426832,99.0,597.0
R,U,"[4, 2]",1.0,4.0,0.5079829692840576,2.136482000350952,0.6215840276377791,99.0,598.0
Y,R,"[4, 3]",1.0,5.0,0.19831395149230957,1.7535498142242432,0.541676226998429,99.0,599.0
B,L,"[4, 2]",1.0,6.0,0.24724602699279785,1.6905419826507568,0.44863804037790844,99.0,600.0
,,"(3, 3)",,,,,,99.0,
G,D,"[4, 3]",1.0,1.0,0.5476291179656982,6.268357038497925,0.6661511936955506,,601.0
G,D,"[5, 3]",1.0,2.0,0.18745899200439453,1.5932331085205078,0.3928809546150941,100.0,602.0
B,L,"[5, 2]",1.0,3.0,0.25545716285705566,1.8041150569915771,0.5469488663832769,100.0,603.0
R,U,"[4, 2]",1.0,4.0,0.4157371520996094,1.9676477909088135,0.5477426472915714,100.0,604.0
Y,R,"[4, 3]",1.0,5.0,0.2278439998626709,1.776494026184082,0.5406509928776627,100.0,605.0
B,L,"[4, 2]",1.0,6.0,0.349240779876709,2.0499019622802734,0.7069691440200125,100.0,606.0
,,"(3, 3)",,,,,,100.0,
R,U,"[2, 3]",-1.0,-1.0,0.610382080078125,3.6092119216918945,0.2830765083914476,,607.0
G,D,"[3, 3]",-2.0,-3.0,0.21425104141235352,1.6730730533599854,0.4559564195837852,101.0,608.0
B,L,"[3, 2]",-1.0,-4.0,0.1387929916381836,1.7394158840179443,0.5948263759484449,101.0,609.0
R,U,"[2, 2]",-1.0,-4.0,0.09942817687988281,5.6344780921936035,0.4125678178651401,101.0,610.0
R,U,"[1, 2]",-1.0,-5.0,0.22380685806274414,1.6381990909576416,0.4170811446781546,101.0,611.0
Y,R,"[1, 3]",-1.0,-6.0,0.2297360897064209,1.9066941738128662,0.6736163465987479,101.0,612.0
,,"(3, 3)",,,,,,101.0,
G,D,"[4, 3]",1.0,1.0,0.43499016761779785,2.933250904083252,0.6733621444345841,,613.0
G,D,"[5, 3]",1.0,2.0,0.198577880859375,1.6680400371551514,0.45814024251226604,102.0,614.0
B,L,"[5, 2]",1.0,3.0,0.24479198455810547,1.8725719451904297,0.6302074752715259,102.0,615.0
R,U,"[4, 2]",1.0,4.0,0.18627309799194336,1.8955020904541016,0.7088685163977638,102.0,616.0
Y,R,"[4, 3]",1.0,5.0,0.18590116500854492,1.8570959568023682,0.6658626121784774,102.0,617.0
B,L,"[4, 2]",1.0,6.0,0.3672330379486084,2.0076680183410645,0.6239562054639278,102.0,618.0
,,"(3, 3)",,,,,,102.0,
B,L,"[3, 2]",-1.0,-1.0,0.5657877922058105,3.2422451972961426,0.36598160448896694,,619.0
G,D,"[4, 2]",1.0,0.0,0.22917389869689941,1.5425760746002197,0.2917887200961055,103.0,620.0
B,L,"[4, 1]",1.0,1.0,0.25298404693603516,1.6865730285644531,0.44463619557520895,103.0,621.0
R,U,"[3, 1]",1.0,2.0,0.2584831714630127,1.9557411670684814,0.7004335371042016,103.0,622.0
Y,R,"[3, 2]",-1.0,1.0,0.18186712265014648,1.8558990955352783,0.6561901380833723,103.0,623.0
B,L,"[3, 1]",1.0,2.0,0.13371706008911133,1.6013290882110596,0.47388396725390514,103.0,624.0
,,"(3, 3)",,,,,,103.0,
G,D,"[4, 3]",1.0,1.0,0.7211301326751709,3.1266610622406006,0.317371527441886,,625.0
G,D,"[5, 3]",1.0,2.0,0.18351292610168457,1.9112040996551514,0.7113869708728705,104.0,626.0
B,L,"[5, 2]",1.0,3.0,0.3186781406402588,1.982560157775879,0.6606317358170732,104.0,627.0
R,U,"[4, 2]",1.0,4.0,0.21193695068359375,1.7751100063323975,0.5687910171106627,104.0,628.0
Y,R,"[4, 3]",1.0,5.0,0.24059700965881348,1.5022971630096436,0.25468950372815913,104.0,629.0
B,L,"[4, 2]",1.0,6.0,0.3275430202484131,1.7009761333465576,0.3720469938613268,104.0,630.0
,,"(3, 3)",,,,,,104.0,
G,D,"[4, 3]",1.0,1.0,0.3509349822998047,3.3310048580169678,0.6526476853419848,,631.0
G,D,"[5, 3]",1.0,2.0,0.18512606620788574,1.4427330493927002,0.26228282540009507,105.0,632.0
B,L,"[5, 2]",1.0,3.0,0.2867882251739502,1.8348970413208008,0.5474159610274238,105.0,633.0
R,U,"[4, 2]",1.0,4.0,0.20868706703186035,1.6541399955749512,0.4344981275555625,105.0,634.0
Y,R,"[4, 3]",1.0,5.0,0.20368504524230957,1.654623031616211,0.45545824274301333,105.0,635.0
B,L,"[4, 2]",1.0,6.0,0.21777987480163574,1.50120210647583,0.2734269719748187,105.0,636.0
,,"(3, 3)",,,,,,105.0,
G,D,"[4, 3]",1.0,1.0,0.40714192390441895,2.4204978942871094,0.5768537653006585,,637.0
G,D,"[5, 3]",1.0,2.0,0.13834905624389648,1.4831569194793701,0.36039669332981594,106.0,638.0
B,L,"[5, 2]",1.0,3.0,0.24278783798217773,1.6250650882720947,0.3852430903539096,106.0,639.0
R,U,"[4, 2]",1.0,4.0,0.24839997291564941,1.6872529983520508,0.43890324115227036,106.0,640.0
Y,R,"[4, 3]",1.0,5.0,0.23801898956298828,1.853065013885498,0.6084343756951901,106.0,641.0
B,L,"[4, 2]",1.0,6.0,0.24520301818847656,1.650547981262207,0.409029705324895,106.0,642.0
,,"(3, 3)",,,,,,106.0,
G,D,"[4, 3]",1.0,1.0,0.5359311103820801,4.361771106719971,0.4038943915232976,,643.0
G,D,"[5, 3]",1.0,2.0,0.21309113502502441,1.613326072692871,0.40062393545240604,107.0,644.0
B,L,"[5, 2]",1.0,3.0,0.23955392837524414,1.6633682250976562,0.4138433300484361,107.0,645.0
R,U,"[4, 2]",1.0,4.0,0.2740161418914795,1.953165054321289,0.6665986703339251,107.0,646.0
Y,R,"[4, 3]",1.0,5.0,0.18663597106933594,1.8402760028839111,0.6400533449906178,107.0,647.0
B,L,"[4, 2]",1.0,6.0,0.17844009399414062,1.8935811519622803,0.7168266910236013,107.0,648.0
,,"(3, 3)",,,,,,107.0,
G,D,"[4, 3]",1.0,1.0,0.4301149845123291,2.7814290523529053,0.3319410220321904,,649.0
G,D,"[5, 3]",1.0,2.0,0.17193293571472168,1.7332711219787598,0.5484081497959,108.0,650.0
B,L,"[5, 2]",1.0,3.0,0.24962687492370605,1.5599980354309082,0.275020961509578,108.0,651.0
R,U,"[4, 2]",1.0,4.0,0.27380800247192383,1.9479501247406006,0.6723532057914864,108.0,652.0
Y,R,"[4, 3]",1.0,5.0,0.1757669448852539,1.7555780410766602,0.5781342057660368,108.0,653.0
B,L,"[4, 2]",1.0,6.0,0.1675870418548584,1.5232977867126465,0.35165289748452294,108.0,654.0
,,"(3, 3)",,,,,,108.0,
G,D,"[4, 3]",1.0,1.0,0.3841228485107422,2.4398610591888428,0.3747766911232264,,655.0
G,D,"[5, 3]",1.0,2.0,0.21402907371520996,1.610908031463623,0.4021926522556562,109.0,656.0
B,L,"[5, 2]",1.0,3.0,0.25110483169555664,1.6793570518493652,0.41470044782835686,109.0,657.0
R,U,"[4, 2]",1.0,4.0,0.24068999290466309,1.712510108947754,0.46056093373291657,109.0,658.0
Y,R,"[4, 3]",1.0,5.0,0.20773911476135254,1.7578601837158203,0.5515624726740951,109.0,659.0
B,L,"[4, 2]",1.0,6.0,0.17614197731018066,1.568336009979248,0.38655098326547377,109.0,660.0
,,"(3, 3)",,,,,,109.0,
G,D,"[4, 3]",1.0,1.0,0.3987088203430176,2.5853521823883057,0.4051095401283691,,661.0
G,D,"[5, 3]",1.0,2.0,0.28194618225097656,1.5495710372924805,0.2714906854744642,110.0,662.0
B,L,"[5, 2]",1.0,3.0,0.26988911628723145,2.026962995529175,0.7479122307961641,110.0,663.0
R,U,"[4, 2]",1.0,4.0,0.19455218315124512,1.7328598499298096,0.5310388136165909,110.0,664.0
Y,R,"[4, 3]",1.0,5.0,0.2402639389038086,1.9165349006652832,0.6637814457084796,110.0,665.0
B,L,"[4, 2]",1.0,6.0,0.18457698822021484,1.5697071552276611,0.38384611331940327,110.0,666.0
,,"(3, 3)",,,,,,110.0,
G,D,"[4, 3]",1.0,1.0,0.3230321407318115,2.50266695022583,0.2531634275655606,,667.0
G,D,"[5, 3]",1.0,2.0,0.2548079490661621,2.0037810802459717,0.7396635137049212,111.0,668.0
B,L,"[5, 2]",1.0,3.0,0.17174911499023438,1.4572229385375977,0.2972721099509421,111.0,669.0
R,U,"[4, 2]",1.0,4.0,0.3003048896789551,2.0155389308929443,0.6956771319071492,111.0,670.0
Y,R,"[4, 3]",1.0,5.0,0.19545793533325195,1.9173691272735596,0.713275369502848,111.0,671.0
B,L,"[4, 2]",1.0,6.0,0.20566701889038086,1.7232658863067627,0.5198039573197217,111.0,672.0
,,"(3, 3)",,,,,,111.0,
G,D,"[4, 3]",1.0,1.0,0.39770007133483887,2.492280960083008,0.5620182056620249,,673.0
G,D,"[5, 3]",1.0,2.0,0.20160794258117676,1.5186550617218018,0.33066129661275145,112.0,674.0
B,L,"[5, 2]",1.0,3.0,0.27317309379577637,1.7708079814910889,0.48483504683732825,112.0,675.0
R,U,"[4, 2]",1.0,4.0,0.2097761631011963,1.622675895690918,0.4073069125709988,112.0,676.0
Y,R,"[4, 3]",1.0,5.0,0.24281597137451172,1.5585248470306396,0.31591233915019235,112.0,677.0
B,L,"[4, 2]",1.0,6.0,0.361177921295166,1.9968509674072266,0.6291018862660889,112.0,678.0
,,"(3, 3)",,,,,,112.0,
Y,R,"[3, 4]",-1.0,-1.0,0.9613289833068848,3.678287982940674,0.7238182046420043,,679.0
B,L,"[3, 3]",-2.0,-3.0,0.1845078468322754,1.4504129886627197,0.25791070885678985,113.0,680.0
G,D,"[4, 3]",1.0,-2.0,0.22558903694152832,1.648690938949585,0.42311930994962144,113.0,681.0
G,D,"[5, 3]",-1.0,-2.0,0.061862945556640625,5.609802007675171,0.41627462296862106,113.0,682.0
B,L,"[5, 2]",1.0,-1.0,0.2868671417236328,1.7714459896087646,0.48736346596271124,113.0,683.0
Y,R,"[5, 3]",1.0,0.0,0.6540188789367676,2.2742438316345215,0.6114081435319401,113.0,684.0
,,"(3, 3)",,,,,,113.0,
G,D,"[4, 3]",1.0,1.0,0.28865599632263184,2.6314380168914795,0.39320039863722084,,685.0
G,D,"[5, 3]",1.0,2.0,0.20685195922851562,1.8754539489746094,0.668048195381829,114.0,686.0
B,L,"[5, 2]",1.0,3.0,0.19952106475830078,1.5983469486236572,0.40014167252908284,114.0,687.0
Y,R,"[5, 3]",1.0,4.0,0.16869497299194336,1.7346150875091553,0.5677363039033322,114.0,688.0
R,U,"[4, 3]",1.0,5.0,0.2224729061126709,1.8761601448059082,0.6604061054602419,114.0,689.0
B,L,"[4, 2]",1.0,6.0,0.19545197486877441,1.5483670234680176,0.35910493417213357,114.0,690.0
,,"(3, 3)",,,,,,114.0,
R,U,"[2, 3]",-1.0,-1.0,0.6617929935455322,3.4604711532592773,0.5026229540143764,,691.0
G,D,"[3, 3]",-2.0,-3.0,0.2010190486907959,1.9216439723968506,0.7074703641940009,115.0,692.0
G,D,"[4, 3]",1.0,-2.0,0.21370506286621094,1.9174048900604248,0.6915222100260174,115.0,693.0
B,L,"[4, 2]",1.0,-1.0,0.21826481819152832,1.5648009777069092,0.3397500361509073,115.0,694.0
Y,R,"[4, 3]",1.0,0.0,0.1888880729675293,1.9111599922180176,0.7172862501312092,115.0,695.0
R,U,"[3, 3]",-2.0,-2.0,0.17186594009399414,1.7694501876831055,0.5867825250853629,115.0,696.0
,,"(3, 3)",,,,,,115.0,
G,D,"[4, 3]",1.0,1.0,0.38789796829223633,3.0134999752044678,0.7166885896752468,,697.0
G,D,"[5, 3]",1.0,2.0,0.1696789264678955,1.5557770729064941,0.37277984268980724,116.0,698.0
B,L,"[5, 2]",1.0,3.0,0.25641798973083496,1.739588975906372,0.4790196594162816,116.0,699.0
Y,R,"[5, 3]",1.0,4.0,0.22924399375915527,1.784209966659546,0.5629542169883845,116.0,700.0
R,U,"[4, 3]",1.0,5.0,0.27406811714172363,1.9637629985809326,0.6766486747384308,116.0,701.0
B,L,"[4, 2]",1.0,6.0,0.18805885314941406,1.928661823272705,0.738658716386035,116.0,702.0
,,"(3, 3)",,,,,,116.0,
G,D,"[4, 3]",1.0,1.0,0.4435570240020752,2.582382917404175,0.30452667358569224,,703.0
G,D,"[5, 3]",1.0,2.0,0.23527216911315918,1.7291851043701172,0.4836839604632758,117.0,704.0
B,L,"[5, 2]",1.0,3.0,0.28699588775634766,1.7302649021148682,0.4306421702780142,117.0,705.0
Y,R,"[5, 3]",1.0,4.0,0.22464489936828613,1.8932008743286133,0.6569925338857472,117.0,706.0
R,U,"[4, 3]",1.0,5.0,0.45853400230407715,1.863157033920288,0.403401769712991,117.0,707.0
B,L,"[4, 2]",1.0,6.0,0.37454700469970703,1.7486939430236816,0.3689261194505847,117.0,708.0
,,"(3, 3)",,,,,,117.0,
G,D,"[4, 3]",1.0,1.0,0.36431193351745605,2.3357760906219482,0.4044534674881377,,709.0
G,D,"[5, 3]",1.0,2.0,0.22391796112060547,1.5354549884796143,0.3067308376848748,118.0,710.0
B,L,"[5, 2]",1.0,3.0,0.333773136138916,1.91371488571167,0.5700835072930105,118.0,711.0
G,D,"[6, 2]",0.0,3.0,0.2110908031463623,1.5153288841247559,0.3024375071815841,118.0,712.0
R,U,"[5, 2]",1.0,4.0,0.7556779384613037,2.2464990615844727,0.48222065389826063,118.0,713.0
Y,R,"[5, 3]",1.0,5.0,0.2064669132232666,1.597548007965088,0.37977693053258527,118.0,714.0
,,"(3, 3)",,,,,,118.0,
G,D,"[4, 3]",1.0,1.0,0.4710090160369873,3.209481954574585,0.7388078180583222,,715.0
G,D,"[5, 3]",1.0,2.0,0.21430611610412598,1.683480978012085,0.47232050377435747,119.0,716.0
B,L,"[5, 2]",1.0,3.0,0.2559089660644531,1.6476750373840332,0.3866214693649348,119.0,717.0
R,U,"[4, 2]",1.0,4.0,0.3980250358581543,1.9279429912567139,0.5312742143053841,119.0,718.0
Y,R,"[4, 3]",1.0,5.0,0.25150513648986816,1.6617438793182373,0.39295993323900524,119.0,719.0
B,L,"[4, 2]",1.0,6.0,0.24750208854675293,1.9218738079071045,0.6812657581697754,119.0,720.0
,,"(3, 3)",,,,,,119.0,
G,D,"[4, 3]",1.0,1.0,0.3652629852294922,2.6126420497894287,0.29432076902035786,,721.0
G,D,"[5, 3]",1.0,2.0,0.2631039619445801,1.6073060035705566,0.35147903988578516,120.0,722.0
B,L,"[5, 2]",1.0,3.0,0.2504138946533203,1.520923137664795,0.27264663351270346,120.0,723.0
Y,R,"[5, 3]",1.0,4.0,0.18909406661987305,1.77345609664917,0.5954869598911242,120.0,724.0
R,U,"[4, 3]",1.0,5.0,0.20601105690002441,1.8204410076141357,0.6158408820402534,120.0,725.0
G,D,"[5, 3]",1.0,6.0,0.11266207695007324,1.745048999786377,0.6275328696873752,120.0,726.0
,,"(3, 3)",,,,,,120.0,
G,D,"[4, 3]",1.0,1.0,0.7577228546142578,6.11487603187561,0.2592445891528516,,727.0
G,D,"[5, 3]",1.0,2.0,0.170853853225708,1.6954469680786133,0.5212586734741584,121.0,728.0
B,L,"[5, 2]",1.0,3.0,0.3197901248931885,1.978496789932251,0.6495182078042041,121.0,729.0
Y,R,"[5, 3]",1.0,4.0,0.192155122756958,1.7942359447479248,0.5938926778874372,121.0,730.0
R,U,"[4, 3]",1.0,5.0,0.22892212867736816,1.7886648178100586,0.5658531114066787,121.0,731.0
B,L,"[4, 2]",1.0,6.0,0.19890308380126953,1.811762809753418,0.6109538348653665,121.0,732.0
,,"(3, 3)",,,,,,121.0,
G,D,"[4, 3]",1.0,1.0,0.5196070671081543,4.074162006378174,0.38515594541474446,,733.0
G,D,"[5, 3]",1.0,2.0,0.20536112785339355,1.6209931373596191,0.4061738790634012,122.0,734.0
B,L,"[5, 2]",1.0,3.0,0.23677992820739746,1.9295949935913086,0.6853667065919542,122.0,735.0
Y,R,"[5, 3]",1.0,4.0,0.22729992866516113,1.813319206237793,0.5822336277524772,122.0,736.0
R,U,"[4, 3]",1.0,5.0,0.2058429718017578,1.7395188808441162,0.5217357176661777,122.0,737.0
G,D,"[5, 3]",1.0,6.0,0.17148900032043457,1.5323169231414795,0.3541716438365603,122.0,738.0
,,"(3, 3)",,,,,,122.0,
B,L,"[3, 2]",-1.0,-1.0,0.585425853729248,3.820664167404175,0.7079284446221088,,739.0
G,D,"[4, 2]",1.0,0.0,0.4013020992279053,1.8600358963012695,0.45136245314673396,123.0,740.0
G,D,"[5, 2]",1.0,1.0,0.14655399322509766,1.6969349384307861,0.5481552766449085,123.0,741.0
B,L,"[5, 1]",-1.0,0.0,0.17947602272033691,1.745377779006958,0.5437246502049143,123.0,742.0
Y,R,"[5, 2]",-1.0,0.0,0.018458843231201172,5.6900060176849365,0.5503019026616007,123.0,743.0
Y,R,"[5, 3]",1.0,1.0,0.252072811126709,1.711064100265503,0.4447878638228789,123.0,744.0
,,"(3, 3)",,,,,,123.0,
G,D,"[4, 3]",1.0,1.0,0.7548699378967285,3.4176759719848633,0.39559796044371814,,745.0
G,D,"[5, 3]",1.0,2.0,0.1962871551513672,1.9145150184631348,0.7267318075472842,124.0,746.0
B,L,"[5, 2]",1.0,3.0,0.23160600662231445,1.8300189971923828,0.5900149375747177,124.0,747.0
Y,R,"[5, 3]",1.0,4.0,0.1972370147705078,1.7218420505523682,0.5284995460348196,124.0,748.0
R,U,"[4, 3]",1.0,5.0,0.2545020580291748,1.6726658344268799,0.41785197080734526,124.0,749.0
G,D,"[5, 3]",1.0,6.0,0.8572900295257568,2.1221048831939697,0.2567844787580108,124.0,750.0
,,"(3, 3)",,,,,,124.0,
G,D,"[4, 3]",1.0,1.0,0.47792696952819824,3.8049511909484863,0.5284504898256668,,751.0
G,D,"[5, 3]",1.0,2.0,0.18143010139465332,1.434183120727539,0.26257884828899153,125.0,752.0
B,L,"[5, 2]",1.0,3.0,0.3207120895385742,1.8459320068359375,0.49190123668405394,125.0,753.0
Y,R,"[5, 3]",1.0,4.0,0.18120980262756348,1.9238290786743164,0.7485744800974494,125.0,754.0
R,U,"[4, 3]",1.0,5.0,0.18179798126220703,1.7695231437683105,0.5849429289216465,125.0,755.0
B,L,"[4, 2]",1.0,6.0,0.19806289672851562,1.7762911319732666,0.578037895329566,125.0,756.0
,,"(3, 3)",,,,,,125.0,
G,D,"[4, 3]",1.0,1.0,0.5611810684204102,3.430043935775757,0.40806665002036585,,757.0
G,D,"[5, 3]",1.0,2.0,0.2429978847503662,1.8847990036010742,0.6426215012250128,126.0,758.0
B,L,"[5, 2]",1.0,3.0,0.16059613227844238,1.5094099044799805,0.3523096130199489,126.0,759.0
Y,R,"[5, 3]",1.0,4.0,0.18793392181396484,1.5600688457489014,0.36243199340528187,126.0,760.0
R,U,"[4, 3]",1.0,5.0,0.37404298782348633,2.0727219581604004,0.7013363396987948,126.0,761.0
G,D,"[5, 3]",1.0,6.0,0.19640684127807617,1.8942790031433105,0.6955613501059323,126.0,762.0
,,"(3, 3)",,,,,,126.0,
G,D,"[4, 3]",1.0,1.0,0.7023320198059082,3.4581899642944336,0.4706544894159534,,763.0
G,D,"[5, 3]",1.0,2.0,0.21872687339782715,1.7485089302062988,0.5191345948219155,127.0,764.0
B,L,"[5, 2]",1.0,3.0,0.23274493217468262,1.8340039253234863,0.6032408636133149,127.0,765.0
Y,R,"[5, 3]",1.0,4.0,0.14507317543029785,1.796328067779541,0.6497311921652337,127.0,766.0
R,U,"[4, 3]",1.0,5.0,0.19093012809753418,1.5078210830688477,0.30750261753013164,127.0,767.0
Y,R,"[4, 4]",-1.0,4.0,0.22995305061340332,1.9325120449066162,0.6897066013491506,127.0,768.0
,,"(3, 3)",,,,,,127.0,
B,L,"[3, 2]",-1.0,-1.0,0.5087769031524658,3.1339612007141113,0.5071020682577854,,769.0
G,D,"[4, 2]",1.0,0.0,0.16028594970703125,1.5382459163665771,0.37873470021096495,128.0,770.0
G,D,"[5, 2]",1.0,1.0,0.20291781425476074,1.4944579601287842,0.2898886404222997,128.0,771.0
Y,R,"[5, 3]",1.0,2.0,0.46677207946777344,2.1377198696136475,0.6605486197409556,128.0,772.0
R,U,"[4, 3]",1.0,3.0,0.18657994270324707,1.7815659046173096,0.5922421293582947,128.0,773.0
B,L,"[4, 2]",1.0,4.0,0.17209386825561523,1.7045049667358398,0.5301670698643797,128.0,774.0
,,"(3, 3)",,,,,,128.0,
G,D,"[4, 3]",1.0,1.0,0.21286416053771973,2.592010974884033,0.3723820321241561,,775.0
G,D,"[5, 3]",1.0,2.0,0.1930220127105713,1.92140793800354,0.7267685947692402,129.0,776.0
B,L,"[5, 2]",1.0,3.0,0.1503918170928955,1.541335105895996,0.40175430637441073,129.0,777.0
Y,R,"[5, 3]",-1.0,3.0,0.06199502944946289,5.649983167648315,0.45167618800312537,129.0,778.0
R,U,"[4, 3]",1.0,4.0,0.27924299240112305,1.6909050941467285,0.40929441938285144,129.0,779.0
Y,R,"[4, 4]",-1.0,3.0,0.20422101020812988,1.6140868663787842,0.42324557228418536,129.0,780.0
,,"(3, 3)",,,,,,129.0,
G,D,"[4, 3]",1.0,1.0,0.4042971134185791,2.844667911529541,0.30136948420057613,,781.0
G,D,"[5, 3]",1.0,2.0,0.1852409839630127,1.5430848598480225,0.34439670468533545,130.0,782.0
B,L,"[5, 2]",1.0,3.0,0.23575806617736816,1.6056199073791504,0.3667437131304172,130.0,783.0
R,U,"[4, 2]",1.0,4.0,0.23425889015197754,1.754317045211792,0.5042922129943698,130.0,784.0
Y,R,"[4, 3]",1.0,5.0,0.203125,1.7899508476257324,0.5774418174089051,130.0,785.0
R,U,"[3, 3]",-2.0,3.0,0.47365593910217285,2.019163131713867,0.5466369948973685,130.0,786.0
,,"(3, 3)",,,,,,130.0,
G,D,"[4, 3]",1.0,1.0,0.3164999485015869,2.8950321674346924,0.6415637389003984,,787.0
G,D,"[5, 3]",1.0,2.0,0.17692208290100098,1.8159379959106445,0.6409338151618009,131.0,788.0
B,L,"[5, 2]",1.0,3.0,0.19623708724975586,1.788789987564087,0.5964228223351324,131.0,789.0
R,U,"[4, 2]",1.0,4.0,0.2631950378417969,1.7209899425506592,0.4509937681719174,131.0,790.0
Y,R,"[4, 3]",1.0,5.0,0.1945950984954834,1.7092869281768799,0.5100760891913401,131.0,791.0
B,L,"[4, 2]",1.0,6.0,0.18558096885681152,1.488638162612915,0.29910647086237085,131.0,792.0
,,"(3, 3)",,,,,,131.0,
G,D,"[4, 3]",1.0,1.0,0.186506986618042,2.2783520221710205,0.3271654638195542,,793.0
G,D,"[5, 3]",1.0,2.0,0.2319629192352295,1.8210129737854004,0.5981388845680224,132.0,794.0
B,L,"[5, 2]",1.0,3.0,0.13461804389953613,1.512362003326416,0.37725088231289594,132.0,795.0
Y,R,"[5, 3]",1.0,4.0,0.22571992874145508,1.7323880195617676,0.5262996847485666,132.0,796.0
R,U,"[4, 3]",1.0,5.0,0.39597415924072266,1.791107177734375,0.40083782802631684,132.0,797.0
G,D,"[5, 3]",1.0,6.0,0.1762230396270752,1.857475996017456,0.6911559956979743,132.0,798.0
,,"(3, 3)",,,,,,132.0,
B,L,"[3, 2]",-1.0,-1.0,0.4070131778717041,2.8771278858184814,0.7018914217928238,,799.0
G,D,"[4, 2]",1.0,0.0,0.20078277587890625,1.6852741241455078,0.48721519267026053,133.0,800.0
B,L,"[4, 1]",1.0,1.0,0.18333101272583008,1.7368600368499756,0.5572134544512254,133.0,801.0
R,U,"[3, 1]",1.0,2.0,0.25124287605285645,1.6956508159637451,0.43643734726512806,133.0,802.0
Y,R,"[3, 2]",-1.0,1.0,0.1921679973602295,1.864224910736084,0.6670389662734959,133.0,803.0
B,L,"[3, 1]",1.0,2.0,0.2361149787902832,1.7004470825195312,0.45106350788497585,133.0,804.0
,,"(3, 3)",,,,,,133.0,
B,L,"[3, 2]",-1.0,-1.0,0.6368131637573242,2.4227771759033203,0.35744200715228175,,805.0
G,D,"[4, 2]",-1.0,-2.0,0.18047690391540527,1.6367499828338623,0.4606481716127388,134.0,806.0
Y,R,"[4, 3]",-1.0,-3.0,0.211076021194458,1.4927752017974854,0.28685259608087904,134.0,807.0
R,U,"[3, 3]",-2.0,-5.0,0.16222310066223145,1.8332819938659668,0.6700021554398015,134.0,808.0
R,U,"[2, 3]",1.0,-4.0,0.2887399196624756,1.6428580284118652,0.34621676620619174,134.0,809.0
R,U,"[1, 3]",-1.0,-5.0,0.4007680416107178,1.9340569972991943,0.5134556594814597,134.0,810.0
,,"(3, 3)",,,,,,134.0,
G,D,"[4, 3]",-1.0,-1.0,0.523798942565918,2.61936092376709,0.682913004394287,,811.0
G,D,"[5, 3]",-1.0,-1.0,0.056587934494018555,5.6845009326934814,0.5009625126325483,135.0,812.0
B,L,"[5, 2]",-1.0,-2.0,0.22721219062805176,1.936873197555542,0.7041425501236263,135.0,813.0
B,L,"[5, 1]",-1.0,-3.0,0.15880513191223145,1.6512770652770996,0.4889103564072234,135.0,814.0
Y,R,"[5, 2]",-1.0,-4.0,0.18577289581298828,1.8334789276123047,0.6389895351304147,135.0,815.0
R,U,"[4, 2]",-1.0,-5.0,0.2294318675994873,1.9188990592956543,0.6911511534166501,135.0,816.0
,,"(3, 3)",,,,,,135.0,
B,L,"[3, 2]",-1.0,-1.0,0.9745450019836426,3.3942079544067383,0.5522096369672256,,817.0
B,L,"[3, 1]",1.0,0.0,0.20975399017333984,1.7808201313018799,0.5666354841471328,136.0,818.0
B,L,"[3, 0]",0.0,0.0,0.23330402374267578,1.9842331409454346,0.7338662549335622,136.0,819.0
R,U,"[2, 0]",0.0,0.0,0.21195697784423828,1.8337149620056152,0.6174639619363418,136.0,820.0
Y,R,"[2, 1]",1.0,1.0,0.223707914352417,1.8409700393676758,0.6085198773002667,136.0,821.0
G,D,"[3, 1]",1.0,2.0,0.2961900234222412,1.576711893081665,0.28562282885395096,136.0,822.0
,,"(3, 3)",,,,,,136.0,
B,L,"[3, 2]",-1.0,-1.0,0.26616907119750977,2.7286698818206787,0.5639191010214153,,823.0
B,L,"[3, 1]",-1.0,-1.0,0.06301593780517578,5.794449806213379,0.5917896826248845,137.0,824.0
G,D,"[4, 1]",-1.0,-2.0,0.37107014656066895,2.014014959335327,0.6393011127728221,137.0,825.0
Y,R,"[4, 2]",-1.0,-3.0,0.23853802680969238,1.8385350704193115,0.5946823258477927,137.0,826.0
R,U,"[3, 2]",-1.0,-4.0,0.2380352020263672,1.6677141189575195,0.42882473910425767,137.0,827.0
B,L,"[3, 1]",1.0,-3.0,0.24731898307800293,1.6381371021270752,0.4006393273729019,137.0,828.0
,,"(3, 3)",,,,,,137.0,
R,U,"[2, 3]",1.0,1.0,0.41176319122314453,2.824105978012085,0.3080463807111151,,829.0
B,L,"[2, 2]",1.0,2.0,0.2856440544128418,1.869197130203247,0.5771212826940824,138.0,830.0
G,D,"[3, 2]",-1.0,1.0,0.15841913223266602,1.726811170578003,0.5703047155060355,138.0,831.0
Y,R,"[3, 3]",-2.0,-1.0,0.17494487762451172,1.6119248867034912,0.4325109719707455,138.0,832.0
B,L,"[3, 2]",-1.0,-2.0,0.22885704040527344,1.930708885192871,0.6962704011547534,138.0,833.0
R,U,"[2, 2]",1.0,-1.0,0.6504549980163574,2.2564499378204346,0.6029840733264304,138.0,834.0
,,"(3, 3)",,,,,,138.0,
R,U,"[2, 3]",1.0,1.0,0.3936600685119629,2.6303470134735107,0.6332457127258233,,835.0
B,L,"[2, 2]",1.0,2.0,0.20508098602294922,1.5135219097137451,0.29693638414290136,139.0,836.0
R,U,"[1, 2]",1.0,3.0,0.2325301170349121,1.8815350532531738,0.6283442302503639,139.0,837.0
B,L,"[1, 1]",1.0,4.0,0.1767439842224121,1.476729154586792,0.30532176799259936,139.0,838.0
R,U,"[0, 1]",0.0,4.0,0.2523610591888428,1.5797748565673828,0.31847298633574783,139.0,839.0
Y,R,"[0, 2]",0.0,4.0,0.21900200843811035,1.8046870231628418,0.5894346765403876,139.0,840.0
,,"(3, 3)",,,,,,139.0,
B,L,"[3, 2]",-1.0,-1.0,0.4277830123901367,2.6411261558532715,0.43091257623842316,,841.0
R,U,"[2, 2]",1.0,0.0,0.1990649700164795,1.5243539810180664,0.3053924992394902,140.0,842.0
B,L,"[2, 1]",1.0,1.0,0.22042393684387207,1.8340911865234375,0.6060069908160512,140.0,843.0
R,U,"[1, 1]",1.0,2.0,0.17391705513000488,1.897097110748291,0.719454702084328,140.0,844.0
B,L,"[1, 0]",0.0,2.0,0.16712689399719238,1.7327358722686768,0.5689849131016396,140.0,845.0
Y,R,"[1, 1]",1.0,3.0,0.402616024017334,1.8546440601348877,0.44046062629106664,140.0,846.0
,,"(3, 3)",,,,,,140.0,
R,U,"[2, 3]",-2.0,0.0,1.0560879707336426,3.552414894104004,0.4928946482107617,,847.0
B,L,"[2, 2]",1.0,1.0,0.20152783393859863,1.8656129837036133,0.6583414850009316,141.0,848.0
R,U,"[1, 2]",1.0,2.0,0.19871902465820312,1.9232780933380127,0.7149420569351013,141.0,849.0
Y,R,"[1, 3]",-1.0,1.0,0.20148611068725586,1.4876761436462402,0.28636168097420855,141.0,850.0
G,D,"[2, 3]",1.0,2.0,0.26799702644348145,2.029452085494995,0.7486984839635895,141.0,851.0
Y,R,"[2, 4]",-1.0,1.0,0.16763091087341309,1.8773751258850098,0.6926327527455076,141.0,852.0
,,"(3, 3)",,,,,,141.0,
R,U,"[2, 3]",1.0,1.0,0.48431992530822754,2.7380199432373047,0.6641215724437743,,853.0
B,L,"[2, 2]",1.0,2.0,0.17804694175720215,1.5997231006622314,0.41411391580922435,142.0,854.0
R,U,"[1, 2]",1.0,3.0,0.19794702529907227,1.5412919521331787,0.3221624554011924,142.0,855.0
G,D,"[2, 2]",1.0,4.0,0.23956990242004395,1.8116939067840576,0.5671090279279276,142.0,856.0
Y,R,"[2, 3]",1.0,5.0,0.2200930118560791,1.793267011642456,0.5602957390195218,142.0,857.0
B,L,"[2, 2]",1.0,6.0,0.1665201187133789,1.8165252208709717,0.6435053324051548,142.0,858.0
,,"(3, 3)",,,,,,142.0,
R,U,"[2, 3]",1.0,1.0,0.27869510650634766,2.6710050106048584,0.731085027688243,,859.0
B,L,"[2, 2]",1.0,2.0,0.18751287460327148,1.6039619445800781,0.4186721781359011,143.0,860.0
R,U,"[1, 2]",1.0,3.0,0.18036603927612305,1.569342851638794,0.38818468994050587,143.0,861.0
G,D,"[2, 2]",1.0,4.0,0.18914198875427246,1.6995699405670166,0.5043480625214014,143.0,862.0
Y,R,"[2, 3]",1.0,5.0,0.14472293853759766,1.86368989944458,0.7177518192363388,143.0,863.0
B,L,"[2, 2]",1.0,6.0,0.16033196449279785,1.6316440105438232,0.46623754775891824,143.0,864.0
,,"(3, 3)",,,,,,143.0,
R,U,"[2, 3]",1.0,1.0,0.4857468605041504,2.1396098136901855,0.2727553874121571,,865.0
B,L,"[2, 2]",1.0,2.0,0.34025096893310547,1.667893886566162,0.32422667748579603,144.0,866.0
R,U,"[1, 2]",1.0,3.0,0.2607297897338867,1.6519849300384521,0.3926372998231182,144.0,867.0
G,D,"[2, 2]",1.0,4.0,0.17957210540771484,1.7524499893188477,0.5784227133431348,144.0,868.0
Y,R,"[2, 3]",1.0,5.0,0.19562411308288574,1.8458819389343262,0.6574974625663532,144.0,869.0
B,L,"[2, 2]",1.0,6.0,0.148637056350708,1.540898084640503,0.3986422318387095,144.0,870.0
,,"(3, 3)",,,,,,144.0,
R,U,"[2, 3]",1.0,1.0,0.5460081100463867,2.2617671489715576,0.49351584098711915,,871.0
B,L,"[2, 2]",1.0,2.0,0.12251710891723633,1.4693751335144043,0.3464313071810216,145.0,872.0
R,U,"[1, 2]",1.0,3.0,0.1570580005645752,1.8571689128875732,0.6865564461227269,145.0,873.0
G,D,"[2, 2]",1.0,4.0,0.3152451515197754,1.6414189338684082,0.32832370159663804,145.0,874.0
Y,R,"[2, 3]",-1.0,4.0,0.001878976821899414,5.772909164428711,0.651088850585877,145.0,875.0
R,U,"[1, 3]",-1.0,3.0,0.368441104888916,1.870426893234253,0.4882537487956817,145.0,876.0
,,"(3, 3)",,,,,,145.0,
R,U,"[2, 3]",1.0,1.0,0.48133301734924316,3.5115108489990234,0.7163616844468192,,877.0
R,U,"[1, 3]",-1.0,1.0,0.02013111114501953,5.745830059051514,0.5959148857572197,146.0,878.0
R,U,"[0, 3]",0.0,1.0,0.5357389450073242,1.9309289455413818,0.3935759167528063,146.0,879.0
G,D,"[1, 3]",-1.0,0.0,0.24009394645690918,1.8242990970611572,0.5844930241373595,146.0,880.0
Y,R,"[1, 4]",-1.0,-1.0,0.13973212242126465,1.4839000701904297,0.33521674089770626,146.0,881.0
B,L,"[1, 3]",-1.0,-2.0,0.2227020263671875,1.8448889255523682,0.6130030141753222,146.0,882.0
,,"(3, 3)",,,,,,146.0,
R,U,"[2, 3]",1.0,1.0,0.3017861843109131,3.3678719997406006,0.6643317221187433,,883.0
B,L,"[2, 2]",1.0,2.0,0.19462990760803223,1.8344969749450684,0.6321109326603034,147.0,884.0
R,U,"[1, 2]",1.0,3.0,0.1522359848022461,1.519705057144165,0.3520932354649556,147.0,885.0
G,D,"[2, 2]",1.0,4.0,0.2444009780883789,1.9883360862731934,0.7400990875260163,147.0,886.0
Y,R,"[2, 3]",1.0,5.0,0.17308902740478516,1.4738891124725342,0.2977555708639709,147.0,887.0
B,L,"[2, 2]",1.0,6.0,0.22380399703979492,1.593738079071045,0.3580896576466073,147.0,888.0
,,"(3, 3)",,,,,,147.0,
R,U,"[2, 3]",1.0,1.0,0.2681150436401367,2.217189073562622,0.6253355113590018,,889.0
B,L,"[2, 2]",1.0,2.0,0.20992207527160645,1.6197121143341064,0.4117165141704059,148.0,890.0
R,U,"[1, 2]",1.0,3.0,0.27909302711486816,1.7566709518432617,0.4850232958568827,148.0,891.0
G,D,"[2, 2]",1.0,4.0,0.16039204597473145,1.7342588901519775,0.5693775843375617,148.0,892.0
Y,R,"[2, 3]",1.0,5.0,0.16909098625183105,1.440476894378662,0.2601474061787535,148.0,893.0
B,L,"[2, 2]",1.0,6.0,0.22380781173706055,1.6933810710906982,0.47002476016098854,148.0,894.0
,,"(3, 3)",,,,,,148.0,
R,U,"[2, 3]",1.0,1.0,0.2364518642425537,1.9889888763427734,0.4423028242292151,,895.0
B,L,"[2, 2]",1.0,2.0,0.34268712997436523,2.064409017562866,0.723178238286061,149.0,896.0
R,U,"[1, 2]",-1.0,2.0,0.03185892105102539,5.562582015991211,0.40271392016078067,149.0,897.0
G,D,"[2, 2]",1.0,3.0,0.27222394943237305,1.5706391334533691,0.30681995173316406,149.0,898.0
Y,R,"[2, 3]",1.0,4.0,0.28524112701416016,1.8951010704040527,0.601605657134378,149.0,899.0
B,L,"[2, 2]",1.0,5.0,0.18812012672424316,1.8682301044464111,0.6699660256903703,149.0,900.0
,,"(3, 3)",,,,,,149.0,
R,U,"[2, 3]",1.0,1.0,0.490947961807251,2.279258966445923,0.532529199641034,,901.0
B,L,"[2, 2]",1.0,2.0,0.21705412864685059,1.6570439338684082,0.42302719075049533,150.0,902.0
R,U,"[1, 2]",1.0,3.0,0.22322797775268555,1.694777011871338,0.46798790285723557,150.0,903.0
G,D,"[2, 2]",1.0,4.0,0.26102590560913086,1.838728904724121,0.5731879319264848,150.0,904.0
Y,R,"[2, 3]",1.0,5.0,0.22375798225402832,1.859755039215088,0.6330999207284075,150.0,905.0
B,L,"[2, 2]",1.0,6.0,0.17226195335388184,1.8356928825378418,0.6519671887748947,150.0,906.0
,,"(3, 3)",,,,,,150.0,
R,U,"[2, 3]",1.0,1.0,0.396442174911499,2.167004108428955,0.5523006515341035,,907.0
B,L,"[2, 2]",1.0,2.0,0.16608500480651855,1.7406599521636963,0.5596964132640423,151.0,908.0
R,U,"[1, 2]",1.0,3.0,0.1895008087158203,1.662735939025879,0.4724725892927686,151.0,909.0
G,D,"[2, 2]",1.0,4.0,0.1859419345855713,1.4870851039886475,0.3098457704964827,151.0,910.0
B,L,"[2, 1]",1.0,5.0,0.23648691177368164,1.7362010478973389,0.4961779659938296,151.0,911.0
B,L,"[2, 0]",0.0,5.0,0.31545305252075195,1.8699278831481934,0.5491693806259939,151.0,912.0
,,"(3, 3)",,,,,,151.0,
R,U,"[2, 3]",1.0,1.0,0.4238440990447998,2.675112009048462,0.6075858900737117,,913.0
B,L,"[2, 2]",1.0,2.0,0.17507195472717285,1.622452974319458,0.4468667461095437,152.0,914.0
R,U,"[1, 2]",1.0,3.0,0.18376398086547852,1.6425771713256836,0.4561186445190424,152.0,915.0
G,D,"[2, 2]",1.0,4.0,0.17642498016357422,1.513240098953247,0.33615494720792916,152.0,916.0
B,L,"[2, 1]",1.0,5.0,0.11098098754882812,1.3709290027618408,0.2571652221107442,152.0,917.0
Y,R,"[2, 2]",1.0,6.0,0.24205493927001953,1.7933111190795898,0.5501667796159195,152.0,918.0
,,"(3, 3)",,,,,,152.0,
R,U,"[2, 3]",1.0,1.0,0.3591170310974121,2.472100019454956,0.4724565313420818,,919.0
B,L,"[2, 2]",1.0,2.0,0.1681969165802002,1.6585071086883545,0.4810147150966894,153.0,920.0
R,U,"[1, 2]",-1.0,2.0,0.07967519760131836,5.850227117538452,0.6311398092959389,153.0,921.0
G,D,"[2, 2]",1.0,3.0,0.35141706466674805,1.8474791049957275,0.4787293734165008,153.0,922.0
B,L,"[2, 1]",1.0,4.0,0.19210100173950195,1.7339599132537842,0.5460598655917495,153.0,923.0
Y,R,"[2, 2]",1.0,5.0,0.21614694595336914,1.8446259498596191,0.6072811074473485,153.0,924.0
,,"(3, 3)",,,,,,153.0,
R,U,"[2, 3]",1.0,1.0,0.7111811637878418,2.7361021041870117,0.526988480205612,,925.0
B,L,"[2, 2]",1.0,2.0,0.18048596382141113,1.5372669696807861,0.3644196236110433,154.0,926.0
R,U,"[1, 2]",1.0,3.0,0.22834205627441406,1.5562608242034912,0.32053656925517937,154.0,927.0
G,D,"[2, 2]",1.0,4.0,0.22427105903625488,1.7902088165283203,0.5605346486170015,154.0,928.0
Y,R,"[2, 3]",1.0,5.0,0.17513108253479004,1.74373197555542,0.5710808063486557,154.0,929.0
R,U,"[1, 3]",-1.0,4.0,0.1230309009552002,1.447026014328003,0.3182344043299309,154.0,930.0
,,"(3, 3)",,,,,,154.0,
R,U,"[2, 3]",1.0,1.0,0.5987579822540283,2.798642158508301,0.5834686724601328,,931.0
B,L,"[2, 2]",1.0,2.0,0.39397406578063965,1.940277099609375,0.540514551793718,155.0,932.0
R,U,"[1, 2]",1.0,3.0,0.19745492935180664,1.662790060043335,0.46993445630883607,155.0,933.0
G,D,"[2, 2]",1.0,4.0,0.2097940444946289,1.6287460327148438,0.4155116083610944,155.0,934.0
Y,R,"[2, 3]",1.0,5.0,0.1645498275756836,1.4559719562530518,0.2883040344601559,155.0,935.0
B,L,"[2, 2]",1.0,6.0,0.2193470001220703,1.5791490077972412,0.3674734639652135,155.0,936.0
,,"(3, 3)",,,,,,155.0,
G,D,"[4, 3]",-1.0,-1.0,0.35435986518859863,2.425997018814087,0.3601523363171053,,937.0
R,U,"[3, 3]",-1.0,-1.0,0.013756036758422852,5.710409164428711,0.570251084639511,156.0,938.0
Y,R,"[3, 4]",-1.0,-2.0,0.19373393058776855,1.5127460956573486,0.31660416996418933,156.0,939.0
B,L,"[3, 3]",-2.0,-4.0,0.2149639129638672,1.9819340705871582,0.7482650415239951,156.0,940.0
R,U,"[2, 3]",1.0,-3.0,0.41152501106262207,1.788870096206665,0.37080839966652995,156.0,941.0
R,U,"[1, 3]",-1.0,-4.0,0.4321460723876953,2.0213329792022705,0.5753622982845814,156.0,942.0
,,"(3, 3)",,,,,,156.0,
R,U,"[2, 3]",1.0,1.0,0.4637441635131836,2.4504449367523193,0.4925317877171735,,943.0
B,L,"[2, 2]",1.0,2.0,0.20862412452697754,1.553598165512085,0.34637666548764734,157.0,944.0
R,U,"[1, 2]",1.0,3.0,0.2598719596862793,1.681870937347412,0.4116090645390731,157.0,945.0
G,D,"[2, 2]",1.0,4.0,0.21104216575622559,1.9340019226074219,0.7285832162950572,157.0,946.0
Y,R,"[2, 3]",1.0,5.0,0.18680214881896973,1.833916187286377,0.6459392963614021,157.0,947.0
B,L,"[2, 2]",1.0,6.0,0.2498629093170166,1.921699047088623,0.667792952115734,157.0,948.0
,,"(3, 3)",,,,,,157.0,
R,U,"[2, 3]",1.0,1.0,0.42389893531799316,3.107215166091919,0.4917944616674255,,949.0
B,L,"[2, 2]",1.0,2.0,0.1991879940032959,1.7609100341796875,0.5694558483266303,158.0,950.0
R,U,"[1, 2]",1.0,3.0,0.2252519130706787,1.7418830394744873,0.5113558269087606,158.0,951.0
G,D,"[2, 2]",1.0,4.0,0.21002697944641113,1.7896089553833008,0.5840981249416662,158.0,952.0
Y,R,"[2, 3]",1.0,5.0,0.19785594940185547,1.7176620960235596,0.518489490655313,158.0,953.0
B,L,"[2, 2]",1.0,6.0,0.19119715690612793,1.529231071472168,0.3314618479058895,158.0,954.0
,,"(3, 3)",,,,,,158.0,
R,U,"[2, 3]",1.0,1.0,0.40218400955200195,2.7352840900421143,0.3334332462592511,,955.0
B,L,"[2, 2]",1.0,2.0,0.19946599006652832,1.915982961654663,0.6989230335963375,159.0,956.0
R,U,"[1, 2]",1.0,3.0,0.18774080276489258,1.6888818740844727,0.5046551635796007,159.0,957.0
G,D,"[2, 2]",1.0,4.0,0.21434497833251953,1.6681578159332275,0.45623323967300766,159.0,958.0
B,L,"[2, 1]",1.0,5.0,0.23975205421447754,1.6091699600219727,0.3823061406852584,159.0,959.0
Y,R,"[2, 2]",1.0,6.0,0.27124881744384766,1.7259299755096436,0.4413838552856991,159.0,960.0
,,"(3, 3)",,,,,,159.0,
G,D,"[4, 3]",-1.0,-1.0,0.6029338836669922,2.584522008895874,0.5259798433538081,,961.0
R,U,"[3, 3]",-2.0,-3.0,0.24194097518920898,1.6165368556976318,0.37605927566338754,160.0,962.0
B,L,"[3, 2]",-1.0,-4.0,0.21534109115600586,1.6019790172576904,0.3780948976833467,160.0,963.0
Y,R,"[3, 3]",-1.0,-4.0,0.08424210548400879,5.6728599071502686,0.46764087377868707,160.0,964.0
Y,R,"[3, 4]",-1.0,-5.0,0.24782705307006836,1.8565280437469482,0.607314685102438,160.0,965.0
B,L,"[3, 3]",-2.0,-7.0,0.159804105758667,1.68648099899292,0.5272747316742121,160.0,966.0
,,"(3, 3)",,,,,,160.0,
R,U,"[2, 3]",1.0,1.0,0.49904489517211914,2.488063097000122,0.5984816466865996,,967.0
B,L,"[2, 2]",1.0,2.0,0.23634004592895508,1.9463469982147217,0.6947781034009881,161.0,968.0
R,U,"[1, 2]",1.0,3.0,0.21316790580749512,1.9127888679504395,0.7078069141730488,161.0,969.0
G,D,"[2, 2]",1.0,4.0,0.2503471374511719,1.510004997253418,0.25174164093967843,161.0,970.0
Y,R,"[2, 3]",1.0,5.0,0.2766139507293701,1.9301440715789795,0.6480790377025185,161.0,971.0
B,L,"[2, 2]",1.0,6.0,0.18638992309570312,1.9335579872131348,0.7313589829511326,161.0,972.0
,,"(3, 3)",,,,,,161.0,
R,U,"[2, 3]",1.0,1.0,0.48787498474121094,7.401428937911987,0.4333322222799007,,973.0
B,L,"[2, 2]",1.0,2.0,0.2588820457458496,1.7720911502838135,0.5052798073386673,162.0,974.0
R,U,"[1, 2]",1.0,3.0,0.22807002067565918,1.6204280853271484,0.39250545683192944,162.0,975.0
G,D,"[2, 2]",1.0,4.0,0.25931406021118164,1.605449914932251,0.3481039745451438,162.0,976.0
Y,R,"[2, 3]",1.0,5.0,0.27848291397094727,1.6392991542816162,0.3542515887671492,162.0,977.0
B,L,"[2, 2]",1.0,6.0,0.3003671169281006,1.8238000869750977,0.5111419275715747,162.0,978.0
,,"(3, 3)",,,,,,162.0,
R,U,"[2, 3]",1.0,1.0,0.4040491580963135,2.34279203414917,0.6043832298669249,,979.0
R,U,"[1, 3]",-1.0,0.0,0.22961807250976562,1.890538215637207,0.6443628524309528,163.0,980.0
G,D,"[2, 3]",1.0,1.0,0.2741210460662842,1.755342960357666,0.4832788518401182,163.0,981.0
G,D,"[3, 3]",-2.0,-1.0,0.7633848190307617,2.105614185333252,0.322514018411554,163.0,982.0
Y,R,"[3, 4]",-1.0,-2.0,0.23270010948181152,1.822464942932129,0.5780665518281443,163.0,983.0
B,L,"[3, 3]",-2.0,-4.0,0.17472195625305176,1.8252599239349365,0.6532523848538676,163.0,984.0
,,"(3, 3)",,,,,,163.0,
R,U,"[2, 3]",1.0,1.0,0.3502070903778076,2.494002103805542,0.7472104453425468,,985.0
B,L,"[2, 2]",1.0,2.0,0.17656278610229492,1.6146860122680664,0.4288201663388485,164.0,986.0
R,U,"[1, 2]",1.0,3.0,0.28742003440856934,2.0335049629211426,0.7453413633720812,164.0,987.0
G,D,"[2, 2]",1.0,4.0,0.20913004875183105,1.9503800868988037,0.7458845773553129,164.0,988.0
Y,R,"[2, 3]",1.0,5.0,0.1662440299987793,1.4964609146118164,0.3093280223619928,164.0,989.0
B,L,"[2, 2]",1.0,6.0,0.28203511238098145,1.6127068996429443,0.3220299787510644,164.0,990.0
,,"(3, 3)",,,,,,164.0,
R,U,"[2, 3]",1.0,1.0,0.3223409652709961,2.0524678230285645,0.3080225536865905,,991.0
B,L,"[2, 2]",1.0,2.0,0.23710417747497559,1.9206039905548096,0.6782465413963701,165.0,992.0
R,U,"[1, 2]",1.0,3.0,0.4068028926849365,1.7593021392822266,0.3544569160082522,165.0,993.0
G,D,"[2, 2]",1.0,4.0,0.34987497329711914,1.7741739749908447,0.4121441892798211,165.0,994.0
Y,R,"[2, 3]",1.0,5.0,0.2282271385192871,1.831144094467163,0.6098955547661509,165.0,995.0
B,L,"[2, 2]",1.0,6.0,0.17899012565612793,1.8910491466522217,0.7172404548683373,165.0,996.0
,,"(3, 3)",,,,,,165.0,
R,U,"[2, 3]",1.0,1.0,0.2619791030883789,1.9133479595184326,0.31443693123115873,,997.0
B,L,"[2, 2]",1.0,2.0,0.21441006660461426,1.8974790573120117,0.6784027678676561,166.0,998.0
R,U,"[1, 2]",1.0,3.0,0.21186089515686035,1.8908770084381104,0.6858361763852928,166.0,999.0
G,D,"[2, 2]",1.0,4.0,0.197951078414917,1.8589680194854736,0.6449807196925963,166.0,1000.0
Y,R,"[2, 3]",1.0,5.0,0.1727001667022705,1.7880239486694336,0.616506124888959,166.0,1001.0
B,L,"[2, 2]",-1.0,5.0,0.09885096549987793,5.792689085006714,0.5593709928776727,166.0,1002.0
,,"(3, 3)",,,,,,166.0,
R,U,"[2, 3]",1.0,1.0,0.1933917999267578,2.470737934112549,0.5466033750506256,,1003.0
B,L,"[2, 2]",1.0,2.0,0.24582600593566895,1.704629898071289,0.4513818016029349,167.0,1004.0
R,U,"[1, 2]",1.0,3.0,0.2348179817199707,1.7626371383666992,0.5140706343933942,167.0,1005.0
Y,R,"[1, 3]",-1.0,2.0,0.1722240447998047,1.653012990951538,0.46703004015725097,167.0,1006.0
R,U,"[0, 3]",-1.0,2.0,0.0743260383605957,5.834559202194214,0.6181555100725871,167.0,1007.0
G,D,"[1, 3]",-1.0,1.0,0.2829320430755615,1.946502923965454,0.6314272601581965,167.0,1008.0
,,"(3, 3)",,,,,,167.0,
R,U,"[2, 3]",1.0,1.0,0.10605621337890625,2.5957038402557373,0.6438416090576952,,1009.0
B,L,"[2, 2]",1.0,2.0,0.6495211124420166,2.1789920330047607,0.5232051559609594,168.0,1010.0
R,U,"[1, 2]",1.0,3.0,0.28397107124328613,1.8541629314422607,0.5606653760159184,168.0,1011.0
G,D,"[2, 2]",1.0,4.0,0.22705698013305664,1.484623908996582,0.2622231547757224,168.0,1012.0
Y,R,"[2, 3]",1.0,5.0,0.3426368236541748,2.0732262134552,0.7348939483171609,168.0,1013.0
B,L,"[2, 2]",1.0,6.0,0.20624709129333496,1.6258950233459473,0.4110702396233525,168.0,1014.0
,,"(3, 3)",,,,,,168.0,
R,U,"[2, 3]",1.0,1.0,0.3384878635406494,1.9080510139465332,0.2527782914525698,,1015.0
B,L,"[2, 2]",1.0,2.0,0.19098615646362305,1.8521451950073242,0.6546002614082052,169.0,1016.0
R,U,"[1, 2]",1.0,3.0,0.1590101718902588,1.5936810970306396,0.43179867913630243,169.0,1017.0
G,D,"[2, 2]",1.0,4.0,0.13184809684753418,1.3952178955078125,0.26041774346957836,169.0,1018.0
B,L,"[2, 1]",1.0,5.0,0.2554740905761719,1.8910598754882812,0.634701532137582,169.0,1019.0
Y,R,"[2, 2]",-1.0,5.0,0.015875816345214844,5.862836122512817,0.7142075121197964,169.0,1020.0
,,"(3, 3)",,,,,,169.0,
R,U,"[2, 3]",1.0,1.0,0.36147022247314453,2.670474052429199,0.6513991404153956,,1021.0
B,L,"[2, 2]",1.0,2.0,0.20331597328186035,1.9395232200622559,0.7242536477730955,170.0,1022.0
R,U,"[1, 2]",1.0,3.0,0.2080249786376953,1.7062499523162842,0.49735712247038416,170.0,1023.0
G,D,"[2, 2]",1.0,4.0,0.25786614418029785,1.553056001663208,0.2840703555732248,170.0,1024.0
B,L,"[2, 1]",1.0,5.0,0.22390007972717285,1.608396053314209,0.3756133611816552,170.0,1025.0
Y,R,"[2, 2]",1.0,6.0,0.30083513259887695,1.806251049041748,0.5151522357949616,170.0,1026.0
,,"(3, 3)",,,,,,170.0,
R,U,"[2, 3]",-1.0,0.0,0.00924992561340332,5.749370098114014,0.3646999098824768,,1027.0
B,L,"[2, 2]",1.0,1.0,0.22259998321533203,1.697087049484253,0.46165170423138446,171.0,1028.0
R,U,"[1, 2]",1.0,2.0,0.24866390228271484,1.7737171649932861,0.5354004825175658,171.0,1029.0
G,D,"[2, 2]",1.0,3.0,0.21640896797180176,1.87568998336792,0.6445234249572243,171.0,1030.0
B,L,"[2, 1]",1.0,4.0,0.19675779342651367,1.8750708103179932,0.6860668140521315,171.0,1031.0
Y,R,"[2, 2]",1.0,5.0,0.17027497291564941,1.657439947128296,0.4771657949033738,171.0,1032.0
,,"(3, 3)",,,,,,171.0,
R,U,"[2, 3]",1.0,1.0,0.39214110374450684,2.145522117614746,0.40607936180320464,,1033.0
B,L,"[2, 2]",1.0,2.0,0.11467909812927246,1.695587158203125,0.5848727201770207,172.0,1034.0
R,U,"[1, 2]",1.0,3.0,0.19614601135253906,1.4579150676727295,0.2598345145955747,172.0,1035.0
G,D,"[2, 2]",1.0,4.0,0.3012080192565918,2.0512499809265137,0.7440136002655632,172.0,1036.0
Y,R,"[2, 3]",1.0,5.0,0.17320609092712402,1.4999020099639893,0.32757889657972605,172.0,1037.0
B,L,"[2, 2]",1.0,6.0,0.27008676528930664,1.581057071685791,0.30873515173526567,172.0,1038.0
,,"(3, 3)",,,,,,172.0,
R,U,"[2, 3]",1.0,1.0,0.4072229862213135,2.4197959899902344,0.3951856074017536,,1039.0
B,L,"[2, 2]",1.0,2.0,0.24919986724853516,1.6487438678741455,0.41054809852495006,173.0,1040.0
R,U,"[1, 2]",1.0,3.0,0.18825101852416992,1.8249928951263428,0.6355928431483657,173.0,1041.0
G,D,"[2, 2]",1.0,4.0,0.19515490531921387,1.611328125,0.41357401051609377,173.0,1042.0
Y,R,"[2, 3]",1.0,5.0,0.17794299125671387,1.920551061630249,0.7340476768525359,173.0,1043.0
B,L,"[2, 2]",1.0,6.0,0.18532991409301758,1.6180601119995117,0.4189892931298414,173.0,1044.0
,,"(3, 3)",,,,,,173.0,
R,U,"[2, 3]",1.0,1.0,0.38495612144470215,2.029611110687256,0.26545761855393424,,1045.0
B,L,"[2, 2]",1.0,2.0,0.4472770690917969,1.8665151596069336,0.4150433315943683,174.0,1046.0
R,U,"[1, 2]",1.0,3.0,0.21004295349121094,1.9520411491394043,0.7328814657888332,174.0,1047.0
G,D,"[2, 2]",1.0,4.0,0.18155217170715332,1.4652190208435059,0.26500657083605184,174.0,1048.0
B,L,"[2, 1]",1.0,5.0,0.18999910354614258,1.7217161655426025,0.5194225747018327,174.0,1049.0
Y,R,"[2, 2]",1.0,6.0,0.21123814582824707,1.7368779182434082,0.5227102782363187,174.0,1050.0
,,"(3, 3)",,,,,,174.0,
R,U,"[2, 3]",1.0,1.0,0.33039188385009766,2.4819869995117188,0.5706009171308286,,1051.0
B,L,"[2, 2]",1.0,2.0,0.2195889949798584,1.809844970703125,0.579922806148489,175.0,1052.0
R,U,"[1, 2]",1.0,3.0,0.22472310066223145,1.5744781494140625,0.33783752507883913,175.0,1053.0
G,D,"[2, 2]",1.0,4.0,0.24523496627807617,1.5615570545196533,0.31575973485995035,175.0,1054.0
Y,R,"[2, 3]",1.0,5.0,0.22838783264160156,1.83896803855896,0.6040106582974347,175.0,1055.0
B,L,"[2, 2]",1.0,6.0,0.19300508499145508,1.81868577003479,0.6221353049164031,175.0,1056.0
,,"(3, 3)",,,,,,175.0,
R,U,"[2, 3]",1.0,1.0,0.22415590286254883,2.495267868041992,0.6503390295876377,,1057.0
B,L,"[2, 2]",1.0,2.0,0.19128799438476562,1.573272943496704,0.373507993715572,176.0,1058.0
R,U,"[1, 2]",1.0,3.0,0.16971206665039062,1.5534510612487793,0.37653099812700114,176.0,1059.0
G,D,"[2, 2]",1.0,4.0,0.23651599884033203,1.8585009574890137,0.6176028180906395,176.0,1060.0
Y,R,"[2, 3]",1.0,5.0,0.19122099876403809,1.4513640403747559,0.25231840032141484,176.0,1061.0
B,L,"[2, 2]",1.0,6.0,0.22980809211730957,1.7142040729522705,0.48288827210334273,176.0,1062.0
,,"(3, 3)",,,,,,176.0,
R,U,"[2, 3]",1.0,1.0,0.24107789993286133,2.6040170192718506,0.7026896357557297,,1063.0
B,L,"[2, 2]",1.0,2.0,0.8362689018249512,2.1301968097686768,0.28301361754673576,177.0,1064.0
R,U,"[1, 2]",1.0,3.0,0.2487950325012207,1.9233920574188232,0.6554554269135153,177.0,1065.0
R,U,"[0, 2]",0.0,3.0,0.16611886024475098,1.6925430297851562,0.5145281483992092,177.0,1066.0
Y,R,"[0, 3]",0.0,3.0,0.25214195251464844,1.5982639789581299,0.34586321920893653,177.0,1067.0
B,L,"[0, 2]",0.0,3.0,0.446505069732666,1.884634017944336,0.41342757639176914,177.0,1068.0
,,"(3, 3)",,,,,,177.0,
R,U,"[2, 3]",1.0,1.0,0.35680699348449707,2.2282729148864746,0.574555077108432,,1069.0
B,L,"[2, 2]",1.0,2.0,0.21599197387695312,1.7244329452514648,0.49873289123328524,178.0,1070.0
R,U,"[1, 2]",1.0,3.0,0.2695310115814209,1.7266871929168701,0.44179615654301396,178.0,1071.0
G,D,"[2, 2]",1.0,4.0,0.22295403480529785,1.699808120727539,0.47458869342626536,178.0,1072.0
Y,R,"[2, 3]",1.0,5.0,0.20827007293701172,1.6129319667816162,0.4036948699949672,178.0,1073.0
B,L,"[2, 2]",1.0,6.0,0.2411491870880127,1.5829620361328125,0.3365766113911237,178.0,1074.0
,,"(3, 3)",,,,,,178.0,
