button_choice,action_choice,coordinate_choice,reward,cumulative_reward,rt,total_trial_time,iti,block_n,trial_n
G,D,"[4, 3]",-2.0,0.0,1.9353389739990234,3.372189998626709,0.4065730270804127,0.0,1.0
B,L,"[4, 2]",-1.0,-1.0,0.5697588920593262,2.2386250495910645,0.6618840704019961,0.0,2.0
G,D,"[5, 2]",-1.0,-2.0,0.6382219791412354,2.0792460441589355,0.44158151431995957,0.0,3.0
B,L,"[5, 1]",-1.0,-3.0,0.9629178047180176,2.607344150543213,0.6488789696764812,0.0,4.0
Y,R,"[5, 2]",0.0,-3.0,0.46446895599365234,1.8311290740966797,0.36386094552658593,0.0,5.0
R,U,"[4, 2]",0.0,-3.0,0.33211302757263184,1.878598928451538,0.5424547965001418,0.0,6.0
,,"(3, 3)",,,,,,0.0,
R,U,"[2, 3]",-2.0,0.0,1.7359490394592285,8.642200946807861,0.7354482619760636,,7.0
R,U,"[1, 3]",1.0,1.0,0.2640061378479004,1.5475749969482422,0.26703610303714587,1.0,8.0
Y,R,"[1, 4]",-1.0,0.0,0.47305989265441895,2.1858279705047607,0.7024616188628472,1.0,9.0
R,U,"[0, 4]",0.0,0.0,0.3748319149017334,1.9156608581542969,0.5353915869060404,1.0,10.0
G,D,"[1, 4]",0.0,0.0,0.1840221881866455,1.8453760147094727,0.663890374431895,1.0,11.0
B,L,"[1, 3]",0.0,0.0,0.18418097496032715,1.5407960414886475,0.35508288615524125,1.0,12.0
,,"(3, 3)",,,,,,1.0,
R,U,"[2, 3]",-1.0,-1.0,0.45726609230041504,6.403141975402832,0.30878747291897407,,13.0
G,D,"[3, 3]",0.0,-1.0,0.32011890411376953,2.0566539764404297,0.7318564841310096,2.0,14.0
B,L,"[3, 2]",1.0,0.0,0.2703979015350342,1.8735151290893555,0.5890679994994659,2.0,15.0
Y,R,"[3, 3]",0.0,0.0,0.4247438907623291,1.7685160636901855,0.3412741059577912,2.0,16.0
B,L,"[3, 2]",0.0,0.0,0.621129035949707,2.3190560340881348,0.7102021257045754,2.0,17.0
B,L,"[3, 1]",1.0,1.0,0.6396558284759521,2.051190137863159,0.41202013514948976,2.0,18.0
,,"(3, 3)",,,,,,2.0,
B,L,"[3, 2]",1.0,1.0,0.6895878314971924,5.893667936325073,0.3062227550981502,,19.0
G,D,"[4, 2]",-1.0,0.0,0.3788440227508545,1.6941430568695068,0.3005110395370402,3.0,20.0
B,L,"[4, 1]",-1.0,-1.0,0.583859920501709,1.9788498878479004,0.37944285540573724,3.0,21.0
R,U,"[3, 1]",1.0,0.0,0.17612814903259277,1.663809061050415,0.476437925961915,3.0,22.0
R,U,"[2, 1]",1.0,1.0,0.2140200138092041,1.5238440036773682,0.31738191388438314,3.0,23.0
R,U,"[1, 1]",-1.0,0.0,0.3785679340362549,1.725358009338379,0.32619633435734735,3.0,24.0
,,"(3, 3)",,,,,,3.0,
R,U,"[2, 3]",-1.0,-1.0,0.6628990173339844,5.708835124969482,0.6017633338348617,,25.0
B,L,"[2, 2]",1.0,0.0,0.2522869110107422,1.9960319995880127,0.7311977004079957,4.0,26.0
B,L,"[2, 1]",1.0,1.0,0.3114910125732422,1.905303955078125,0.5867111950539606,4.0,27.0
B,L,"[2, 0]",0.0,1.0,0.36449480056762695,1.890477180480957,0.5272879162333599,4.0,28.0
Y,R,"[2, 1]",0.0,1.0,0.3375051021575928,2.08207106590271,0.7427011808848565,4.0,29.0
G,D,"[3, 1]",1.0,2.0,0.513908863067627,2.259497880935669,0.735631042722218,4.0,30.0
,,"(3, 3)",,,,,,4.0,
B,L,"[3, 2]",1.0,1.0,0.65299391746521,5.468898057937622,0.7051029327708993,,31.0
B,L,"[3, 1]",1.0,2.0,0.25888895988464355,1.9145269393920898,0.6529512829642194,5.0,32.0
B,L,"[3, 0]",0.0,2.0,0.3815891742706299,1.9947571754455566,0.6146236962839686,5.0,33.0
G,D,"[4, 0]",0.0,2.0,0.40759992599487305,2.116166830062866,0.6974442398201721,5.0,34.0
R,U,"[3, 0]",0.0,2.0,0.23187017440795898,1.4969580173492432,0.26183644218637897,5.0,35.0
B,L,"[3, 0]",0.0,2.0,0.4526360034942627,1.9522221088409424,0.5137919814209646,5.0,36.0
,,"(3, 3)",,,,,,5.0,
B,L,"[3, 2]",1.0,1.0,0.7276260852813721,3.9843709468841553,0.5983181494547684,,37.0
B,L,"[3, 1]",1.0,2.0,0.24065208435058594,1.6644251346588135,0.4129607123714404,6.0,38.0
B,L,"[3, 0]",0.0,2.0,0.34807896614074707,1.6385250091552734,0.28499665340063524,6.0,39.0
R,U,"[2, 0]",0.0,2.0,0.3708188533782959,1.6725609302520752,0.30764077843020143,6.0,40.0
Y,R,"[2, 1]",1.0,3.0,0.2913329601287842,1.7587001323699951,0.4664381108981757,6.0,41.0
Y,R,"[2, 2]",1.0,4.0,0.22061610221862793,1.7662889957427979,0.5326886773571857,6.0,42.0
,,"(3, 3)",,,,,,6.0,
B,L,"[3, 2]",1.0,1.0,0.6790330410003662,3.775465965270996,0.6081658152059196,,43.0
B,L,"[3, 1]",1.0,2.0,0.2554590702056885,1.7988450527191162,0.5405123143899191,7.0,44.0
B,L,"[3, 0]",0.0,2.0,0.38556718826293945,2.1024630069732666,0.709743806905397,7.0,45.0
Y,R,"[3, 1]",0.0,2.0,0.10986995697021484,1.7091140747070312,0.6022997768793091,7.0,46.0
R,U,"[2, 1]",-1.0,2.0,0.007227182388305664,5.561119794845581,0.43045045962624545,7.0,47.0
R,U,"[1, 1]",-1.0,1.0,0.6806540489196777,2.107848882675171,0.40512347181873065,7.0,48.0
,,"(3, 3)",,,,,,7.0,
B,L,"[3, 2]",1.0,1.0,0.9250810146331787,4.391906023025513,0.7134799463142332,,49.0
B,L,"[3, 1]",1.0,2.0,0.34673190116882324,1.8250818252563477,0.47239252179829544,8.0,50.0
B,L,"[3, 0]",0.0,2.0,0.351071834564209,1.8492090702056885,0.48823916700492603,8.0,51.0
Y,R,"[3, 1]",0.0,2.0,0.6202690601348877,2.009437084197998,0.397908612418892,8.0,52.0
G,D,"[4, 1]",-1.0,1.0,0.7075850963592529,2.071018934249878,0.3523093270253072,8.0,53.0
R,U,"[3, 1]",0.0,1.0,0.7567858695983887,2.0943398475646973,0.33014092051791266,8.0,54.0
,,"(3, 3)",,,,,,8.0,
B,L,"[3, 2]",1.0,1.0,0.7650418281555176,4.176915168762207,0.5406675749073349,,55.0
B,L,"[3, 1]",1.0,2.0,0.4505040645599365,2.1784420013427734,0.7354794438312577,9.0,56.0
B,L,"[3, 0]",0.0,2.0,0.5133829116821289,2.249458074569702,0.7351782546240897,9.0,57.0
Y,R,"[3, 1]",0.0,2.0,0.38124608993530273,1.9564621448516846,0.5751204039171371,9.0,58.0
R,U,"[2, 1]",1.0,3.0,0.48737120628356934,2.104862928390503,0.6132493765131704,9.0,59.0
R,U,"[1, 1]",-1.0,2.0,0.3899807929992676,2.0196049213409424,0.6163375597465487,9.0,60.0
,,"(3, 3)",,,,,,9.0,
B,L,"[3, 2]",-2.0,0.0,1.390321969985962,4.306554079055786,0.42310017796636157,,61.0
B,L,"[3, 1]",1.0,1.0,0.38206911087036133,2.033890962600708,0.6568988648713077,10.0,62.0
B,L,"[3, 0]",0.0,1.0,0.49303317070007324,1.9513812065124512,0.4585494375779039,10.0,63.0
R,U,"[2, 0]",0.0,1.0,0.43932294845581055,2.0382080078125,0.596672466481462,10.0,64.0
G,D,"[3, 0]",0.0,1.0,0.6645171642303467,2.0452277660369873,0.3753905886488987,10.0,65.0
B,L,"[3, 0]",0.0,1.0,0.4938619136810303,2.035654067993164,0.5443395446409914,10.0,66.0
,,"(3, 3)",,,,,,10.0,
B,L,"[3, 2]",1.0,1.0,0.6229450702667236,4.796170949935913,0.3408010172252555,,67.0
B,L,"[3, 1]",1.0,2.0,0.39391016960144043,1.8861770629882812,0.49381468378387383,11.0,68.0
R,U,"[2, 1]",1.0,3.0,0.46570396423339844,1.924452781677246,0.4514679495741043,11.0,69.0
R,U,"[1, 1]",-1.0,2.0,0.3084421157836914,1.6786448955535889,0.36379086931326354,11.0,70.0
Y,R,"[1, 2]",1.0,3.0,0.7110080718994141,2.43681001663208,0.7170346004115107,11.0,71.0
Y,R,"[1, 3]",1.0,4.0,0.35073089599609375,1.6205549240112305,0.25444702313532075,11.0,72.0
,,"(3, 3)",,,,,,11.0,
B,L,"[3, 2]",1.0,1.0,0.6248948574066162,4.582454204559326,0.35377575247599097,,73.0
B,L,"[3, 1]",1.0,2.0,0.2997889518737793,1.9516808986663818,0.6384807795408975,12.0,74.0
R,U,"[2, 1]",1.0,3.0,0.3449869155883789,2.0229318141937256,0.678213743205988,12.0,75.0
Y,R,"[2, 2]",1.0,4.0,0.36040282249450684,1.8729479312896729,0.5180015260027628,12.0,76.0
Y,R,"[2, 3]",-1.0,3.0,0.24411392211914062,1.8370821475982666,0.5882258558066843,12.0,77.0
G,D,"[3, 3]",0.0,3.0,0.8318319320678711,2.431741952896118,0.6033811314977363,12.0,78.0
,,"(3, 3)",,,,,,12.0,
B,L,"[3, 2]",1.0,1.0,0.6722409725189209,4.759410858154297,0.47969624045600784,,79.0
B,L,"[3, 1]",1.0,2.0,0.24108314514160156,1.7484560012817383,0.4950109883398914,13.0,80.0
R,U,"[2, 1]",1.0,3.0,0.3138389587402344,1.7184059619903564,0.4135144762074581,13.0,81.0
Y,R,"[2, 2]",1.0,4.0,0.3125641345977783,1.8376858234405518,0.5176281085080874,13.0,82.0
G,D,"[3, 2]",-2.0,4.0,1.1446640491485596,2.440755844116211,0.258784850665595,13.0,83.0
G,D,"[4, 2]",-1.0,3.0,0.4789700508117676,2.0064198970794678,0.5150214826776522,13.0,84.0
,,"(3, 3)",,,,,,13.0,
B,L,"[3, 2]",1.0,1.0,0.5687649250030518,3.6720829010009766,0.27072324016579224,,85.0
B,L,"[3, 1]",1.0,2.0,0.31284594535827637,1.5974681377410889,0.2848792514870388,14.0,86.0
R,U,"[2, 1]",1.0,3.0,0.36791396141052246,2.1097049713134766,0.7274630301833336,14.0,87.0
Y,R,"[2, 2]",1.0,4.0,0.3849940299987793,1.8355369567871094,0.4466756360328341,14.0,88.0
B,L,"[2, 1]",0.0,4.0,0.3180379867553711,1.7638449668884277,0.4272478868769962,14.0,89.0
R,U,"[1, 1]",-1.0,3.0,0.77606201171875,2.2522599697113037,0.4793716244348187,14.0,90.0
,,"(3, 3)",,,,,,14.0,
B,L,"[3, 2]",1.0,1.0,0.7650830745697021,3.337027072906494,0.5331149020438257,,91.0
B,L,"[3, 1]",1.0,2.0,0.33411312103271484,2.04849910736084,0.6981871166691391,15.0,92.0
R,U,"[2, 1]",1.0,3.0,0.23032903671264648,1.9234070777893066,0.6883795075788259,15.0,93.0
Y,R,"[2, 2]",1.0,4.0,0.3177659511566162,1.8210251331329346,0.4928224499991768,15.0,94.0
Y,R,"[2, 3]",-1.0,3.0,0.4811270236968994,2.176831007003784,0.6863026402308141,15.0,95.0
B,L,"[2, 2]",-2.0,3.0,1.390934944152832,3.1635890007019043,0.7330513615602132,15.0,96.0
,,"(3, 3)",,,,,,15.0,
B,L,"[3, 2]",1.0,1.0,0.5958700180053711,6.915344953536987,0.5819366681176401,,97.0
B,L,"[3, 1]",1.0,2.0,0.24285197257995605,1.769963026046753,0.5187828863822577,16.0,98.0
R,U,"[2, 1]",1.0,3.0,0.25023889541625977,1.7526559829711914,0.5048150029548166,16.0,99.0
Y,R,"[2, 2]",1.0,4.0,0.3733839988708496,2.0997819900512695,0.7211078641168198,16.0,100.0
Y,R,"[2, 3]",-1.0,3.0,0.32345104217529297,1.8289711475372314,0.5002942052084816,16.0,101.0
B,L,"[2, 2]",0.0,3.0,0.6421830654144287,2.024275064468384,0.3746447957758214,16.0,102.0
,,"(3, 3)",,,,,,16.0,
B,L,"[3, 2]",-2.0,0.0,1.0422091484069824,3.7473480701446533,0.3886445741766111,,103.0
B,L,"[3, 1]",1.0,1.0,0.45572686195373535,1.8207581043243408,0.3595235126508196,17.0,104.0
B,L,"[3, 0]",0.0,1.0,0.2473611831665039,1.8389360904693604,0.598204766933267,17.0,105.0
R,U,"[2, 0]",0.0,1.0,0.3381459712982178,1.8750450611114502,0.5234339736993436,17.0,106.0
Y,R,"[2, 1]",1.0,2.0,0.25751805305480957,1.5296530723571777,0.26972514864935865,17.0,107.0
Y,R,"[2, 2]",1.0,3.0,0.49219298362731934,1.9334189891815186,0.43653642493212197,17.0,108.0
,,"(3, 3)",,,,,,17.0,
B,L,"[3, 2]",1.0,1.0,0.568903923034668,3.756830930709839,0.4764622357241562,,109.0
B,L,"[3, 1]",1.0,2.0,0.2479569911956787,1.7387809753417969,0.49858962399847906,18.0,110.0
R,U,"[2, 1]",1.0,3.0,0.258105993270874,1.804960012435913,0.536747923636347,18.0,111.0
Y,R,"[2, 2]",1.0,4.0,0.3070800304412842,1.8615210056304932,0.5486697450572267,18.0,112.0
G,D,"[3, 2]",0.0,4.0,0.7276229858398438,2.25205397605896,0.5171935384367163,18.0,113.0
G,D,"[4, 2]",-1.0,3.0,0.3299441337585449,1.6990768909454346,0.3497683216849581,18.0,114.0
,,"(3, 3)",,,,,,18.0,
B,L,"[3, 2]",1.0,1.0,0.6499271392822266,3.2029190063476562,0.40274873447597676,,115.0
B,L,"[3, 1]",1.0,2.0,0.21589207649230957,1.6057848930358887,0.3750441028849594,19.0,116.0
R,U,"[2, 1]",1.0,3.0,0.4838831424713135,2.164160966873169,0.6723114357695119,19.0,117.0
Y,R,"[2, 2]",1.0,4.0,0.6153020858764648,2.0069539546966553,0.39634208792859577,19.0,118.0
Y,R,"[2, 3]",-1.0,3.0,0.3876688480377197,1.698868989944458,0.29528334309970533,19.0,119.0
G,D,"[3, 3]",-2.0,3.0,1.006485939025879,2.4062070846557617,0.36804745772881925,19.0,120.0
,,"(3, 3)",,,,,,19.0,
B,L,"[3, 2]",1.0,1.0,0.6088218688964844,3.785851001739502,0.7203680712520508,,121.0
B,L,"[3, 1]",1.0,2.0,0.45261216163635254,2.006993055343628,0.5440426403529979,20.0,122.0
R,U,"[2, 1]",1.0,3.0,0.4067058563232422,1.8392019271850586,0.43341917849226536,20.0,123.0
R,U,"[1, 1]",-1.0,2.0,0.3439199924468994,1.939560890197754,0.5894550254007462,20.0,124.0
Y,R,"[1, 2]",1.0,3.0,0.360612154006958,2.0124688148498535,0.6516754556781084,20.0,125.0
Y,R,"[1, 3]",1.0,4.0,0.9311199188232422,2.635577917098999,0.7039747877187494,20.0,126.0
,,"(3, 3)",,,,,,20.0,
B,L,"[3, 2]",-2.0,0.0,1.0588340759277344,4.059513092041016,0.5303153650520667,,127.0
B,L,"[3, 1]",1.0,1.0,0.35005998611450195,1.6419060230255127,0.2723593371942906,21.0,128.0
B,L,"[3, 0]",0.0,1.0,0.2908480167388916,1.8440179824829102,0.5494481788690244,21.0,129.0
R,U,"[2, 0]",0.0,1.0,0.26090407371520996,1.8490641117095947,0.5818880943236053,21.0,130.0
Y,R,"[2, 1]",1.0,2.0,0.20203399658203125,1.6662001609802246,0.4647398520256301,21.0,131.0
Y,R,"[2, 2]",1.0,3.0,0.3603360652923584,1.9727771282196045,0.604082644318967,21.0,132.0
,,"(3, 3)",,,,,,21.0,
B,L,"[3, 2]",1.0,1.0,0.5117940902709961,3.4631710052490234,0.6674570530331951,,133.0
B,L,"[3, 1]",1.0,2.0,0.28820085525512695,1.8476190567016602,0.5482938481997126,22.0,134.0
R,U,"[2, 1]",1.0,3.0,0.30617499351501465,1.7598600387573242,0.4414234219306224,22.0,135.0
Y,R,"[2, 2]",1.0,4.0,0.30428600311279297,1.7598800659179688,0.4682690543998144,22.0,136.0
Y,R,"[2, 3]",-1.0,3.0,0.2989511489868164,1.5834071636199951,0.2683493551107681,22.0,137.0
Y,R,"[2, 4]",-1.0,2.0,0.9104328155517578,2.5109310150146484,0.5960128998708749,22.0,138.0
,,"(3, 3)",,,,,,22.0,
B,L,"[3, 2]",1.0,1.0,0.9299168586730957,3.1646440029144287,0.4935071876741922,,139.0
B,L,"[3, 1]",1.0,2.0,0.21412920951843262,1.660161018371582,0.45372958270328073,23.0,140.0
R,U,"[2, 1]",1.0,3.0,0.29641103744506836,1.8192689418792725,0.5229299410464432,23.0,141.0
Y,R,"[2, 2]",1.0,4.0,0.13489794731140137,1.3975799083709717,0.25415784251202966,23.0,142.0
R,U,"[1, 2]",1.0,5.0,0.3427720069885254,1.6917271614074707,0.34584677683548776,23.0,143.0
Y,R,"[1, 3]",1.0,6.0,0.5265231132507324,1.7844979763031006,0.26366529658795496,23.0,144.0
,,"(3, 3)",,,,,,23.0,
B,L,"[3, 2]",1.0,1.0,0.6020340919494629,3.3348147869110107,0.5815785168752876,,145.0
B,L,"[3, 1]",1.0,2.0,0.3502519130706787,2.0221760272979736,0.653679448651177,24.0,146.0
R,U,"[2, 1]",1.0,3.0,0.22628521919250488,1.5888140201568604,0.35957521113910074,24.0,147.0
Y,R,"[2, 2]",1.0,4.0,0.24746298789978027,1.8344900608062744,0.593705988463409,24.0,148.0
R,U,"[1, 2]",1.0,5.0,0.27654004096984863,1.6399900913238525,0.3671541031514133,24.0,149.0
Y,R,"[1, 3]",1.0,6.0,0.4622840881347656,1.8322010040283203,0.36613900907730723,24.0,150.0
,,"(3, 3)",,,,,,24.0,
B,L,"[3, 2]",1.0,1.0,0.5896542072296143,3.0926759243011475,0.375211711859032,,151.0
B,L,"[3, 1]",1.0,2.0,0.2446730136871338,1.7906291484832764,0.548989039922859,25.0,152.0
R,U,"[2, 1]",1.0,3.0,0.13486099243164062,1.6380009651184082,0.4869823966623366,25.0,153.0
Y,R,"[2, 2]",1.0,4.0,0.18851184844970703,1.7745721340179443,0.5782594167233,25.0,154.0
R,U,"[1, 2]",1.0,5.0,0.346890926361084,1.9061179161071777,0.5675702349502846,25.0,155.0
Y,R,"[1, 3]",1.0,6.0,0.29227304458618164,1.6716148853302002,0.3727425134576569,25.0,156.0
,,"(3, 3)",,,,,,25.0,
B,L,"[3, 2]",1.0,1.0,0.6013948917388916,2.8896279335021973,0.2790378394116769,,157.0
B,L,"[3, 1]",1.0,2.0,0.34246206283569336,1.8453819751739502,0.5076575404935769,26.0,158.0
R,U,"[2, 1]",1.0,3.0,0.3085649013519287,1.9348669052124023,0.6256308112204949,26.0,159.0
Y,R,"[2, 2]",1.0,4.0,0.2412559986114502,1.5851209163665771,0.3444369798328133,26.0,160.0
R,U,"[1, 2]",1.0,5.0,0.33104705810546875,1.6578459739685059,0.33547543314365086,26.0,161.0
Y,R,"[1, 3]",1.0,6.0,0.37134695053100586,2.0735208988189697,0.6919295310289135,26.0,162.0
,,"(3, 3)",,,,,,26.0,
B,L,"[3, 2]",1.0,1.0,0.5256140232086182,3.094078779220581,0.3861467071982024,,163.0
B,L,"[3, 1]",-1.0,1.0,0.02221393585205078,5.442019939422607,0.29497907859144135,27.0,164.0
B,L,"[3, 0]",0.0,1.0,0.30609607696533203,1.7214829921722412,0.4163207329177571,27.0,165.0
R,U,"[2, 0]",0.0,1.0,0.4446988105773926,1.868034839630127,0.4176619796896399,27.0,166.0
Y,R,"[2, 1]",1.0,2.0,0.28700685501098633,2.0015740394592285,0.7022611797487025,27.0,167.0
R,U,"[1, 1]",-1.0,1.0,0.29586291313171387,1.9383289813995361,0.6404298617248094,27.0,168.0
,,"(3, 3)",,,,,,27.0,
B,L,"[3, 2]",1.0,1.0,0.7072451114654541,3.1838340759277344,0.32473633472641383,,169.0
B,L,"[3, 1]",1.0,2.0,0.2869579792022705,2.0045981407165527,0.7120891535433689,28.0,170.0
R,U,"[2, 1]",1.0,3.0,0.216141939163208,1.9452409744262695,0.7239359005601906,28.0,171.0
Y,R,"[2, 2]",1.0,4.0,0.2996690273284912,1.7598280906677246,0.45073155166181156,28.0,172.0
R,U,"[1, 2]",1.0,5.0,0.38391995429992676,1.7766191959381104,0.37746971432387677,28.0,173.0
Y,R,"[1, 3]",1.0,6.0,0.334428071975708,1.6238000392913818,0.28461664477415505,28.0,174.0
,,"(3, 3)",,,,,,28.0,
B,L,"[3, 2]",1.0,1.0,0.7283220291137695,3.12368106842041,0.39138789766688514,,175.0
B,L,"[3, 1]",1.0,2.0,0.2904629707336426,1.6027240753173828,0.31087526230813806,29.0,176.0
R,U,"[2, 1]",1.0,3.0,0.3487570285797119,2.0677499771118164,0.7114754008383337,29.0,177.0
Y,R,"[2, 2]",1.0,4.0,0.2600820064544678,1.60396409034729,0.349133979884014,29.0,178.0
R,U,"[1, 2]",1.0,5.0,0.31960582733154297,1.8860840797424316,0.5516130139744579,29.0,179.0
Y,R,"[1, 3]",1.0,6.0,0.4080390930175781,2.077214002609253,0.6620330791536453,29.0,180.0
,,"(3, 3)",,,,,,29.0,
B,L,"[3, 2]",1.0,1.0,0.5011260509490967,3.72709584236145,0.6058402979691035,,181.0
B,L,"[3, 1]",1.0,2.0,0.21131300926208496,1.9445760250091553,0.7336836832823362,30.0,182.0
R,U,"[2, 1]",1.0,3.0,0.4456288814544678,1.8509008884429932,0.40146435050373036,30.0,183.0
Y,R,"[2, 2]",1.0,4.0,0.10838913917541504,1.8344948291778564,0.7195620843910122,30.0,184.0
R,U,"[1, 2]",1.0,5.0,0.25707507133483887,1.8366940021514893,0.5722728301759272,30.0,185.0
Y,R,"[1, 3]",1.0,6.0,0.21475720405578613,1.5969829559326172,0.3861738332635066,30.0,186.0
,,"(3, 3)",,,,,,30.0,
B,L,"[3, 2]",1.0,1.0,0.7974529266357422,3.2606348991394043,0.4800454661502739,,187.0
B,L,"[3, 1]",1.0,2.0,0.24825501441955566,1.5241150856018066,0.2541972074465459,31.0,188.0
R,U,"[2, 1]",1.0,3.0,0.23465609550476074,1.8232700824737549,0.5772408052829214,31.0,189.0
Y,R,"[2, 2]",-1.0,3.0,0.09700798988342285,5.600161075592041,0.37733248924222174,31.0,190.0
Y,R,"[2, 3]",-1.0,2.0,0.3094921112060547,1.645745038986206,0.3397501218396424,31.0,191.0
R,U,"[1, 3]",1.0,3.0,0.47629380226135254,2.1374998092651367,0.6604151002934673,31.0,192.0
,,"(3, 3)",,,,,,31.0,
B,L,"[3, 2]",1.0,1.0,0.8197081089019775,3.430198907852173,0.27411657644815496,,193.0
B,L,"[3, 1]",1.0,2.0,0.3548471927642822,2.0346450805664062,0.6751473981445579,32.0,194.0
R,U,"[2, 1]",1.0,3.0,0.39170217514038086,1.8825960159301758,0.4910703292054719,32.0,195.0
Y,R,"[2, 2]",1.0,4.0,0.39537501335144043,1.8757259845733643,0.4833224365691029,32.0,196.0
R,U,"[1, 2]",1.0,5.0,0.3970029354095459,1.7499041557312012,0.3500088068350302,32.0,197.0
Y,R,"[1, 3]",1.0,6.0,0.28125500679016113,1.642448902130127,0.3590464707383439,32.0,198.0
,,"(3, 3)",,,,,,32.0,
B,L,"[3, 2]",1.0,1.0,0.6054120063781738,3.5347700119018555,0.4106018790152543,,199.0
B,L,"[3, 1]",1.0,2.0,0.22258687019348145,1.8491179943084717,0.6425471405342796,33.0,200.0
R,U,"[2, 1]",1.0,3.0,0.2349390983581543,1.5107529163360596,0.28711662118392056,33.0,201.0
Y,R,"[2, 2]",1.0,4.0,0.30220794677734375,1.9559881687164307,0.6427225257317459,33.0,202.0
R,U,"[1, 2]",1.0,5.0,0.2663390636444092,1.6133129596710205,0.33961761203576846,33.0,203.0
Y,R,"[1, 3]",1.0,6.0,0.2854909896850586,2.0369300842285156,0.7426683669465818,33.0,204.0
,,"(3, 3)",,,,,,33.0,
B,L,"[3, 2]",1.0,1.0,0.806506872177124,2.998530864715576,0.34141634080626787,,205.0
B,L,"[3, 1]",1.0,2.0,0.22030997276306152,1.7166869640350342,0.5080141159863589,34.0,206.0
R,U,"[2, 1]",1.0,3.0,0.2777118682861328,1.7984700202941895,0.5231754538173916,34.0,207.0
Y,R,"[2, 2]",1.0,4.0,0.25902891159057617,1.833677053451538,0.5733625547075276,34.0,208.0
R,U,"[1, 2]",1.0,5.0,0.24456286430358887,1.6035470962524414,0.3604903466775791,34.0,209.0
Y,R,"[1, 3]",1.0,6.0,0.3747868537902832,1.6555891036987305,0.28273375003420254,34.0,210.0
,,"(3, 3)",,,,,,34.0,
B,L,"[3, 2]",1.0,1.0,0.5998179912567139,5.828023910522461,0.4102353382274816,,211.0
B,L,"[3, 1]",1.0,2.0,0.26848506927490234,1.9808578491210938,0.7074181164822111,35.0,212.0
R,U,"[2, 1]",1.0,3.0,0.32033395767211914,2.0552151203155518,0.7294096553241074,35.0,213.0
Y,R,"[2, 2]",1.0,4.0,0.33269500732421875,1.8155200481414795,0.47831242389132356,35.0,214.0
R,U,"[1, 2]",1.0,5.0,0.2546660900115967,1.9048268795013428,0.6496662639039106,35.0,215.0
Y,R,"[1, 3]",1.0,6.0,0.20814204216003418,1.6366500854492188,0.4197121282169432,35.0,216.0
,,"(3, 3)",,,,,,35.0,
B,L,"[3, 2]",1.0,1.0,0.5849769115447998,4.175640106201172,0.6957888084428817,,217.0
B,L,"[3, 1]",1.0,2.0,0.7494192123413086,2.0671839714050293,0.32923337567027566,36.0,218.0
R,U,"[2, 1]",1.0,3.0,0.31668806076049805,1.883951187133789,0.5627570474624634,36.0,219.0
Y,R,"[2, 2]",1.0,4.0,0.34677600860595703,1.9292240142822266,0.575489323073701,36.0,220.0
R,U,"[1, 2]",1.0,5.0,0.33812379837036133,2.016862154006958,0.6754216226197629,36.0,221.0
Y,R,"[1, 3]",1.0,6.0,0.11256217956542969,1.5764288902282715,0.4684762467887781,36.0,222.0
,,"(3, 3)",,,,,,36.0,
B,L,"[3, 2]",1.0,1.0,0.6264970302581787,4.412033796310425,0.48073591476037747,,223.0
B,L,"[3, 1]",1.0,2.0,0.35272216796875,1.6264989376068115,0.25730004193455414,37.0,224.0
G,D,"[4, 1]",-1.0,1.0,0.43938302993774414,1.7470130920410156,0.3040549577818766,37.0,225.0
R,U,"[3, 1]",0.0,1.0,0.4752070903778076,2.123522996902466,0.643784246372113,37.0,226.0
Y,R,"[3, 2]",0.0,1.0,0.3290290832519531,1.9591529369354248,0.6361977582742424,37.0,227.0
R,U,"[2, 2]",1.0,2.0,0.2589840888977051,1.7617161273956299,0.49803420769553336,37.0,228.0
,,"(3, 3)",,,,,,37.0,
B,L,"[3, 2]",1.0,1.0,0.7282600402832031,3.7069458961486816,0.6380897888467225,,229.0
B,L,"[3, 1]",1.0,2.0,0.3224678039550781,2.0687599182128906,0.7402600771717629,38.0,230.0
R,U,"[2, 1]",1.0,3.0,0.29990696907043457,2.0163779258728027,0.689962919467069,38.0,231.0
Y,R,"[2, 2]",1.0,4.0,0.25745201110839844,1.6737489700317383,0.4138905365911692,38.0,232.0
R,U,"[1, 2]",1.0,5.0,0.331341028213501,1.663153886795044,0.32698842557458485,38.0,233.0
Y,R,"[1, 3]",1.0,6.0,0.26220202445983887,1.5458600521087646,0.28953972442334114,38.0,234.0
,,"(3, 3)",,,,,,38.0,
B,L,"[3, 2]",1.0,1.0,0.5332679748535156,3.003804922103882,0.4597926549315248,,235.0
B,L,"[3, 1]",1.0,2.0,0.509289026260376,2.044991970062256,0.5380188204710418,39.0,236.0
R,U,"[2, 1]",1.0,3.0,0.5483889579772949,2.1104588508605957,0.564953837825958,39.0,237.0
Y,R,"[2, 2]",1.0,4.0,0.31068897247314453,1.7254459857940674,0.40708138139156586,39.0,238.0
R,U,"[1, 2]",1.0,5.0,0.5581188201904297,1.8747141361236572,0.31517864184662187,39.0,239.0
Y,R,"[1, 3]",1.0,6.0,0.38836002349853516,2.1066479682922363,0.7046614859115483,39.0,240.0
,,"(3, 3)",,,,,,39.0,
B,L,"[3, 2]",1.0,1.0,0.5937609672546387,4.3367919921875,0.6913126698304006,,241.0
B,L,"[3, 1]",1.0,2.0,0.3527641296386719,1.7495977878570557,0.3911670973706929,40.0,242.0
R,U,"[2, 1]",1.0,3.0,0.3948171138763428,1.9029319286346436,0.5105401239649179,40.0,243.0
Y,R,"[2, 2]",1.0,4.0,0.3141438961029053,1.6678550243377686,0.36180821548614506,40.0,244.0
R,U,"[1, 2]",1.0,5.0,0.3254070281982422,1.9652118682861328,0.6435381174714636,40.0,245.0
Y,R,"[1, 3]",1.0,6.0,0.24595022201538086,1.8449409008026123,0.6050594014381476,40.0,246.0
,,"(3, 3)",,,,,,40.0,
B,L,"[3, 2]",1.0,1.0,0.6972801685333252,3.354414939880371,0.7428540974449909,,247.0
B,L,"[3, 1]",1.0,2.0,0.452739953994751,1.7723009586334229,0.315103038420803,41.0,248.0
R,U,"[2, 1]",1.0,3.0,0.6324620246887207,2.286952018737793,0.6516822911209579,41.0,249.0
Y,R,"[2, 2]",1.0,4.0,0.25719285011291504,1.9121789932250977,0.6470233037595183,41.0,250.0
R,U,"[1, 2]",1.0,5.0,0.26671600341796875,1.8802969455718994,0.5940341200674562,41.0,251.0
Y,R,"[1, 3]",1.0,6.0,0.2592477798461914,1.6997981071472168,0.4438366943570457,41.0,252.0
,,"(3, 3)",,,,,,41.0,
B,L,"[3, 2]",1.0,1.0,0.5715420246124268,3.0976011753082275,0.6915262373283831,,253.0
B,L,"[3, 1]",1.0,2.0,0.27313995361328125,1.74043607711792,0.4653731075180081,42.0,254.0
R,U,"[2, 1]",1.0,3.0,0.38837409019470215,1.9466710090637207,0.545119969401985,42.0,255.0
Y,R,"[2, 2]",1.0,4.0,0.23904800415039062,1.903719186782837,0.6653944220244312,42.0,256.0
R,U,"[1, 2]",1.0,5.0,0.29472994804382324,1.8854761123657227,0.5841345529890354,42.0,257.0
Y,R,"[1, 3]",1.0,6.0,0.2701530456542969,2.0190999507904053,0.7367518168958773,42.0,258.0
,,"(3, 3)",,,,,,42.0,
B,L,"[3, 2]",1.0,1.0,0.6095459461212158,3.1469619274139404,0.316932106084014,,259.0
B,L,"[3, 1]",1.0,2.0,0.2793910503387451,1.937295913696289,0.6539275551749267,43.0,260.0
R,U,"[2, 1]",1.0,3.0,0.10830092430114746,1.5532259941101074,0.44065534308193555,43.0,261.0
Y,R,"[2, 2]",1.0,4.0,0.3911759853363037,2.1192691326141357,0.7431321805415558,43.0,262.0
R,U,"[1, 2]",1.0,5.0,0.3429751396179199,2.0292720794677734,0.7053325219188855,43.0,263.0
Y,R,"[1, 3]",1.0,6.0,0.3364591598510742,1.9616718292236328,0.6170624352174969,43.0,264.0
,,"(3, 3)",,,,,,43.0,
B,L,"[3, 2]",1.0,1.0,0.5169439315795898,2.897247076034546,0.2644131304247578,,265.0
B,L,"[3, 1]",1.0,2.0,0.4130241870880127,1.7607390880584717,0.34170567355838594,44.0,266.0
R,U,"[2, 1]",1.0,3.0,0.35692811012268066,2.051741123199463,0.693258315915062,44.0,267.0
Y,R,"[2, 2]",1.0,4.0,0.25639891624450684,1.9138450622558594,0.6570265095975203,44.0,268.0
R,U,"[1, 2]",1.0,5.0,0.2734959125518799,1.62388014793396,0.3477652825898503,44.0,269.0
Y,R,"[1, 3]",1.0,6.0,0.17564010620117188,1.7703490257263184,0.5843988361184879,44.0,270.0
,,"(3, 3)",,,,,,44.0,
B,L,"[3, 2]",-2.0,0.0,1.1299700736999512,3.7927651405334473,0.6434745038153724,,271.0
B,L,"[3, 1]",1.0,1.0,0.36824798583984375,2.031906843185425,0.6585917105390686,45.0,272.0
B,L,"[3, 0]",0.0,1.0,0.263063907623291,1.8740818500518799,0.6159434375786124,45.0,273.0
R,U,"[2, 0]",0.0,1.0,0.2709660530090332,1.657578945159912,0.37379074129202017,45.0,274.0
B,L,"[2, 0]",0.0,1.0,0.4478261470794678,1.7165920734405518,0.273863715760425,45.0,275.0
Y,R,"[2, 1]",1.0,2.0,0.24630403518676758,1.895212173461914,0.6522449840505313,45.0,276.0
,,"(3, 3)",,,,,,45.0,
B,L,"[3, 2]",1.0,1.0,0.5483369827270508,3.291827917098999,0.3439739648669062,,277.0
B,L,"[3, 1]",1.0,2.0,0.4262690544128418,1.9904677867889404,0.5673238019074185,46.0,278.0
R,U,"[2, 1]",1.0,3.0,0.3274719715118408,2.055284023284912,0.722406834238134,46.0,279.0
Y,R,"[2, 2]",1.0,4.0,0.4032890796661377,2.0838449001312256,0.6729821715457671,46.0,280.0
R,U,"[1, 2]",1.0,5.0,0.14211797714233398,1.7353758811950684,0.591639174350628,46.0,281.0
Y,R,"[1, 3]",-1.0,5.0,0.059702157974243164,5.458169221878052,0.28317852487691936,46.0,282.0
,,"(3, 3)",,,,,,46.0,
B,L,"[3, 2]",1.0,1.0,0.6698360443115234,4.1162450313568115,0.3990876929747099,,283.0
B,L,"[3, 1]",1.0,2.0,0.2996971607208252,1.5708460807800293,0.2535460181224832,47.0,284.0
R,U,"[2, 1]",1.0,3.0,0.6091389656066895,2.2802700996398926,0.666546265137127,47.0,285.0
Y,R,"[2, 2]",1.0,4.0,0.37606310844421387,2.0275731086730957,0.643970283916415,47.0,286.0
R,U,"[1, 2]",1.0,5.0,0.45327091217041016,1.7983989715576172,0.34279600210247074,47.0,287.0
Y,R,"[1, 3]",1.0,6.0,0.41336894035339355,1.6865370273590088,0.2792540586793436,47.0,288.0
,,"(3, 3)",,,,,,47.0,
B,L,"[3, 2]",1.0,1.0,0.675806999206543,3.6638801097869873,0.5593370088286015,,289.0
B,L,"[3, 1]",1.0,2.0,0.5744709968566895,2.256618022918701,0.6825175088147037,48.0,290.0
R,U,"[2, 1]",1.0,3.0,0.5739238262176514,1.8412020206451416,0.2574996055275527,48.0,291.0
Y,R,"[2, 2]",1.0,4.0,0.8917131423950195,2.1695079803466797,0.2768272899480276,48.0,292.0
R,U,"[1, 2]",1.0,5.0,0.5080811977386475,1.948185920715332,0.44159679459829376,48.0,293.0
Y,R,"[1, 3]",1.0,6.0,0.7453939914703369,1.9935460090637207,0.2516782221850725,48.0,294.0
,,"(3, 3)",,,,,,48.0,
B,L,"[3, 2]",1.0,1.0,0.6462280750274658,8.155233144760132,0.5895157478626392,,295.0
B,L,"[3, 1]",1.0,2.0,0.8534040451049805,2.262002944946289,0.4017348724193707,49.0,296.0
R,U,"[2, 1]",1.0,3.0,0.5218379497528076,2.07891583442688,0.5471585600356926,49.0,297.0
Y,R,"[2, 2]",1.0,4.0,0.352841854095459,2.0266342163085938,0.6569284776692987,49.0,298.0
R,U,"[1, 2]",1.0,5.0,0.36803483963012695,1.8991210460662842,0.5225686833292096,49.0,299.0
Y,R,"[1, 3]",1.0,6.0,0.4290452003479004,1.7271239757537842,0.2999626710372716,49.0,300.0
,,"(3, 3)",,,,,,49.0,
B,L,"[3, 2]",1.0,1.0,0.6512141227722168,3.907947063446045,0.42423012796970416,,301.0
B,L,"[3, 1]",-2.0,1.0,1.0259461402893066,2.6597650051116943,0.6002264919852138,50.0,302.0
B,L,"[3, 0]",0.0,1.0,0.299224853515625,2.0159239768981934,0.6996511606769007,50.0,303.0
R,U,"[2, 0]",0.0,1.0,0.38387298583984375,1.7532269954681396,0.3698704534991234,50.0,304.0
Y,R,"[2, 1]",1.0,2.0,0.2849299907684326,1.6258821487426758,0.34534899585702744,50.0,305.0
R,U,"[1, 1]",-1.0,1.0,0.3370521068572998,1.9582099914550781,0.6200285109101726,50.0,306.0
,,"(3, 3)",,,,,,50.0,
B,L,"[3, 2]",1.0,1.0,0.8406949043273926,3.7986059188842773,0.5850919963341445,,307.0
B,L,"[3, 1]",1.0,2.0,0.3236861228942871,1.6733989715576172,0.341994058786108,51.0,308.0
R,U,"[2, 1]",1.0,3.0,0.4520909786224365,1.945840835571289,0.48769209539286745,51.0,309.0
Y,R,"[2, 2]",1.0,4.0,0.4111959934234619,2.109065055847168,0.6963382622415359,51.0,310.0
R,U,"[1, 2]",1.0,5.0,0.3806929588317871,1.6748600006103516,0.28853177394859336,51.0,311.0
Y,R,"[1, 3]",1.0,6.0,0.4160780906677246,1.9397201538085938,0.5276464930009004,51.0,312.0
,,"(3, 3)",,,,,,51.0,
B,L,"[3, 2]",1.0,1.0,0.5065000057220459,2.9005489349365234,0.36158262674837577,,313.0
B,L,"[3, 1]",1.0,2.0,0.3030130863189697,1.6175470352172852,0.3123409429929046,52.0,314.0
R,U,"[2, 1]",1.0,3.0,0.6223299503326416,1.864656925201416,0.2605441342623196,52.0,315.0
Y,R,"[2, 2]",1.0,4.0,0.44159793853759766,2.1528818607330322,0.7129321712345822,52.0,316.0
R,U,"[1, 2]",1.0,5.0,0.30298495292663574,1.8766000270843506,0.5562483967933718,52.0,317.0
Y,R,"[1, 3]",1.0,6.0,0.3253920078277588,1.6921849250793457,0.3653662614929298,52.0,318.0
,,"(3, 3)",,,,,,52.0,
B,L,"[3, 2]",1.0,1.0,0.49246907234191895,3.189021110534668,0.6537342527674816,,319.0
B,L,"[3, 1]",1.0,2.0,0.3412048816680908,1.6829211711883545,0.3367695980818785,53.0,320.0
R,U,"[2, 1]",1.0,3.0,0.504094123840332,1.9770569801330566,0.46365784496699,53.0,321.0
Y,R,"[2, 2]",1.0,4.0,0.32163310050964355,1.621108055114746,0.28480647684115884,53.0,322.0
R,U,"[1, 2]",1.0,5.0,0.41204190254211426,1.8362810611724854,0.42090961147986605,53.0,323.0
Y,R,"[1, 3]",1.0,6.0,0.30974602699279785,1.8960468769073486,0.5835727098817469,53.0,324.0
,,"(3, 3)",,,,,,53.0,
B,L,"[3, 2]",1.0,1.0,0.5198090076446533,2.686028003692627,0.25297729054755574,,325.0
B,L,"[3, 1]",1.0,2.0,0.3247711658477783,2.0765979290008545,0.7456674485656264,54.0,326.0
R,U,"[2, 1]",1.0,3.0,0.243211030960083,1.6229031085968018,0.3688795284823703,54.0,327.0
Y,R,"[2, 2]",1.0,4.0,0.14171099662780762,1.6136550903320312,0.4656564675796568,54.0,328.0
R,U,"[1, 2]",1.0,5.0,0.33199286460876465,1.729686975479126,0.39544571428667546,54.0,329.0
Y,R,"[1, 3]",-1.0,5.0,0.06362700462341309,5.831418991088867,0.6263919836124893,54.0,330.0
,,"(3, 3)",,,,,,54.0,
B,L,"[3, 2]",1.0,1.0,0.6429991722106934,3.8923110961914062,0.5019909222690758,,331.0
B,L,"[3, 1]",1.0,2.0,0.40862202644348145,1.6903669834136963,0.2757945322289408,55.0,332.0
R,U,"[2, 1]",1.0,3.0,0.6513969898223877,2.0011489391326904,0.3435790898461278,55.0,333.0
B,L,"[2, 0]",0.0,3.0,0.39433813095092773,1.642652988433838,0.2529572245599321,55.0,334.0
Y,R,"[2, 1]",0.0,3.0,0.2954750061035156,1.6280598640441895,0.3309018374753378,55.0,335.0
R,U,"[1, 1]",-1.0,3.0,0.03132009506225586,5.470662832260132,0.3013247790228631,55.0,336.0
,,"(3, 3)",,,,,,55.0,
B,L,"[3, 2]",1.0,1.0,0.38918089866638184,2.9434897899627686,0.4610144165151761,,337.0
B,L,"[3, 1]",1.0,2.0,0.42925405502319336,1.9044198989868164,0.4819793782914843,56.0,338.0
R,U,"[2, 1]",-2.0,2.0,2.014883041381836,3.784264087677002,0.7159245716311473,56.0,339.0
R,U,"[1, 1]",-1.0,1.0,0.45255589485168457,1.851318120956421,0.3841851310756577,56.0,340.0
Y,R,"[1, 2]",1.0,2.0,0.27574992179870605,1.552042007446289,0.2695353004122363,56.0,341.0
R,U,"[0, 2]",0.0,2.0,0.29561305046081543,1.8856010437011719,0.5880669880163449,56.0,342.0
,,"(3, 3)",,,,,,56.0,
B,L,"[3, 2]",1.0,1.0,0.6156299114227295,3.0626330375671387,0.31745483976841954,,343.0
B,L,"[3, 1]",1.0,2.0,0.3306770324707031,2.0032050609588623,0.6701953136954268,57.0,344.0
R,U,"[2, 1]",1.0,3.0,0.38672780990600586,2.1313328742980957,0.7347381188262121,57.0,345.0
Y,R,"[2, 2]",1.0,4.0,0.25681495666503906,1.6582279205322266,0.3932051022824587,57.0,346.0
R,U,"[1, 2]",1.0,5.0,0.3205289840698242,2.012274980545044,0.6885325309432943,57.0,347.0
Y,R,"[1, 3]",1.0,6.0,0.2928900718688965,1.5454919338226318,0.25094795002151155,57.0,348.0
,,"(3, 3)",,,,,,57.0,
B,L,"[3, 2]",1.0,1.0,0.5380229949951172,2.8965141773223877,0.4807619106045854,,349.0
B,L,"[3, 1]",1.0,2.0,0.26645708084106445,1.662647008895874,0.37665411332710663,58.0,350.0
R,U,"[2, 1]",1.0,3.0,0.6004328727722168,2.2161130905151367,0.6091081370544409,58.0,351.0
Y,R,"[2, 2]",1.0,4.0,0.27391886711120605,1.7791378498077393,0.504743246995618,58.0,352.0
R,U,"[1, 2]",1.0,5.0,0.45542407035827637,2.1958580017089844,0.7336135345830217,58.0,353.0
Y,R,"[1, 3]",1.0,6.0,0.39844202995300293,1.849381923675537,0.41657495059218785,58.0,354.0
,,"(3, 3)",,,,,,58.0,
B,L,"[3, 2]",1.0,1.0,0.6173279285430908,3.0490360260009766,0.7485603740306659,,355.0
B,L,"[3, 1]",1.0,2.0,0.45658016204833984,1.9781529903411865,0.5100868241936352,59.0,356.0
R,U,"[2, 1]",1.0,3.0,0.5206460952758789,2.192134141921997,0.6686039332204325,59.0,357.0
Y,R,"[2, 2]",1.0,4.0,0.4500160217285156,1.8281309604644775,0.3637644099828528,59.0,358.0
R,U,"[1, 2]",1.0,5.0,0.47304296493530273,1.9256229400634766,0.4392093292438152,59.0,359.0
Y,R,"[1, 3]",1.0,6.0,0.34228515625,1.6734700202941895,0.329296366404799,59.0,360.0
,,"(3, 3)",,,,,,59.0,
B,L,"[3, 2]",1.0,1.0,0.5910930633544922,2.8563809394836426,0.43546405322720527,,361.0
B,L,"[3, 1]",1.0,2.0,0.31606101989746094,2.0697519779205322,0.7382667029158474,60.0,362.0
R,U,"[2, 1]",1.0,3.0,0.2764160633087158,1.9792919158935547,0.7007051494627913,60.0,363.0
Y,R,"[2, 2]",-1.0,3.0,0.005255937576293945,5.775936126708984,0.6425797988909547,60.0,364.0
R,U,"[1, 2]",-2.0,3.0,1.0137310028076172,2.43769907951355,0.39788842040797356,60.0,365.0
R,U,"[0, 2]",0.0,3.0,0.9278039932250977,2.5753891468048096,0.6396300526994496,60.0,366.0
,,"(3, 3)",,,,,,60.0,
B,L,"[3, 2]",1.0,1.0,0.6585631370544434,2.984534978866577,0.47390804126625863,,367.0
B,L,"[3, 1]",1.0,2.0,0.2768838405609131,1.7667131423950195,0.49045804804737797,61.0,368.0
R,U,"[2, 1]",1.0,3.0,0.595452070236206,1.8656461238861084,0.27303083179720605,61.0,369.0
Y,R,"[2, 2]",1.0,4.0,0.46018481254577637,2.1596579551696777,0.698723452554685,61.0,370.0
R,U,"[1, 2]",1.0,5.0,0.2602980136871338,1.6918401718139648,0.4240920742750017,61.0,371.0
Y,R,"[1, 3]",1.0,6.0,0.40189313888549805,2.10309100151062,0.6935681628267876,61.0,372.0
,,"(3, 3)",,,,,,61.0,
B,L,"[3, 2]",1.0,1.0,0.8723659515380859,3.1288771629333496,0.7390053912626028,,373.0
B,L,"[3, 1]",1.0,2.0,0.5276789665222168,2.098242998123169,0.5706514620742145,62.0,374.0
R,U,"[2, 1]",1.0,3.0,0.36684298515319824,1.9834370613098145,0.6040073203725409,62.0,375.0
Y,R,"[2, 2]",1.0,4.0,0.5515351295471191,2.116436004638672,0.5534939421354146,62.0,376.0
R,U,"[1, 2]",1.0,5.0,0.41089487075805664,1.677711009979248,0.2643592134871295,62.0,377.0
Y,R,"[1, 3]",1.0,6.0,0.46464991569519043,1.842198133468628,0.37341265298625836,62.0,378.0
,,"(3, 3)",,,,,,62.0,
B,L,"[3, 2]",1.0,1.0,0.7142939567565918,3.6820058822631836,0.6887509947376158,,379.0
B,L,"[3, 1]",1.0,2.0,0.2690889835357666,1.5646297931671143,0.3031223544218079,63.0,380.0
R,U,"[2, 1]",1.0,3.0,0.38779401779174805,1.7748239040374756,0.3780377074822896,63.0,381.0
Y,R,"[2, 2]",1.0,4.0,0.28292298316955566,1.5801618099212646,0.2914512322464331,63.0,382.0
R,U,"[1, 2]",1.0,5.0,0.3126091957092285,1.7498979568481445,0.4411131194767924,63.0,383.0
Y,R,"[1, 3]",1.0,6.0,0.2868349552154541,1.926889181137085,0.6344164589416474,63.0,384.0
,,"(3, 3)",,,,,,63.0,
B,L,"[3, 2]",1.0,1.0,0.4829699993133545,2.6298890113830566,0.26450716434023996,,385.0
B,L,"[3, 1]",1.0,2.0,0.28119611740112305,1.992656946182251,0.7068129506620539,64.0,386.0
R,U,"[2, 1]",1.0,3.0,0.2519049644470215,1.936600923538208,0.6765987462288874,64.0,387.0
Y,R,"[2, 2]",1.0,4.0,0.2898130416870117,1.7181389331817627,0.4448864239902644,64.0,388.0
R,U,"[1, 2]",1.0,5.0,0.3300769329071045,1.79488205909729,0.4729897123659229,64.0,389.0
Y,R,"[1, 3]",1.0,6.0,0.299252986907959,1.8254060745239258,0.5150374408671967,64.0,390.0
,,"(3, 3)",,,,,,64.0,
B,L,"[3, 2]",1.0,1.0,0.5829660892486572,2.6662960052490234,0.3977821616489352,,391.0
B,L,"[3, 1]",1.0,2.0,0.265300989151001,1.8482439517974854,0.5625395425552041,65.0,392.0
R,U,"[2, 1]",1.0,3.0,0.39914894104003906,1.640779972076416,0.2534388638112113,65.0,393.0
Y,R,"[2, 2]",1.0,4.0,0.38112497329711914,1.8994789123535156,0.5193437089795185,65.0,394.0
R,U,"[1, 2]",1.0,5.0,0.27405810356140137,1.6956431865692139,0.4148773433144921,65.0,395.0
Y,R,"[1, 3]",1.0,6.0,0.3252091407775879,1.6292788982391357,0.29434467200263914,65.0,396.0
,,"(3, 3)",,,,,,65.0,
B,L,"[3, 2]",1.0,1.0,0.4695570468902588,2.84637188911438,0.2573163702982969,,397.0
B,L,"[3, 1]",1.0,2.0,0.31655383110046387,1.6836919784545898,0.3573662546922911,66.0,398.0
R,U,"[2, 1]",1.0,3.0,0.35230493545532227,1.987272024154663,0.6277185660222162,66.0,399.0
Y,R,"[2, 2]",1.0,4.0,0.30796194076538086,1.9774448871612549,0.6715760490232091,66.0,400.0
R,U,"[1, 2]",1.0,5.0,0.5720860958099365,2.0957019329071045,0.5173933232826455,66.0,401.0
Y,R,"[1, 3]",1.0,6.0,0.2757549285888672,1.8021941184997559,0.519454376414171,66.0,402.0
,,"(3, 3)",,,,,,66.0,
B,L,"[3, 2]",-1.0,-1.0,0.5769670009613037,2.479058027267456,0.5151021468980173,,403.0
R,U,"[2, 2]",-2.0,-1.0,1.3617210388183594,2.782335042953491,0.38065001150175437,67.0,404.0
R,U,"[1, 2]",-1.0,-2.0,0.3014659881591797,1.984415054321289,0.6648744218476956,67.0,405.0
Y,R,"[1, 3]",-1.0,-3.0,0.5336959362030029,1.8355491161346436,0.2840427467608271,67.0,406.0
G,D,"[2, 3]",-1.0,-4.0,0.4369020462036133,1.8639981746673584,0.41437193135390865,67.0,407.0
B,L,"[2, 2]",-1.0,-5.0,0.6503169536590576,2.248924970626831,0.5797541844239686,67.0,408.0
,,"(3, 3)",,,,,,67.0,
G,D,"[4, 3]",1.0,1.0,0.6363911628723145,5.698205947875977,0.5942123260077535,,409.0
B,L,"[4, 2]",1.0,2.0,0.8422660827636719,2.306856870651245,0.4677894479765246,68.0,410.0
Y,R,"[4, 3]",1.0,3.0,0.577639102935791,2.214340925216675,0.6319910379483729,68.0,411.0
R,U,"[3, 3]",-2.0,1.0,0.366055965423584,2.081434965133667,0.6966130808360109,68.0,412.0
G,D,"[4, 3]",1.0,2.0,0.36490893363952637,2.089380979537964,0.7024571526745844,68.0,413.0
B,L,"[4, 2]",1.0,3.0,0.3785231113433838,1.938852071762085,0.5581651943985877,68.0,414.0
,,"(3, 3)",,,,,,68.0,
G,D,"[4, 3]",1.0,1.0,0.5977189540863037,3.419795036315918,0.4944165019313683,,415.0
B,L,"[4, 2]",1.0,2.0,0.42290687561035156,1.6728689670562744,0.25075271984723474,69.0,416.0
Y,R,"[4, 3]",1.0,3.0,0.40143799781799316,1.6662728786468506,0.2502520076529361,69.0,417.0
G,D,"[5, 3]",1.0,4.0,0.4037749767303467,1.760603904724121,0.36084568039915194,69.0,418.0
B,L,"[5, 2]",1.0,5.0,0.39198803901672363,2.065927028656006,0.676464138913883,69.0,419.0
Y,R,"[5, 3]",1.0,6.0,0.2973358631134033,1.8105440139770508,0.5202988962778387,69.0,420.0
,,"(3, 3)",,,,,,69.0,
G,D,"[4, 3]",1.0,1.0,0.45084095001220703,3.3166708946228027,0.719677322619718,,421.0
B,L,"[4, 2]",1.0,2.0,0.3142869472503662,1.577272891998291,0.2642994589833143,70.0,422.0
Y,R,"[4, 3]",1.0,3.0,0.5428049564361572,2.1037981510162354,0.5508820853438414,70.0,423.0
G,D,"[5, 3]",1.0,4.0,0.29987621307373047,1.8747870922088623,0.5590529269780893,70.0,424.0
B,L,"[5, 2]",1.0,5.0,0.3243870735168457,1.9367971420288086,0.6122011031571563,70.0,425.0
Y,R,"[5, 3]",1.0,6.0,0.2870039939880371,1.9679450988769531,0.6800232037361912,70.0,426.0
,,"(3, 3)",,,,,,70.0,
G,D,"[4, 3]",1.0,1.0,0.4303700923919678,2.3907220363616943,0.3378086124027569,,427.0
B,L,"[4, 2]",1.0,2.0,0.3714900016784668,1.7936508655548096,0.41463471157438575,71.0,428.0
Y,R,"[4, 3]",1.0,3.0,0.3715229034423828,1.807269811630249,0.4215374744145293,71.0,429.0
G,D,"[5, 3]",1.0,4.0,0.2958099842071533,1.5624849796295166,0.267608366226371,71.0,430.0
B,L,"[5, 2]",1.0,5.0,0.343109130859375,1.7917540073394775,0.4425587805238793,71.0,431.0
Y,R,"[5, 3]",1.0,6.0,0.2840311527252197,1.9519751071929932,0.6608505632006625,71.0,432.0
,,"(3, 3)",,,,,,71.0,
G,D,"[4, 3]",1.0,1.0,0.43401598930358887,2.8485000133514404,0.6756762109376209,,433.0
B,L,"[4, 2]",1.0,2.0,0.2877810001373291,1.6390488147735596,0.3483824281369934,72.0,434.0
Y,R,"[4, 3]",1.0,3.0,0.36376309394836426,1.9757189750671387,0.6074727294479634,72.0,435.0
G,D,"[5, 3]",1.0,4.0,0.3334801197052002,1.9994261264801025,0.6573934976285407,72.0,436.0
B,L,"[5, 2]",1.0,5.0,0.2872180938720703,1.6379499435424805,0.3460271595563186,72.0,437.0
Y,R,"[5, 3]",1.0,6.0,0.34139108657836914,1.6114070415496826,0.25801623965206627,72.0,438.0
,,"(3, 3)",,,,,,72.0,
G,D,"[4, 3]",-2.0,0.0,1.2127118110656738,3.8015429973602295,0.3769723515916611,,439.0
G,D,"[5, 3]",1.0,1.0,0.28766393661499023,1.6310501098632812,0.34174073210107847,73.0,440.0
B,L,"[5, 2]",1.0,2.0,0.36438488960266113,1.9112770557403564,0.5532440071447026,73.0,441.0
Y,R,"[5, 3]",1.0,3.0,0.24576783180236816,1.751966953277588,0.5055661961006251,73.0,442.0
G,D,"[6, 3]",0.0,3.0,0.2668781280517578,1.9157099723815918,0.6383116934741784,73.0,443.0
B,L,"[6, 2]",0.0,3.0,0.3231160640716553,2.02355694770813,0.6958257943253571,73.0,444.0
,,"(3, 3)",,,,,,73.0,
G,D,"[4, 3]",1.0,1.0,0.7480161190032959,3.8548409938812256,0.5350372007906654,,445.0
B,L,"[4, 2]",1.0,2.0,0.38196802139282227,1.7209620475769043,0.33995355440927605,74.0,446.0
Y,R,"[4, 3]",1.0,3.0,0.368563175201416,1.8625249862670898,0.48596634615355383,74.0,447.0
G,D,"[5, 3]",1.0,4.0,0.2528078556060791,1.7508258819580078,0.48731891611193656,74.0,448.0
B,L,"[5, 2]",1.0,5.0,0.25315117835998535,1.8454158306121826,0.5830068707798883,74.0,449.0
Y,R,"[5, 3]",1.0,6.0,0.23505496978759766,1.8816540241241455,0.6317777532261434,74.0,450.0
,,"(3, 3)",,,,,,74.0,
G,D,"[4, 3]",1.0,1.0,0.32942891120910645,3.4472410678863525,0.4301489346648477,,451.0
B,L,"[4, 2]",1.0,2.0,0.3697330951690674,1.9328348636627197,0.5462286928227351,75.0,452.0
Y,R,"[4, 3]",1.0,3.0,0.3114948272705078,1.7229630947113037,0.40313870625927173,75.0,453.0
G,D,"[5, 3]",1.0,4.0,0.30501389503479004,1.752716064453125,0.45602233876571946,75.0,454.0
B,L,"[5, 2]",1.0,5.0,0.3307828903198242,1.584244966506958,0.2576013349768322,75.0,455.0
Y,R,"[5, 3]",1.0,6.0,0.3885059356689453,1.7886240482330322,0.39644906280512804,75.0,456.0
,,"(3, 3)",,,,,,75.0,
G,D,"[4, 3]",1.0,1.0,0.5257642269134521,3.0545802116394043,0.4849610333145176,,457.0
B,L,"[4, 2]",1.0,2.0,0.29997897148132324,1.8607678413391113,0.545943999947426,76.0,458.0
Y,R,"[4, 3]",-1.0,2.0,0.03542900085449219,5.804725885391235,0.6349969276797196,76.0,459.0
Y,R,"[4, 4]",-1.0,1.0,0.2942650318145752,1.8503530025482178,0.5359227242869886,76.0,460.0
G,D,"[5, 4]",-1.0,0.0,0.3383450508117676,2.0583529472351074,0.7112329253691103,76.0,461.0
Y,R,"[5, 5]",-1.0,-1.0,0.6355960369110107,2.3826398849487305,0.7443995704378411,76.0,462.0
,,"(3, 3)",,,,,,76.0,
G,D,"[4, 3]",1.0,1.0,0.6279070377349854,3.6651031970977783,0.526901497881328,,463.0
B,L,"[4, 2]",1.0,2.0,0.28189778327941895,1.7146050930023193,0.4253405184847118,77.0,464.0
Y,R,"[4, 3]",1.0,3.0,0.38628411293029785,1.700023889541626,0.30914581782852096,77.0,465.0
G,D,"[5, 3]",1.0,4.0,0.4841790199279785,2.235076904296875,0.7441161829144287,77.0,466.0
B,L,"[5, 2]",1.0,5.0,0.3171379566192627,1.7295300960540771,0.4077889388625151,77.0,467.0
Y,R,"[5, 3]",1.0,6.0,0.340656042098999,2.0029139518737793,0.660817986755266,77.0,468.0
,,"(3, 3)",,,,,,77.0,
G,D,"[4, 3]",1.0,1.0,0.4810628890991211,3.430487871170044,0.7250590007793073,,469.0
B,L,"[4, 2]",1.0,2.0,0.32046008110046387,1.7068188190460205,0.38255807183993257,78.0,470.0
Y,R,"[4, 3]",1.0,3.0,0.343843936920166,1.8526861667633057,0.50205418719349,78.0,471.0
G,D,"[5, 3]",1.0,4.0,0.28893589973449707,1.810547113418579,0.5129965593733233,78.0,472.0
B,L,"[5, 2]",1.0,5.0,0.28679490089416504,1.6413400173187256,0.3381066383479986,78.0,473.0
Y,R,"[5, 3]",1.0,6.0,0.3149881362915039,1.6306710243225098,0.31917378314576017,78.0,474.0
,,"(3, 3)",,,,,,78.0,
G,D,"[4, 3]",1.0,1.0,0.612454891204834,2.685029983520508,0.45446458917096494,,475.0
B,L,"[4, 2]",1.0,2.0,0.3646512031555176,1.8266899585723877,0.464600699784398,79.0,476.0
Y,R,"[4, 3]",1.0,3.0,0.3491551876068115,1.6951189041137695,0.3269100190239346,79.0,477.0
G,D,"[5, 3]",1.0,4.0,0.37181591987609863,1.8798911571502686,0.507007194762737,79.0,478.0
B,L,"[5, 2]",1.0,5.0,0.35471200942993164,1.673624038696289,0.3144011184698455,79.0,479.0
Y,R,"[5, 3]",1.0,6.0,0.30226993560791016,1.8905150890350342,0.5716841351327925,79.0,480.0
,,"(3, 3)",,,,,,79.0,
G,D,"[4, 3]",1.0,1.0,0.5649940967559814,2.83528995513916,0.47432010393094487,,481.0
B,L,"[4, 2]",1.0,2.0,0.2929670810699463,1.8835248947143555,0.5913254623405277,80.0,482.0
Y,R,"[4, 3]",1.0,3.0,0.3426229953765869,1.8161959648132324,0.47448449853953867,80.0,483.0
G,D,"[5, 3]",1.0,4.0,0.37503695487976074,1.8436651229858398,0.46856762903676996,80.0,484.0
B,L,"[5, 2]",1.0,5.0,0.29723405838012695,2.004349946975708,0.7061242882477143,80.0,485.0
Y,R,"[5, 3]",1.0,6.0,0.2852132320404053,1.7163841724395752,0.42330753343396005,80.0,486.0
,,"(3, 3)",,,,,,80.0,
G,D,"[4, 3]",1.0,1.0,0.4630908966064453,2.8534419536590576,0.3604287628427135,,487.0
B,L,"[4, 2]",1.0,2.0,0.35961389541625977,1.8290159702301025,0.47300986702883396,81.0,488.0
Y,R,"[4, 3]",1.0,3.0,0.3103001117706299,1.8252191543579102,0.515267387898724,81.0,489.0
G,D,"[5, 3]",1.0,4.0,0.25311899185180664,1.6526930332183838,0.38501508312890137,81.0,490.0
B,L,"[5, 2]",1.0,5.0,0.303494930267334,1.7237370014190674,0.40891794957705463,81.0,491.0
Y,R,"[5, 3]",1.0,6.0,0.16855692863464355,1.7605221271514893,0.5860929784238105,81.0,492.0
,,"(3, 3)",,,,,,81.0,
G,D,"[4, 3]",1.0,1.0,0.47284698486328125,3.1218690872192383,0.6416150681692601,,493.0
B,L,"[4, 2]",1.0,2.0,0.3233938217163086,2.048478126525879,0.7241426604340995,82.0,494.0
Y,R,"[4, 3]",-1.0,2.0,0.043359994888305664,5.493227958679199,0.3348735675662786,82.0,495.0
Y,R,"[4, 4]",-1.0,1.0,0.48369407653808594,1.8910439014434814,0.3928324833077575,82.0,496.0
G,D,"[5, 4]",-1.0,0.0,0.4742918014526367,1.8419280052185059,0.3684820624771003,82.0,497.0
B,L,"[5, 3]",1.0,1.0,0.3578989505767822,1.6279969215393066,0.2633449925054688,82.0,498.0
,,"(3, 3)",,,,,,82.0,
G,D,"[4, 3]",-2.0,0.0,1.1429641246795654,4.026705980300903,0.5070096996855922,,499.0
G,D,"[5, 3]",1.0,1.0,0.35852909088134766,1.888469934463501,0.5292435300587548,83.0,500.0
B,L,"[5, 2]",1.0,2.0,0.28136682510375977,1.5854649543762207,0.31489651243007905,83.0,501.0
Y,R,"[5, 3]",1.0,3.0,0.3454549312591553,1.6429741382598877,0.2915047682127999,83.0,502.0
G,D,"[6, 3]",0.0,3.0,0.3191499710083008,1.7366960048675537,0.4116289676644299,83.0,503.0
B,L,"[6, 2]",0.0,3.0,0.3387610912322998,2.033729076385498,0.6952810678571363,83.0,504.0
,,"(3, 3)",,,,,,83.0,
G,D,"[4, 3]",1.0,1.0,0.4818229675292969,3.7026941776275635,0.3989087082950384,,505.0
B,L,"[4, 2]",1.0,2.0,0.27918410301208496,2.01322603225708,0.7288631450154488,84.0,506.0
Y,R,"[4, 3]",1.0,3.0,0.28235912322998047,1.636228084564209,0.3657242195407261,84.0,507.0
G,D,"[5, 3]",1.0,4.0,0.2581789493560791,1.595379114151001,0.3279020066276639,84.0,508.0
B,L,"[5, 2]",1.0,5.0,0.2980639934539795,2.0290961265563965,0.7402233488578769,84.0,509.0
Y,R,"[5, 3]",1.0,6.0,0.26923298835754395,1.9954099655151367,0.7190225795917526,84.0,510.0
,,"(3, 3)",,,,,,84.0,
G,D,"[4, 3]",1.0,1.0,0.39391493797302246,2.3356199264526367,0.3719236790881582,,511.0
B,L,"[4, 2]",1.0,2.0,0.3203868865966797,1.7038590908050537,0.3759552498627554,85.0,512.0
Y,R,"[4, 3]",1.0,3.0,0.2996048927307129,1.877007007598877,0.5863333483465106,85.0,513.0
G,D,"[5, 3]",1.0,4.0,0.298198938369751,1.7286012172698975,0.43224302573972895,85.0,514.0
B,L,"[5, 2]",1.0,5.0,0.3199930191040039,1.604567050933838,0.270197673663991,85.0,515.0
Y,R,"[5, 3]",1.0,6.0,0.34990596771240234,1.7545490264892578,0.3917165254482927,85.0,516.0
,,"(3, 3)",,,,,,85.0,
G,D,"[4, 3]",1.0,1.0,0.7462649345397949,3.766305923461914,0.47502034842015484,,517.0
B,L,"[4, 2]",1.0,2.0,0.2985248565673828,1.6430490016937256,0.33516544762927425,86.0,518.0
Y,R,"[4, 3]",1.0,3.0,0.25257301330566406,1.9304602146148682,0.6655250514367437,86.0,519.0
G,D,"[5, 3]",1.0,4.0,0.2963550090789795,1.8950259685516357,0.5940622767569297,86.0,520.0
B,L,"[5, 2]",1.0,5.0,0.39422106742858887,1.7917299270629883,0.4029941470861702,86.0,521.0
Y,R,"[5, 3]",1.0,6.0,0.2681162357330322,1.8326590061187744,0.5522657823893793,86.0,522.0
,,"(3, 3)",,,,,,86.0,
G,D,"[4, 3]",1.0,1.0,0.507735013961792,2.4638760089874268,0.48297389004507224,,523.0
B,L,"[4, 2]",1.0,2.0,0.2983670234680176,1.791975975036621,0.47516562392140443,87.0,524.0
Y,R,"[4, 3]",1.0,3.0,0.28102803230285645,1.7453570365905762,0.47073792184835933,87.0,525.0
G,D,"[5, 3]",1.0,4.0,0.2772030830383301,1.9262909889221191,0.6473024874675692,87.0,526.0
B,L,"[5, 2]",1.0,5.0,0.2848498821258545,1.5716328620910645,0.26918349166093947,87.0,527.0
Y,R,"[5, 3]",1.0,6.0,0.39232611656188965,2.1297738552093506,0.7320759456509716,87.0,528.0
,,"(3, 3)",,,,,,87.0,
G,D,"[4, 3]",1.0,1.0,0.49976301193237305,2.829511880874634,0.4123482765252724,,529.0
B,L,"[4, 2]",1.0,2.0,0.2573680877685547,1.6169729232788086,0.3627921922380025,88.0,530.0
Y,R,"[4, 3]",1.0,3.0,0.261005163192749,1.8485331535339355,0.5779080846893714,88.0,531.0
G,D,"[5, 3]",1.0,4.0,0.27294206619262695,1.9191019535064697,0.6472531876521025,88.0,532.0
B,L,"[5, 2]",1.0,5.0,0.28253698348999023,1.7148687839508057,0.41251750996844466,88.0,533.0
Y,R,"[5, 3]",1.0,6.0,0.2745170593261719,1.8209688663482666,0.5501847558362343,88.0,534.0
,,"(3, 3)",,,,,,88.0,
G,D,"[4, 3]",1.0,1.0,0.5503427982330322,2.872235059738159,0.6726878095971602,,535.0
B,L,"[4, 2]",1.0,2.0,0.27165985107421875,1.9921848773956299,0.7148161592010036,89.0,536.0
Y,R,"[4, 3]",-1.0,2.0,0.05010414123535156,5.772477865219116,0.5879646284753337,89.0,537.0
Y,R,"[4, 4]",-1.0,1.0,0.3881189823150635,1.9029629230499268,0.5079593333434869,89.0,538.0
G,D,"[5, 4]",-1.0,0.0,0.3683431148529053,1.6808948516845703,0.3058426027674489,89.0,539.0
B,L,"[5, 3]",1.0,1.0,0.35892200469970703,1.903709888458252,0.5427991311577922,89.0,540.0
,,"(3, 3)",,,,,,89.0,
G,D,"[4, 3]",1.0,1.0,0.5311241149902344,3.8819150924682617,0.6917635514250998,,541.0
B,L,"[4, 2]",1.0,2.0,0.2979469299316406,2.02961802482605,0.7379818172402252,90.0,542.0
Y,R,"[4, 3]",1.0,3.0,0.26770782470703125,1.5613970756530762,0.28334593419266296,90.0,543.0
G,D,"[5, 3]",1.0,4.0,0.35104799270629883,1.7118241786956787,0.36198948693970856,90.0,544.0
B,L,"[5, 2]",1.0,5.0,0.3691079616546631,1.632340908050537,0.2613679380061659,90.0,545.0
Y,R,"[5, 3]",1.0,6.0,0.4787890911102295,1.8922162055969238,0.4200511105679161,90.0,546.0
,,"(3, 3)",,,,,,90.0,
G,D,"[4, 3]",1.0,1.0,0.5671939849853516,2.5962910652160645,0.3000513763871458,,547.0
B,L,"[4, 2]",1.0,2.0,0.35489487648010254,1.7151119709014893,0.3486098195723367,91.0,548.0
Y,R,"[4, 3]",1.0,3.0,0.3487679958343506,1.7783222198486328,0.4270571613482375,91.0,549.0
G,D,"[5, 3]",1.0,4.0,0.3712441921234131,1.668868064880371,0.2962360035500044,91.0,550.0
B,L,"[5, 2]",1.0,5.0,0.22248315811157227,1.943753957748413,0.7062848050815982,91.0,551.0
Y,R,"[5, 3]",-1.0,5.0,0.03404092788696289,5.679202079772949,0.5194475290683231,91.0,552.0
,,"(3, 3)",,,,,,91.0,
G,D,"[4, 3]",1.0,1.0,0.5150070190429688,3.815235137939453,0.46866688650978916,,553.0
B,L,"[4, 2]",1.0,2.0,0.42850184440612793,1.7740581035614014,0.3431726398508271,92.0,554.0
Y,R,"[4, 3]",1.0,3.0,0.38474297523498535,2.0987730026245117,0.7082545503027733,92.0,555.0
G,D,"[5, 3]",1.0,4.0,0.4628620147705078,1.7677550315856934,0.3099423046516575,92.0,556.0
B,L,"[5, 2]",1.0,5.0,0.5912320613861084,1.9872589111328125,0.39722416624873463,92.0,557.0
Y,R,"[5, 3]",1.0,6.0,0.3952960968017578,2.1092140674591064,0.706112776211125,92.0,558.0
,,"(3, 3)",,,,,,92.0,
G,D,"[4, 3]",1.0,1.0,0.4994380474090576,2.623677968978882,0.3639232869790861,,559.0
B,L,"[4, 2]",1.0,2.0,0.41237401962280273,1.7749531269073486,0.3554555445556354,93.0,560.0
Y,R,"[4, 3]",1.0,3.0,0.3016970157623291,2.025599956512451,0.7142528780596007,93.0,561.0
G,D,"[5, 3]",1.0,4.0,0.28556299209594727,2.0025441646575928,0.7001438732139136,93.0,562.0
B,L,"[5, 2]",1.0,5.0,0.31746387481689453,1.6470670700073242,0.31442049959446755,93.0,563.0
Y,R,"[5, 3]",1.0,6.0,0.3576819896697998,1.8058760166168213,0.4370870244994484,93.0,564.0
,,"(3, 3)",,,,,,93.0,
G,D,"[4, 3]",1.0,1.0,0.960345983505249,3.7477431297302246,0.30201120330750175,,565.0
B,L,"[4, 2]",1.0,2.0,0.25084495544433594,1.5185699462890625,0.25375640472143174,94.0,566.0
Y,R,"[4, 3]",1.0,3.0,0.2860221862792969,2.0463290214538574,0.74969377768324,94.0,567.0
G,D,"[5, 3]",1.0,4.0,0.3552989959716797,1.8430228233337402,0.47646851431533976,94.0,568.0
B,L,"[5, 2]",1.0,5.0,0.3348820209503174,1.858339786529541,0.5182927815458542,94.0,569.0
Y,R,"[5, 3]",1.0,6.0,0.12147021293640137,1.7556328773498535,0.6238709271934397,94.0,570.0
,,"(3, 3)",,,,,,94.0,
G,D,"[4, 3]",1.0,1.0,0.8514969348907471,2.7826948165893555,0.34042720091196443,,571.0
B,L,"[4, 2]",1.0,2.0,0.32401514053344727,1.8783948421478271,0.5520300536921453,95.0,572.0
Y,R,"[4, 3]",1.0,3.0,0.30175304412841797,1.8046948909759521,0.4902930725752289,95.0,573.0
G,D,"[5, 3]",1.0,4.0,0.2998778820037842,1.6662511825561523,0.35673984347784177,95.0,574.0
B,L,"[5, 2]",1.0,5.0,0.24933910369873047,1.8324098587036133,0.5892998579392046,95.0,575.0
Y,R,"[5, 3]",1.0,6.0,0.2612299919128418,1.8363308906555176,0.5756434952502896,95.0,576.0
,,"(3, 3)",,,,,,95.0,
G,D,"[4, 3]",1.0,1.0,0.5378799438476562,3.878404140472412,0.6708957605753754,,577.0
B,L,"[4, 2]",1.0,2.0,0.3195040225982666,1.883296012878418,0.5542928532655851,96.0,578.0
Y,R,"[4, 3]",1.0,3.0,0.3701801300048828,1.9039077758789062,0.5250772385280851,96.0,579.0
G,D,"[5, 3]",1.0,4.0,0.3112499713897705,1.9559869766235352,0.647741810052905,96.0,580.0
B,L,"[5, 2]",1.0,5.0,0.5139009952545166,1.7864739894866943,0.26823913062822485,96.0,581.0
Y,R,"[5, 3]",1.0,6.0,0.5744659900665283,2.2387478351593018,0.6565663841301492,96.0,582.0
,,"(3, 3)",,,,,,96.0,
G,D,"[4, 3]",1.0,1.0,0.660959005355835,2.9820568561553955,0.3390003315186715,,583.0
B,L,"[4, 2]",1.0,2.0,0.3148500919342041,1.6536118984222412,0.3426906567837988,97.0,584.0
Y,R,"[4, 3]",1.0,3.0,0.19810795783996582,1.9041681289672852,0.7132453296591265,97.0,585.0
G,D,"[5, 3]",1.0,4.0,0.33133888244628906,1.678678035736084,0.34255016709263564,97.0,586.0
B,L,"[5, 2]",1.0,5.0,0.3579080104827881,1.804027795791626,0.44643231961806734,97.0,587.0
Y,R,"[5, 3]",1.0,6.0,0.3731350898742676,1.922778844833374,0.5357959996794395,97.0,588.0
,,"(3, 3)",,,,,,97.0,
G,D,"[4, 3]",1.0,1.0,0.7324059009552002,2.740017890930176,0.5593100390404819,,589.0
B,L,"[4, 2]",1.0,2.0,0.24347805976867676,1.9905409812927246,0.7498114389513515,98.0,590.0
Y,R,"[4, 3]",1.0,3.0,0.43236398696899414,1.8040521144866943,0.37098897353547794,98.0,591.0
G,D,"[5, 3]",1.0,4.0,0.4565279483795166,1.7876288890838623,0.32549186147297443,98.0,592.0
B,L,"[5, 2]",1.0,5.0,0.3684999942779541,1.8588848114013672,0.4842679258111225,98.0,593.0
Y,R,"[5, 3]",1.0,6.0,0.2935829162597656,1.8421390056610107,0.543162011379238,98.0,594.0
,,"(3, 3)",,,,,,98.0,
G,D,"[4, 3]",1.0,1.0,0.3893280029296875,2.719417095184326,0.5460370590476694,,595.0
B,L,"[4, 2]",1.0,2.0,0.38921594619750977,1.8362820148468018,0.4324608947737,99.0,596.0
Y,R,"[4, 3]",1.0,3.0,0.3258349895477295,1.7770051956176758,0.4429250072898139,99.0,597.0
G,D,"[5, 3]",1.0,4.0,0.3372929096221924,1.6835989952087402,0.34341331392407304,99.0,598.0
B,L,"[5, 2]",1.0,5.0,0.25992584228515625,1.5950851440429688,0.33865764623084355,99.0,599.0
Y,R,"[5, 3]",1.0,6.0,0.40990519523620605,1.8815710544586182,0.4700996355699251,99.0,600.0
,,"(3, 3)",,,,,,99.0,
G,D,"[4, 3]",1.0,1.0,0.8072450160980225,3.1051759719848633,0.5753221339164287,,601.0
B,L,"[4, 2]",1.0,2.0,0.26599812507629395,1.5786409378051758,0.3044459607250912,100.0,602.0
Y,R,"[4, 3]",1.0,3.0,0.3484971523284912,1.8051841259002686,0.4262228162473939,100.0,603.0
G,D,"[5, 3]",1.0,4.0,0.3204929828643799,1.9759399890899658,0.6520187942826697,100.0,604.0
B,L,"[5, 2]",1.0,5.0,0.4422900676727295,2.0132358074188232,0.5654742619181474,100.0,605.0
Y,R,"[5, 3]",1.0,6.0,0.3816947937011719,1.6951708793640137,0.3109168664907425,100.0,606.0
,,"(3, 3)",,,,,,100.0,
G,D,"[4, 3]",-2.0,0.0,1.0143799781799316,3.659742832183838,0.2874814975487081,,607.0
G,D,"[5, 3]",1.0,1.0,0.3047618865966797,1.5679409503936768,0.25552542208340184,101.0,608.0
B,L,"[5, 2]",1.0,2.0,0.31426215171813965,1.792612075805664,0.4813671534659183,101.0,609.0
Y,R,"[5, 3]",1.0,3.0,0.29630184173583984,1.8671560287475586,0.5652635004897189,101.0,610.0
G,D,"[6, 3]",0.0,3.0,0.2673530578613281,1.8973591327667236,0.6125131274089899,101.0,611.0
B,L,"[6, 2]",0.0,3.0,0.33890795707702637,1.9429960250854492,0.5890128995642028,101.0,612.0
,,"(3, 3)",,,,,,101.0,
G,D,"[4, 3]",1.0,1.0,0.5900530815124512,2.747715950012207,0.28728005813980173,,613.0
B,L,"[4, 2]",1.0,2.0,0.27557992935180664,1.8876268863677979,0.6080090088273327,102.0,614.0
Y,R,"[4, 3]",1.0,3.0,0.2543039321899414,1.8332798480987549,0.5747299497379383,102.0,615.0
G,D,"[5, 3]",1.0,4.0,0.30823302268981934,1.8409690856933594,0.5324362234757478,102.0,616.0
B,L,"[5, 2]",1.0,5.0,0.29012513160705566,1.660233974456787,0.35959702912039426,102.0,617.0
Y,R,"[5, 3]",1.0,6.0,0.3701670169830322,1.7356948852539062,0.36190172915986146,102.0,618.0
,,"(3, 3)",,,,,,102.0,
G,D,"[4, 3]",1.0,1.0,0.34804487228393555,2.5554728507995605,0.3676860891569655,,619.0
B,L,"[4, 2]",1.0,2.0,0.28342294692993164,1.7513370513916016,0.4688858658222564,103.0,620.0
Y,R,"[4, 3]",1.0,3.0,0.2623441219329834,1.9774258136749268,0.7126723445035914,103.0,621.0
G,D,"[5, 3]",1.0,4.0,0.23761296272277832,1.6021308898925781,0.3486591896313375,103.0,622.0
B,L,"[5, 2]",1.0,5.0,0.22114801406860352,1.7692408561706543,0.5343380730722718,103.0,623.0
Y,R,"[5, 3]",1.0,6.0,0.2575981616973877,1.7663757801055908,0.5009145589982165,103.0,624.0
,,"(3, 3)",,,,,,103.0,
G,D,"[4, 3]",1.0,1.0,0.3924839496612549,2.222965955734253,0.4740481225616081,,625.0
B,L,"[4, 2]",1.0,2.0,0.24851107597351074,1.6678681373596191,0.4086006492327463,104.0,626.0
Y,R,"[4, 3]",1.0,3.0,0.21676993370056152,1.6982378959655762,0.4735318155512124,104.0,627.0
G,D,"[5, 3]",1.0,4.0,0.2591090202331543,1.7662150859832764,0.506390668902962,104.0,628.0
B,L,"[5, 2]",1.0,5.0,0.29018402099609375,1.9982337951660156,0.7045460145483704,104.0,629.0
Y,R,"[5, 3]",1.0,6.0,0.2662210464477539,1.5509510040283203,0.27262032698443833,104.0,630.0
,,"(3, 3)",,,,,,104.0,
G,D,"[4, 3]",1.0,1.0,0.3283660411834717,2.210510015487671,0.5330222384405845,,631.0
B,L,"[4, 2]",1.0,2.0,0.2768740653991699,1.674448013305664,0.39089474330949503,105.0,632.0
Y,R,"[4, 3]",1.0,3.0,0.3569309711456299,1.6205148696899414,0.261763967041623,105.0,633.0
G,D,"[5, 3]",1.0,4.0,0.4483299255371094,1.9675240516662598,0.5289336688696256,105.0,634.0
B,L,"[5, 2]",1.0,5.0,0.3041880130767822,1.920943021774292,0.6165314535747564,105.0,635.0
Y,R,"[5, 3]",1.0,6.0,0.37551307678222656,1.7198331356048584,0.33671110367611806,105.0,636.0
,,"(3, 3)",,,,,,105.0,
G,D,"[4, 3]",-2.0,0.0,1.1812610626220703,3.1081478595733643,0.31175225587680283,,637.0
G,D,"[5, 3]",1.0,1.0,0.23939085006713867,1.6441938877105713,0.40590796593922224,106.0,638.0
B,L,"[5, 2]",1.0,2.0,0.2921459674835205,1.7569448947906494,0.46273698818293785,106.0,639.0
Y,R,"[5, 3]",1.0,3.0,0.3045620918273926,1.5735352039337158,0.25329743526488624,106.0,640.0
G,D,"[6, 3]",0.0,3.0,0.268873929977417,1.9835379123687744,0.703022123762996,106.0,641.0
B,L,"[6, 2]",0.0,3.0,0.2526240348815918,1.6729340553283691,0.426358654220684,106.0,642.0
,,"(3, 3)",,,,,,106.0,
G,D,"[4, 3]",1.0,1.0,0.5486109256744385,2.98671293258667,0.37988525007959845,,643.0
B,L,"[4, 2]",1.0,2.0,0.25618720054626465,1.6488490104675293,0.3786687003674632,107.0,644.0
Y,R,"[4, 3]",1.0,3.0,0.2868649959564209,1.648744821548462,0.3608145480863209,107.0,645.0
G,D,"[5, 3]",1.0,4.0,0.406872034072876,1.7321269512176514,0.3263746420264545,107.0,646.0
B,L,"[5, 2]",1.0,5.0,0.320889949798584,1.6727709770202637,0.34920619294439836,107.0,647.0
Y,R,"[5, 3]",1.0,6.0,0.2015841007232666,1.8283789157867432,0.6107313788576361,107.0,648.0
,,"(3, 3)",,,,,,107.0,
G,D,"[4, 3]",1.0,1.0,0.4175989627838135,3.233447790145874,0.2612415813780431,,649.0
B,L,"[4, 2]",1.0,2.0,0.2395479679107666,1.9355099201202393,0.6963594923545764,108.0,650.0
Y,R,"[4, 3]",1.0,3.0,0.2427530288696289,1.9695079326629639,0.7159617780454388,108.0,651.0
G,D,"[5, 3]",1.0,4.0,0.10317111015319824,1.7342150211334229,0.6169754622601816,108.0,652.0
B,L,"[5, 2]",1.0,5.0,0.3027069568634033,1.6290221214294434,0.3130652080075315,108.0,653.0
Y,R,"[5, 3]",1.0,6.0,0.3416769504547119,1.878067970275879,0.5242269659414245,108.0,654.0
,,"(3, 3)",,,,,,108.0,
G,D,"[4, 3]",1.0,1.0,0.4409940242767334,2.845482110977173,0.4533168397552588,,655.0
B,L,"[4, 2]",1.0,2.0,0.6070928573608398,1.9765651226043701,0.3634176408941924,109.0,656.0
Y,R,"[4, 3]",1.0,3.0,0.20768022537231445,1.5140900611877441,0.2942591981934037,109.0,657.0
G,D,"[5, 3]",1.0,4.0,0.30488085746765137,1.8359570503234863,0.5300441015024125,109.0,658.0
B,L,"[5, 2]",-1.0,4.0,0.02331089973449707,5.5891900062561035,0.4360848955517662,109.0,659.0
B,L,"[5, 1]",-1.0,3.0,0.5097441673278809,1.7919340133666992,0.2616575856288356,109.0,660.0
,,"(3, 3)",,,,,,109.0,
G,D,"[4, 3]",1.0,1.0,0.609036922454834,3.700536012649536,0.3288678245995367,,661.0
B,L,"[4, 2]",1.0,2.0,0.385512113571167,1.895442008972168,0.507428240355162,110.0,662.0
Y,R,"[4, 3]",1.0,3.0,0.3095090389251709,1.8504979610443115,0.5412207029642213,110.0,663.0
G,D,"[5, 3]",1.0,4.0,0.28860902786254883,2.03269100189209,0.7405833145768396,110.0,664.0
B,L,"[5, 2]",1.0,5.0,0.3363618850708008,2.043747901916504,0.7010812906873805,110.0,665.0
Y,R,"[5, 3]",1.0,6.0,0.32549405097961426,1.6284940242767334,0.29658070260465963,110.0,666.0
,,"(3, 3)",,,,,,110.0,
G,D,"[4, 3]",1.0,1.0,0.587385892868042,3.051807165145874,0.6481113937053165,,667.0
B,L,"[4, 2]",1.0,2.0,0.36718010902404785,1.7258610725402832,0.34097488632562395,111.0,668.0
Y,R,"[4, 3]",1.0,3.0,0.48777318000793457,2.0331249237060547,0.5406073116871382,111.0,669.0
G,D,"[5, 3]",1.0,4.0,0.3413670063018799,1.6636638641357422,0.32118761583663585,111.0,670.0
B,L,"[5, 2]",1.0,5.0,0.31170010566711426,1.9288430213928223,0.616350218915876,111.0,671.0
Y,R,"[5, 3]",1.0,6.0,0.23559999465942383,1.538064956665039,0.2880964106842129,111.0,672.0
,,"(3, 3)",,,,,,111.0,
G,D,"[4, 3]",1.0,1.0,0.5644829273223877,2.84893798828125,0.4369366834315467,,673.0
B,L,"[4, 2]",1.0,2.0,0.24957609176635742,1.8346350193023682,0.5714338656114706,112.0,674.0
Y,R,"[4, 3]",1.0,3.0,0.22516298294067383,1.5175180435180664,0.28929269199452384,112.0,675.0
G,D,"[5, 3]",1.0,4.0,0.31037306785583496,1.6744489669799805,0.3640185636273277,112.0,676.0
B,L,"[5, 2]",-1.0,4.0,0.03454089164733887,5.842120885848999,0.6725051142701577,112.0,677.0
B,L,"[5, 1]",-1.0,3.0,0.38007616996765137,2.0043649673461914,0.6102627668229457,112.0,678.0
,,"(3, 3)",,,,,,112.0,
G,D,"[4, 3]",1.0,1.0,0.5619001388549805,2.9636600017547607,0.39060102096860133,,679.0
B,L,"[4, 2]",1.0,2.0,0.31458306312561035,1.955345869064331,0.6458988895598539,113.0,680.0
Y,R,"[4, 3]",1.0,3.0,0.2830231189727783,1.9115920066833496,0.6073660056699421,113.0,681.0
G,D,"[5, 3]",1.0,4.0,0.3372039794921875,2.0629689693450928,0.7203607001372931,113.0,682.0
B,L,"[5, 2]",1.0,5.0,0.24835991859436035,1.636368989944458,0.3905232866815168,113.0,683.0
Y,R,"[5, 3]",1.0,6.0,0.43329501152038574,2.1090610027313232,0.6659779101197498,113.0,684.0
,,"(3, 3)",,,,,,113.0,
G,D,"[4, 3]",1.0,1.0,0.37723803520202637,3.1365559101104736,0.5194964798176493,,685.0
B,L,"[4, 2]",1.0,2.0,0.27007293701171875,1.7777111530303955,0.5137212663550053,114.0,686.0
Y,R,"[4, 3]",1.0,3.0,0.2819368839263916,1.6771471500396729,0.3912187121421401,114.0,687.0
G,D,"[5, 3]",1.0,4.0,0.5353720188140869,2.162724018096924,0.6202176327958158,114.0,688.0
B,L,"[5, 2]",-1.0,4.0,0.0997929573059082,5.609446048736572,0.38007346710420215,114.0,689.0
Y,R,"[5, 3]",1.0,5.0,0.40320682525634766,1.9892749786376953,0.5691189970835759,114.0,690.0
,,"(3, 3)",,,,,,114.0,
G,D,"[4, 3]",1.0,1.0,0.6180031299591064,3.55267596244812,0.5053906164629327,,691.0
B,L,"[4, 2]",1.0,2.0,0.2962009906768799,1.997899055480957,0.7029387949832433,115.0,692.0
Y,R,"[4, 3]",1.0,3.0,0.3031740188598633,1.698263168334961,0.3849678821033623,115.0,693.0
G,D,"[5, 3]",1.0,4.0,0.35244202613830566,1.6849761009216309,0.3199614122435518,115.0,694.0
B,L,"[5, 2]",1.0,5.0,0.3280799388885498,1.7497549057006836,0.41986004924010545,115.0,695.0
Y,R,"[5, 3]",1.0,6.0,0.27622294425964355,1.5502228736877441,0.27022236518263865,115.0,696.0
,,"(3, 3)",,,,,,115.0,
G,D,"[4, 3]",1.0,1.0,0.40070199966430664,2.7562761306762695,0.42632894977311836,,697.0
B,L,"[4, 2]",1.0,2.0,0.35747385025024414,1.7862141132354736,0.42918767530880914,116.0,698.0
Y,R,"[4, 3]",1.0,3.0,0.3446938991546631,1.9415531158447266,0.6040549481932076,116.0,699.0
G,D,"[5, 3]",1.0,4.0,0.27006101608276367,1.9747209548950195,0.6952843568882074,116.0,700.0
B,L,"[5, 2]",1.0,5.0,0.268585205078125,1.5444488525390625,0.27345073820738264,116.0,701.0
Y,R,"[5, 3]",1.0,6.0,0.3802621364593506,2.096215009689331,0.7192694356121403,116.0,702.0
,,"(3, 3)",,,,,,116.0,
G,D,"[4, 3]",1.0,1.0,0.5334270000457764,3.220918893814087,0.49039425403759135,,703.0
B,L,"[4, 2]",-1.0,1.0,0.0006918907165527344,5.75835394859314,0.6319368874674429,117.0,704.0
Y,R,"[4, 3]",1.0,2.0,0.4151010513305664,1.8635759353637695,0.445736986796771,117.0,705.0
G,D,"[5, 3]",1.0,3.0,0.32044100761413574,1.9055109024047852,0.6010329386749793,117.0,706.0
B,L,"[5, 2]",1.0,4.0,0.31106114387512207,1.6480319499969482,0.3330238435575423,117.0,707.0
Y,R,"[5, 3]",1.0,5.0,0.30608415603637695,1.6792399883270264,0.3621568289622354,117.0,708.0
,,"(3, 3)",,,,,,117.0,
G,D,"[4, 3]",1.0,1.0,0.46574997901916504,2.910921812057495,0.6561133111933384,,709.0
B,L,"[4, 2]",1.0,2.0,0.3017771244049072,1.8800039291381836,0.5695709196126312,118.0,710.0
Y,R,"[4, 3]",1.0,3.0,0.320540189743042,1.670846939086914,0.3407261629085357,118.0,711.0
G,D,"[5, 3]",1.0,4.0,0.32924604415893555,1.6667969226837158,0.340875594850603,118.0,712.0
B,L,"[5, 2]",1.0,5.0,0.306257963180542,1.7006769180297852,0.3914719422700669,118.0,713.0
Y,R,"[5, 3]",1.0,6.0,0.2854499816894531,1.856029987335205,0.5640906978305911,118.0,714.0
,,"(3, 3)",,,,,,118.0,
G,D,"[4, 3]",1.0,1.0,0.39909791946411133,2.938336133956909,0.38565209650096727,,715.0
B,L,"[4, 2]",1.0,2.0,0.25548791885375977,1.7735159397125244,0.5090857851428083,119.0,716.0
Y,R,"[4, 3]",1.0,3.0,0.3151681423187256,1.7385509014129639,0.4144489262275699,119.0,717.0
G,D,"[5, 3]",1.0,4.0,0.31191396713256836,2.064110040664673,0.7448998634943722,119.0,718.0
B,L,"[5, 2]",1.0,5.0,0.3022420406341553,1.7604379653930664,0.45581564998699564,119.0,719.0
Y,R,"[5, 3]",1.0,6.0,0.3396420478820801,1.6106550693511963,0.2664833642638628,119.0,720.0
,,"(3, 3)",,,,,,119.0,
G,D,"[4, 3]",1.0,1.0,0.5857229232788086,2.6774561405181885,0.6103050333290456,,721.0
B,L,"[4, 2]",1.0,2.0,0.26624202728271484,1.945430040359497,0.6889854590704185,120.0,722.0
Y,R,"[4, 3]",1.0,3.0,0.3024430274963379,1.6742079257965088,0.36350071648693655,120.0,723.0
G,D,"[5, 3]",1.0,4.0,0.3521609306335449,2.0246331691741943,0.6545884561674655,120.0,724.0
B,L,"[5, 2]",1.0,5.0,0.2508389949798584,1.5205459594726562,0.25889539529921196,120.0,725.0
Y,R,"[5, 3]",1.0,6.0,0.6051628589630127,2.0082879066467285,0.400264088681295,120.0,726.0
,,"(3, 3)",,,,,,120.0,
G,D,"[4, 3]",1.0,1.0,0.44376111030578613,2.580334186553955,0.4638856417965927,,727.0
B,L,"[4, 2]",1.0,2.0,0.2960660457611084,1.9009449481964111,0.5982457850657259,121.0,728.0
Y,R,"[4, 3]",1.0,3.0,0.31209397315979004,1.78255295753479,0.4642517596863989,121.0,729.0
G,D,"[5, 3]",1.0,4.0,0.280717134475708,1.651550054550171,0.3659216068484549,121.0,730.0
B,L,"[5, 2]",1.0,5.0,0.31667494773864746,1.6127238273620605,0.2786437944752803,121.0,731.0
Y,R,"[5, 3]",1.0,6.0,0.29387807846069336,2.0149309635162354,0.7269804956840306,121.0,732.0
,,"(3, 3)",,,,,,121.0,
G,D,"[4, 3]",1.0,1.0,0.41869688034057617,2.673074960708618,0.4499256032117036,,733.0
B,L,"[4, 2]",1.0,2.0,0.30494213104248047,2.066558837890625,0.7495555816209165,122.0,734.0
Y,R,"[4, 3]",-1.0,2.0,0.09458804130554199,5.79849100112915,0.5650225845735283,122.0,735.0
G,D,"[5, 3]",1.0,3.0,0.3037440776824951,2.0079338550567627,0.6894847906687066,122.0,736.0
B,L,"[5, 2]",1.0,4.0,0.2476029396057129,1.5743229389190674,0.3308121246575737,122.0,737.0
Y,R,"[5, 3]",1.0,5.0,0.3764059543609619,1.7736380100250244,0.38787157745717216,122.0,738.0
,,"(3, 3)",,,,,,122.0,
G,D,"[4, 3]",1.0,1.0,0.6056990623474121,3.118198871612549,0.42247291919637764,,739.0
B,L,"[4, 2]",1.0,2.0,0.3222060203552246,1.6523308753967285,0.325039325423496,123.0,740.0
Y,R,"[4, 3]",1.0,3.0,0.3453941345214844,1.7322008609771729,0.39054016309548445,123.0,741.0
G,D,"[5, 3]",1.0,4.0,0.3969869613647461,2.0801379680633545,0.6868909780155901,123.0,742.0
B,L,"[5, 2]",1.0,5.0,0.24270892143249512,1.9392449855804443,0.6927383709482277,123.0,743.0
Y,R,"[5, 3]",1.0,6.0,0.281635046005249,1.660066843032837,0.3865669703094383,123.0,744.0
,,"(3, 3)",,,,,,123.0,
G,D,"[4, 3]",1.0,1.0,0.43228721618652344,2.51963210105896,0.28962484995209065,,745.0
B,L,"[4, 2]",1.0,2.0,0.39823293685913086,1.8088741302490234,0.4152128405266881,124.0,746.0
Y,R,"[4, 3]",1.0,3.0,0.27486300468444824,1.787179946899414,0.5021972558415047,124.0,747.0
G,D,"[5, 3]",1.0,4.0,0.44837403297424316,2.143990993499756,0.679384331452288,124.0,748.0
B,L,"[5, 2]",1.0,5.0,0.2504410743713379,1.9322381019592285,0.661426690236943,124.0,749.0
Y,R,"[5, 3]",1.0,6.0,0.29369688034057617,1.6416900157928467,0.3533696256046018,124.0,750.0
,,"(3, 3)",,,,,,124.0,
G,D,"[4, 3]",1.0,1.0,0.6328549385070801,3.269002914428711,0.47244115847791635,,751.0
B,L,"[4, 2]",1.0,2.0,0.3824779987335205,1.7052600383758545,0.3111751302472794,125.0,752.0
Y,R,"[4, 3]",1.0,3.0,0.32635998725891113,1.6214599609375,0.2994581372168387,125.0,753.0
G,D,"[5, 3]",1.0,4.0,0.45908308029174805,2.096039056777954,0.6283361239698957,125.0,754.0
B,L,"[5, 2]",1.0,5.0,0.432830810546875,2.1126229763031006,0.6744761507319992,125.0,755.0
Y,R,"[5, 3]",1.0,6.0,0.2573380470275879,1.7697420120239258,0.5277050745752896,125.0,756.0
,,"(3, 3)",,,,,,125.0,
G,D,"[4, 3]",1.0,1.0,0.46886587142944336,2.5261309146881104,0.6035740866978214,,757.0
B,L,"[4, 2]",1.0,2.0,0.44233083724975586,1.8652520179748535,0.4191084270469928,126.0,758.0
Y,R,"[4, 3]",1.0,3.0,0.5366690158843994,2.107326030731201,0.5593159065848641,126.0,759.0
G,D,"[5, 3]",1.0,4.0,0.2970139980316162,1.9703681468963623,0.6797397834329773,126.0,760.0
B,L,"[5, 2]",1.0,5.0,0.3966219425201416,2.0298428535461426,0.6262145313355867,126.0,761.0
Y,R,"[5, 3]",1.0,6.0,0.3711988925933838,1.7359838485717773,0.3625249236443087,126.0,762.0
,,"(3, 3)",,,,,,126.0,
G,D,"[4, 3]",1.0,1.0,0.5285689830780029,3.1047608852386475,0.5003986059721066,,763.0
B,L,"[4, 2]",1.0,2.0,0.3660850524902344,1.7045562267303467,0.32195939055697315,127.0,764.0
Y,R,"[4, 3]",1.0,3.0,0.3412058353424072,1.9004480838775635,0.5554647010833349,127.0,765.0
G,D,"[5, 3]",1.0,4.0,0.4448261260986328,1.949450969696045,0.5048174710259381,127.0,766.0
B,L,"[5, 2]",1.0,5.0,0.2754659652709961,1.9074780941009521,0.6289062513483615,127.0,767.0
Y,R,"[5, 3]",1.0,6.0,0.2913851737976074,1.5539751052856445,0.26669544231569425,127.0,768.0
,,"(3, 3)",,,,,,127.0,
G,D,"[4, 3]",1.0,1.0,0.9112699031829834,3.0189380645751953,0.4686502926770921,,769.0
B,L,"[4, 2]",1.0,2.0,0.355180025100708,2.0504088401794434,0.6859311139045263,128.0,770.0
B,L,"[4, 1]",1.0,3.0,0.3123011589050293,1.564527988433838,0.2504569589339138,128.0,771.0
G,D,"[5, 1]",-2.0,3.0,1.453658103942871,3.1762988567352295,0.6931385506340622,128.0,772.0
G,D,"[6, 1]",0.0,3.0,0.5273349285125732,1.8691649436950684,0.3460064656198122,128.0,773.0
B,L,"[6, 0]",0.0,3.0,0.722851037979126,1.9586660861968994,0.2548597908685217,128.0,774.0
,,"(3, 3)",,,,,,128.0,
B,L,"[3, 2]",-1.0,-1.0,0.44838380813598633,3.275912046432495,0.3805862905866856,,775.0
G,D,"[4, 2]",1.0,0.0,0.4224870204925537,2.1391448974609375,0.7026786566538837,129.0,776.0
R,U,"[3, 2]",-1.0,-1.0,0.5184171199798584,1.9392609596252441,0.4088237059563677,129.0,777.0
Y,R,"[3, 3]",-2.0,-1.0,1.4211640357971191,3.074146032333374,0.6326965319989262,129.0,778.0
Y,R,"[3, 4]",-1.0,-2.0,0.931833028793335,2.278588056564331,0.3449319823585657,129.0,779.0
G,D,"[4, 4]",-1.0,-3.0,0.5723340511322021,1.8431580066680908,0.2714386176594349,129.0,780.0
,,"(3, 3)",,,,,,129.0,
B,L,"[3, 2]",-1.0,-1.0,0.40598392486572266,3.0464260578155518,0.33435601213631816,,781.0
R,U,"[2, 2]",-2.0,-1.0,1.0183939933776855,2.709326982498169,0.6605886174126876,130.0,782.0
R,U,"[1, 2]",-1.0,-2.0,0.29253101348876953,1.889888048171997,0.6000472883754693,130.0,783.0
Y,R,"[1, 3]",-1.0,-3.0,0.31186795234680176,1.6031990051269531,0.28711835920472,130.0,784.0
G,D,"[2, 3]",-1.0,-4.0,0.41071486473083496,1.9844539165496826,0.5710715666449124,130.0,785.0
G,D,"[3, 3]",-2.0,-4.0,1.0323848724365234,2.6919219493865967,0.6296621456802645,130.0,786.0
,,"(3, 3)",,,,,,130.0,
B,L,"[3, 2]",-2.0,0.0,1.0096259117126465,3.4915931224823,0.3047642756213493,,787.0
R,U,"[2, 2]",-1.0,-1.0,0.48523807525634766,2.060626983642578,0.5652160179480921,131.0,788.0
Y,R,"[2, 3]",-1.0,-2.0,0.5815830230712891,1.9753928184509277,0.39069460788389004,131.0,789.0
G,D,"[3, 3]",-2.0,-4.0,0.33919787406921387,1.937161922454834,0.5945375274910749,131.0,790.0
B,L,"[3, 2]",-1.0,-5.0,0.3258640766143799,1.8418760299682617,0.5196513231504762,131.0,791.0
B,L,"[3, 1]",-2.0,-5.0,1.8109979629516602,3.360308885574341,0.5135344330899634,131.0,792.0
,,"(3, 3)",,,,,,131.0,
B,L,"[3, 2]",-1.0,-1.0,0.476809024810791,3.542581081390381,0.5057717384256775,,793.0
Y,R,"[3, 3]",-2.0,-3.0,0.5264129638671875,2.1151480674743652,0.5875198814014712,132.0,794.0
R,U,"[2, 3]",-1.0,-4.0,0.5385220050811768,1.8610379695892334,0.3157777916924549,132.0,795.0
G,D,"[3, 3]",-2.0,-4.0,1.2019398212432861,2.6227641105651855,0.3884353633728,132.0,796.0
G,D,"[4, 3]",1.0,-3.0,0.28258705139160156,1.8875360488891602,0.5923023984608666,132.0,797.0
G,D,"[5, 3]",-2.0,-3.0,1.3950960636138916,2.8777401447296143,0.4534116940553467,132.0,798.0
,,"(3, 3)",,,,,,132.0,
G,D,"[4, 3]",1.0,1.0,0.3952188491821289,3.265352964401245,0.535589035948371,,799.0
G,D,"[5, 3]",-2.0,1.0,1.0022788047790527,2.4595179557800293,0.4283740751846049,133.0,800.0
G,D,"[6, 3]",0.0,1.0,0.41954493522644043,1.986732006072998,0.5650758667539519,133.0,801.0
B,L,"[6, 2]",0.0,1.0,0.5463671684265137,1.8560941219329834,0.30467469816258175,133.0,802.0
Y,R,"[6, 3]",-2.0,1.0,1.2905220985412598,2.685218095779419,0.3563300954054523,133.0,803.0
Y,R,"[6, 4]",0.0,1.0,0.7612440586090088,2.2004590034484863,0.44021556008324386,133.0,804.0
,,"(3, 3)",,,,,,133.0,
G,D,"[4, 3]",-2.0,0.0,1.0128090381622314,3.6541149616241455,0.5606866266709003,,805.0
G,D,"[5, 3]",-1.0,-1.0,0.252338171005249,1.9753930568695068,0.7193112357300513,134.0,806.0
B,L,"[5, 2]",-1.0,-2.0,0.32011890411376953,1.9852709770202637,0.6545296906690294,134.0,807.0
Y,R,"[5, 3]",-1.0,-3.0,0.27281999588012695,1.6465129852294922,0.36798861683584205,134.0,808.0
G,D,"[6, 3]",-2.0,-3.0,1.3716349601745605,2.8784141540527344,0.47952379816949864,134.0,809.0
G,D,"[6, 3]",0.0,-3.0,0.24864912033081055,1.585486888885498,0.3153613877742831,134.0,810.0
,,"(3, 3)",,,,,,134.0,
G,D,"[4, 3]",-1.0,-1.0,0.3811500072479248,4.0902040004730225,0.4719251759118112,,811.0
Y,R,"[4, 4]",-1.0,-2.0,0.857335090637207,2.1871769428253174,0.3258044668364102,135.0,812.0
G,D,"[5, 4]",-1.0,-3.0,0.4332749843597412,1.746230125427246,0.3054282933838868,135.0,813.0
B,L,"[5, 3]",-2.0,-3.0,1.0791230201721191,2.771358013153076,0.6597489728379649,135.0,814.0
B,L,"[5, 2]",-1.0,-4.0,0.26574110984802246,1.825382947921753,0.5687502183010622,135.0,815.0
R,U,"[4, 2]",-1.0,-5.0,0.6421599388122559,2.136029005050659,0.488008931103751,135.0,816.0
,,"(3, 3)",,,,,,135.0,
G,D,"[4, 3]",-1.0,-1.0,0.769705057144165,3.7133638858795166,0.36820282043951086,,817.0
G,D,"[5, 3]",-2.0,-1.0,1.2053499221801758,2.941646099090576,0.7095550281878495,136.0,818.0
G,D,"[6, 3]",0.0,-1.0,0.4122741222381592,1.8247489929199219,0.4178812054447573,136.0,819.0
B,L,"[6, 2]",0.0,-1.0,0.3111090660095215,1.615952968597412,0.30048471372922547,136.0,820.0
Y,R,"[6, 3]",0.0,-1.0,0.539409875869751,2.155764102935791,0.6059776794587952,136.0,821.0
G,D,"[6, 3]",0.0,-1.0,0.3872721195220947,1.8228051662445068,0.4290527082981004,136.0,822.0
,,"(3, 3)",,,,,,136.0,
G,D,"[4, 3]",-1.0,-1.0,0.645158052444458,3.4721689224243164,0.3012956780453132,,823.0
G,D,"[5, 3]",-1.0,-2.0,0.31759095191955566,1.6118230819702148,0.27976577727548263,137.0,824.0
B,L,"[5, 2]",-2.0,-2.0,1.5459811687469482,3.2020838260650635,0.6149470732421767,137.0,825.0
B,L,"[5, 1]",-1.0,-3.0,0.34606099128723145,1.7559969425201416,0.4042760395857438,137.0,826.0
Y,R,"[5, 2]",-1.0,-4.0,0.8170030117034912,2.4729151725769043,0.6437589583363377,137.0,827.0
G,D,"[6, 2]",0.0,-4.0,0.8644251823425293,2.3518669605255127,0.4957615222647067,137.0,828.0
,,"(3, 3)",,,,,,137.0,
Y,R,"[3, 4]",-1.0,-1.0,0.4437389373779297,3.431245803833008,0.61012403987084,,829.0
G,D,"[4, 4]",-1.0,-2.0,0.3173940181732178,2.044942855834961,0.7214595582812912,138.0,830.0
B,L,"[4, 3]",-1.0,-3.0,0.39534902572631836,2.0702288150787354,0.6750723346781312,138.0,831.0
G,D,"[5, 3]",-1.0,-4.0,0.3229939937591553,1.6768829822540283,0.35229038386098194,138.0,832.0
R,U,"[4, 3]",-1.0,-5.0,0.7834961414337158,2.0981109142303467,0.30041854690615283,138.0,833.0
Y,R,"[4, 4]",-2.0,-5.0,1.0905611515045166,2.739861011505127,0.6065807149763803,138.0,834.0
,,"(3, 3)",,,,,,138.0,
Y,R,"[3, 4]",-1.0,-1.0,0.46325016021728516,4.258103847503662,0.7148205363853375,,835.0
G,D,"[4, 4]",-1.0,-2.0,0.33878302574157715,1.7932939529418945,0.44143912206846775,139.0,836.0
B,L,"[4, 3]",-1.0,-3.0,0.4726250171661377,2.200773000717163,0.725250140545213,139.0,837.0
G,D,"[5, 3]",-2.0,-3.0,5.745789051055908,7.367759943008423,0.5931557104700205,139.0,838.0
G,D,"[6, 3]",-2.0,-3.0,3.1072890758514404,4.748105049133301,0.6080201948822895,139.0,839.0
G,D,"[6, 3]",-2.0,-3.0,1.092362880706787,2.3893790245056152,0.26424409155482625,139.0,840.0
,,"(3, 3)",,,,,,139.0,
G,D,"[4, 3]",-2.0,0.0,1.9813859462738037,4.925565004348755,0.6727081407494699,,841.0
G,D,"[5, 3]",-2.0,0.0,2.6451969146728516,4.272536993026733,0.5952085948394132,140.0,842.0
G,D,"[6, 3]",-2.0,0.0,1.0273950099945068,2.3893680572509766,0.3348858871674919,140.0,843.0
G,D,"[6, 3]",-2.0,0.0,1.0665278434753418,2.811418056488037,0.7125629597822529,140.0,844.0
G,D,"[6, 3]",0.0,0.0,0.9106290340423584,2.517825126647949,0.6136895345471755,140.0,845.0
B,L,"[6, 2]",0.0,0.0,0.46152400970458984,1.9415111541748047,0.472036994135377,140.0,846.0
,,"(3, 3)",,,,,,140.0,
G,D,"[4, 3]",-2.0,0.0,2.65616512298584,5.728611946105957,0.35080292205214536,,847.0
G,D,"[5, 3]",-1.0,-1.0,0.35187697410583496,1.7534008026123047,0.3873504772959424,141.0,848.0
B,L,"[5, 2]",-2.0,-1.0,1.4689741134643555,3.172945976257324,0.6767046214081236,141.0,849.0
B,L,"[5, 1]",-1.0,-2.0,0.36268115043640137,1.6242880821228027,0.26812016876419215,141.0,850.0
G,D,"[6, 1]",-2.0,-2.0,1.1532459259033203,2.6618950366973877,0.47980834921903964,141.0,851.0
G,D,"[6, 1]",0.0,-2.0,0.3454909324645996,1.7217228412628174,0.368416055009079,141.0,852.0
,,"(3, 3)",,,,,,141.0,
Y,R,"[3, 4]",-2.0,0.0,1.1316990852355957,4.572410821914673,0.5071005754779259,,853.0
G,D,"[4, 4]",-2.0,0.0,1.1330339908599854,2.4395179748535156,0.2801913580147951,142.0,854.0
G,D,"[5, 4]",-1.0,-1.0,0.2715771198272705,1.664518117904663,0.3777074502071451,142.0,855.0
G,D,"[6, 4]",0.0,-1.0,0.5696151256561279,2.253261089324951,0.6807295485918919,142.0,856.0
B,L,"[6, 3]",0.0,-1.0,0.2910900115966797,1.9256911277770996,0.6232082220406101,142.0,857.0
Y,R,"[6, 4]",0.0,-1.0,0.4203331470489502,1.96891188621521,0.5421981626593152,142.0,858.0
,,"(3, 3)",,,,,,142.0,
B,L,"[3, 2]",-2.0,0.0,2.4205219745635986,5.226761817932129,0.41893841186405933,,859.0
B,L,"[3, 1]",1.0,1.0,0.42249202728271484,2.1059730052948,0.6745774503464981,143.0,860.0
Y,R,"[3, 2]",-1.0,0.0,0.9276449680328369,2.459813117980957,0.5345313427872713,143.0,861.0
G,D,"[4, 2]",-1.0,-1.0,0.5192279815673828,1.9003069400787354,0.3683311120058747,143.0,862.0
R,U,"[3, 2]",-1.0,-2.0,0.6124880313873291,2.153669834136963,0.5384485339187821,143.0,863.0
B,L,"[3, 1]",1.0,-1.0,0.38530898094177246,1.8049390316009521,0.4101376152887797,143.0,864.0
,,"(3, 3)",,,,,,143.0,
B,L,"[3, 2]",-2.0,0.0,1.011521816253662,3.733651876449585,0.3937811077838483,,865.0
B,L,"[3, 1]",1.0,1.0,0.47509121894836426,1.9794378280639648,0.5065449112866087,144.0,866.0
B,L,"[3, 0]",0.0,1.0,0.34177517890930176,2.004960060119629,0.6611722071695445,144.0,867.0
Y,R,"[3, 1]",1.0,2.0,0.3738279342651367,2.0376060009002686,0.6657535769428374,144.0,868.0
Y,R,"[3, 2]",-1.0,1.0,0.650933027267456,2.3721020221710205,0.7044701935886988,144.0,869.0
G,D,"[4, 2]",-1.0,0.0,0.4712700843811035,2.0575459003448486,0.5787066761885724,144.0,870.0
,,"(3, 3)",,,,,,144.0,
B,L,"[3, 2]",-2.0,0.0,1.335158109664917,3.898738145828247,0.39405522865991904,,871.0
B,L,"[3, 1]",1.0,1.0,0.31449198722839355,2.0202701091766357,0.6973632414781084,145.0,872.0
B,L,"[3, 0]",0.0,1.0,0.3666698932647705,1.987534999847412,0.5850341741558325,145.0,873.0
Y,R,"[3, 1]",1.0,2.0,0.3379828929901123,1.8772079944610596,0.5288566391953009,145.0,874.0
R,U,"[2, 1]",1.0,3.0,0.4654860496520996,2.202349901199341,0.7478082823912242,145.0,875.0
R,U,"[1, 1]",1.0,4.0,0.4507899284362793,2.0430548191070557,0.5741519168262637,145.0,876.0
,,"(3, 3)",,,,,,145.0,
B,L,"[3, 2]",-2.0,0.0,1.0237360000610352,3.9185619354248047,0.5928227513064266,,877.0
B,L,"[3, 1]",1.0,1.0,0.28697896003723145,1.8736050128936768,0.5996913083135016,146.0,878.0
B,L,"[3, 0]",0.0,1.0,0.28882789611816406,1.9744198322296143,0.6738744761911075,146.0,879.0
Y,R,"[3, 1]",1.0,2.0,0.2870969772338867,1.8018479347229004,0.5094060091270975,146.0,880.0
R,U,"[2, 1]",1.0,3.0,0.31629204750061035,1.5902161598205566,0.26628847653371046,146.0,881.0
R,U,"[1, 1]",1.0,4.0,0.29117894172668457,1.97633695602417,0.6755574817359978,146.0,882.0
,,"(3, 3)",,,,,,146.0,
B,L,"[3, 2]",-2.0,0.0,1.0811328887939453,4.099898099899292,0.4259264139158397,,883.0
B,L,"[3, 1]",1.0,1.0,0.2977590560913086,1.9456541538238525,0.6545600402027072,147.0,884.0
Y,R,"[3, 2]",-1.0,0.0,0.31980299949645996,1.6434400081634521,0.3147656408703031,147.0,885.0
B,L,"[3, 1]",1.0,1.0,0.3719749450683594,1.8770368099212646,0.49160194746600644,147.0,886.0
Y,R,"[3, 2]",-1.0,0.0,0.4154319763183594,1.692962884902954,0.2682705421217465,147.0,887.0
R,U,"[2, 2]",1.0,1.0,0.45629405975341797,1.8475329875946045,0.3822696787096159,147.0,888.0
,,"(3, 3)",,,,,,147.0,
B,L,"[3, 2]",-1.0,-1.0,0.9812328815460205,3.7263541221618652,0.27544255368628834,,889.0
B,L,"[3, 1]",1.0,0.0,0.5618529319763184,1.8893170356750488,0.3145172399636839,148.0,890.0
B,L,"[3, 0]",0.0,0.0,0.7870869636535645,2.2879700660705566,0.4857136949739592,148.0,891.0
Y,R,"[3, 1]",1.0,1.0,0.2856760025024414,2.0172641277313232,0.7193124849929409,148.0,892.0
R,U,"[2, 1]",1.0,2.0,0.30103182792663574,1.9967780113220215,0.682773988900149,148.0,893.0
R,U,"[1, 1]",1.0,3.0,0.438107967376709,1.880444049835205,0.4304075464802272,148.0,894.0
,,"(3, 3)",,,,,,148.0,
B,L,"[3, 2]",-2.0,0.0,1.4795958995819092,4.859732151031494,0.5735305857440194,,895.0
B,L,"[3, 1]",1.0,1.0,0.29097914695739746,1.7571759223937988,0.46416784264683086,149.0,896.0
B,L,"[3, 0]",0.0,1.0,0.27024197578430176,1.5633947849273682,0.27795432575527995,149.0,897.0
Y,R,"[3, 1]",1.0,2.0,0.3165919780731201,1.9137380123138428,0.5914815282401598,149.0,898.0
R,U,"[2, 1]",1.0,3.0,0.406109094619751,1.6942219734191895,0.28618480963763415,149.0,899.0
R,U,"[1, 1]",1.0,4.0,0.34424614906311035,1.962348222732544,0.6148627169574954,149.0,900.0
,,"(3, 3)",,,,,,149.0,
B,L,"[3, 2]",-2.0,0.0,1.3238849639892578,4.258370876312256,0.7232297772406459,,901.0
B,L,"[3, 1]",1.0,1.0,0.2696399688720703,1.9094579219818115,0.6328227223519656,150.0,902.0
Y,R,"[3, 2]",-1.0,0.0,0.3319721221923828,1.7066330909729004,0.35664719028879877,150.0,903.0
B,L,"[3, 1]",1.0,1.0,0.3769378662109375,1.895240068435669,0.5184023954007784,150.0,904.0
Y,R,"[3, 2]",-1.0,0.0,0.641077995300293,2.081645965576172,0.43379085425402536,150.0,905.0
B,L,"[3, 1]",1.0,1.0,0.3917560577392578,2.0179238319396973,0.6180055769770401,150.0,906.0
,,"(3, 3)",,,,,,150.0,
B,L,"[3, 2]",-1.0,-1.0,0.6959099769592285,3.9352259635925293,0.7037466142489663,,907.0
B,L,"[3, 1]",1.0,0.0,0.7718980312347412,2.287580966949463,0.5082035509716064,151.0,908.0
B,L,"[3, 0]",0.0,0.0,0.9326379299163818,2.498627185821533,0.5736637804602887,151.0,909.0
Y,R,"[3, 1]",1.0,1.0,0.42567992210388184,2.1150660514831543,0.6887275496362943,151.0,910.0
R,U,"[2, 1]",1.0,2.0,0.7970571517944336,2.4212751388549805,0.6268313378727614,151.0,911.0
R,U,"[1, 1]",1.0,3.0,0.3805220127105713,1.6380829811096191,0.2654064621018526,151.0,912.0
,,"(3, 3)",,,,,,151.0,
B,L,"[3, 2]",-1.0,-1.0,0.5978109836578369,3.352466106414795,0.7174308081856968,,913.0
B,L,"[3, 1]",1.0,0.0,0.9206960201263428,2.5552780628204346,0.6229022297657308,152.0,914.0
B,L,"[3, 0]",0.0,0.0,0.4436979293823242,1.698523998260498,0.2552593755652578,152.0,915.0
R,U,"[2, 0]",0.0,0.0,0.39789700508117676,1.7657668590545654,0.3710716302115001,152.0,916.0
Y,R,"[2, 1]",1.0,1.0,0.5581510066986084,2.2731080055236816,0.7105878054711376,152.0,917.0
Y,R,"[2, 2]",1.0,2.0,0.7035529613494873,2.4424359798431396,0.7363536108981652,152.0,918.0
,,"(3, 3)",,,,,,152.0,
B,L,"[3, 2]",-2.0,0.0,2.1929540634155273,5.050640821456909,0.48769734689293437,,919.0
B,L,"[3, 1]",1.0,1.0,0.3087759017944336,1.5942201614379883,0.2821713297269395,153.0,920.0
B,L,"[3, 0]",0.0,1.0,0.6121218204498291,1.8960330486297607,0.2781606046955522,153.0,921.0
R,U,"[2, 0]",0.0,1.0,0.359666109085083,1.9238471984863281,0.5683479979962447,153.0,922.0
R,U,"[1, 0]",0.0,1.0,0.3034031391143799,1.6215028762817383,0.32384412261619294,153.0,923.0
Y,R,"[1, 1]",1.0,2.0,0.3119242191314697,1.6457431316375732,0.3362593737184307,153.0,924.0
,,"(3, 3)",,,,,,153.0,
B,L,"[3, 2]",-2.0,0.0,1.6757469177246094,4.199388027191162,0.4689161660801235,,925.0
B,L,"[3, 1]",1.0,1.0,0.2947840690612793,1.9677197933197021,0.6701149410643967,154.0,926.0
B,L,"[3, 0]",0.0,1.0,0.46719789505004883,2.001389980316162,0.5214689985732804,154.0,927.0
Y,R,"[3, 1]",1.0,2.0,0.355273962020874,2.057286024093628,0.6955581977413563,154.0,928.0
R,U,"[2, 1]",1.0,3.0,0.2837789058685303,1.9382500648498535,0.6504826576749096,154.0,929.0
R,U,"[1, 1]",1.0,4.0,0.2346498966217041,1.7857751846313477,0.5364994118760036,154.0,930.0
,,"(3, 3)",,,,,,154.0,
B,L,"[3, 2]",-1.0,-1.0,0.5480539798736572,2.877103090286255,0.3805708535559312,,931.0
B,L,"[3, 1]",-2.0,-1.0,1.68998384475708,3.129265069961548,0.3935002198333579,155.0,932.0
B,L,"[3, 0]",0.0,-1.0,0.3374619483947754,1.7827961444854736,0.442963890418457,155.0,933.0
Y,R,"[3, 1]",-2.0,-1.0,1.1902248859405518,2.7679049968719482,0.5441301241970692,155.0,934.0
Y,R,"[3, 2]",-1.0,-2.0,0.23962903022766113,1.7647111415863037,0.5256464345406764,155.0,935.0
R,U,"[2, 2]",1.0,-1.0,0.35598206520080566,1.9982781410217285,0.6404139520331555,155.0,936.0
,,"(3, 3)",,,,,,155.0,
B,L,"[3, 2]",-1.0,-1.0,0.49311113357543945,3.31125807762146,0.40222157164825195,,937.0
B,L,"[3, 1]",-2.0,-1.0,1.168520212173462,2.723299980163574,0.5255381640670573,156.0,938.0
B,L,"[3, 0]",0.0,-1.0,0.7909319400787354,2.2930150032043457,0.5020334242439611,156.0,939.0
Y,R,"[3, 1]",1.0,0.0,0.693026065826416,2.0684330463409424,0.37072678395279873,156.0,940.0
R,U,"[2, 1]",1.0,1.0,0.476423978805542,2.014353036880493,0.5347414155696208,156.0,941.0
R,U,"[1, 1]",1.0,2.0,0.3267669677734375,1.953542947769165,0.6216947453213061,156.0,942.0
,,"(3, 3)",,,,,,156.0,
B,L,"[3, 2]",-2.0,0.0,1.1530349254608154,4.297135829925537,0.5522803919222441,,943.0
B,L,"[3, 1]",1.0,1.0,0.3073601722717285,1.7422230243682861,0.42812540041512476,157.0,944.0
B,L,"[3, 0]",0.0,1.0,0.6347200870513916,1.9532251358032227,0.3148758545320383,157.0,945.0
Y,R,"[3, 1]",1.0,2.0,0.43805480003356934,1.9647839069366455,0.5128659120542592,157.0,946.0
R,U,"[2, 1]",1.0,3.0,0.392733097076416,1.7699909210205078,0.3665647188298168,157.0,947.0
R,U,"[1, 1]",1.0,4.0,0.33887314796447754,1.968623161315918,0.618354325114755,157.0,948.0
,,"(3, 3)",,,,,,157.0,
B,L,"[3, 2]",-2.0,0.0,1.458178997039795,3.6695590019226074,0.40485408064403894,,949.0
B,L,"[3, 1]",1.0,1.0,0.32280802726745605,1.8826570510864258,0.5542096923699815,158.0,950.0
B,L,"[3, 0]",0.0,1.0,0.4065210819244385,2.00508189201355,0.5926973228748429,158.0,951.0
Y,R,"[3, 1]",1.0,2.0,0.2896089553833008,1.7258150577545166,0.4352933899822583,158.0,952.0
R,U,"[2, 1]",1.0,3.0,0.3282439708709717,1.953617811203003,0.6221227549925099,158.0,953.0
R,U,"[1, 1]",1.0,4.0,0.22734880447387695,1.8376049995422363,0.6099426840553615,158.0,954.0
,,"(3, 3)",,,,,,158.0,
B,L,"[3, 2]",-1.0,-1.0,0.5487289428710938,3.5149059295654297,0.6252514012076094,,955.0
B,L,"[3, 1]",1.0,0.0,0.9656059741973877,2.4059739112854004,0.4311660663922748,159.0,956.0
B,L,"[3, 0]",0.0,0.0,0.5711081027984619,2.3284058570861816,0.7426267519388445,159.0,957.0
Y,R,"[3, 1]",1.0,1.0,0.24533700942993164,1.6603801250457764,0.42041593516475406,159.0,958.0
R,U,"[2, 1]",1.0,2.0,0.346757173538208,1.9946520328521729,0.6482718806208847,159.0,959.0
R,U,"[1, 1]",1.0,3.0,0.2968270778656006,1.915585994720459,0.613991659903341,159.0,960.0
,,"(3, 3)",,,,,,159.0,
B,L,"[3, 2]",-2.0,0.0,1.408233880996704,4.641711950302124,0.6390031987771561,,961.0
B,L,"[3, 1]",1.0,1.0,0.3068869113922119,1.8674931526184082,0.5567361778935273,160.0,962.0
B,L,"[3, 0]",0.0,1.0,0.27831196784973145,1.585982084274292,0.30952259152896994,160.0,963.0
Y,R,"[3, 1]",1.0,2.0,0.39125800132751465,1.668076992034912,0.2776605688487035,160.0,964.0
R,U,"[2, 1]",1.0,3.0,0.7726998329162598,2.4106061458587646,0.6380211686629281,160.0,965.0
R,U,"[1, 1]",1.0,4.0,0.30708980560302734,1.8020949363708496,0.4904184169603578,160.0,966.0
,,"(3, 3)",,,,,,160.0,
B,L,"[3, 2]",-2.0,0.0,1.1882710456848145,3.694082021713257,0.5347122212967942,,967.0
B,L,"[3, 1]",1.0,1.0,0.3794121742248535,1.9690780639648438,0.5871233976992154,161.0,968.0
Y,R,"[3, 2]",-2.0,1.0,1.0917119979858398,2.743138074874878,0.613682773918458,161.0,969.0
Y,R,"[3, 3]",-2.0,-1.0,0.3416471481323242,2.078193187713623,0.7252294593680524,161.0,970.0
R,U,"[2, 3]",1.0,0.0,0.2850031852722168,1.9328770637512207,0.6415708409507372,161.0,971.0
R,U,"[1, 3]",-1.0,-1.0,0.5187568664550781,2.0320749282836914,0.5072086047223475,161.0,972.0
,,"(3, 3)",,,,,,161.0,
B,L,"[3, 2]",-1.0,-1.0,0.6885631084442139,3.3156960010528564,0.5562729569477278,,973.0
B,L,"[3, 1]",1.0,0.0,0.7909200191497803,2.0882198810577393,0.2949243539931512,162.0,974.0
B,L,"[3, 0]",0.0,0.0,0.3376328945159912,1.9682018756866455,0.6294058492895173,162.0,975.0
Y,R,"[3, 1]",1.0,1.0,0.33862900733947754,1.88844895362854,0.5348631756670039,162.0,976.0
R,U,"[2, 1]",1.0,2.0,0.5233280658721924,2.0838239192962646,0.5519196494882977,162.0,977.0
R,U,"[1, 1]",1.0,3.0,0.8368558883666992,2.1620569229125977,0.3144289197332801,162.0,978.0
,,"(3, 3)",,,,,,162.0,
B,L,"[3, 2]",-2.0,0.0,1.5363919734954834,3.9729299545288086,0.4540044920662745,,979.0
B,L,"[3, 1]",1.0,1.0,0.28070998191833496,1.937180995941162,0.6575672837346334,163.0,980.0
B,L,"[3, 0]",0.0,1.0,0.3075990676879883,1.9973499774932861,0.6882744031396107,163.0,981.0
Y,R,"[3, 1]",1.0,2.0,0.3944718837738037,2.018543004989624,0.623645576760855,163.0,982.0
R,U,"[2, 1]",1.0,3.0,0.4119069576263428,1.9941627979278564,0.5846094525937282,163.0,983.0
R,U,"[1, 1]",1.0,4.0,0.34702610969543457,1.6322150230407715,0.26721250700069826,163.0,984.0
,,"(3, 3)",,,,,,163.0,
B,L,"[3, 2]",-2.0,0.0,1.5113990306854248,3.6912689208984375,0.658525586518736,,985.0
B,L,"[3, 1]",1.0,1.0,0.338360071182251,1.9525749683380127,0.6110936075050157,164.0,986.0
Y,R,"[3, 2]",-1.0,0.0,0.38053297996520996,1.910081148147583,0.5213076356662885,164.0,987.0
B,L,"[3, 1]",1.0,1.0,0.32700204849243164,1.9879579544067383,0.6590989235518974,164.0,988.0
Y,R,"[3, 2]",-2.0,1.0,1.5126841068267822,2.9170589447021484,0.3764678988397347,164.0,989.0
Y,R,"[3, 3]",-2.0,-1.0,0.28727293014526367,1.818099021911621,0.5277684875056321,164.0,990.0
,,"(3, 3)",,,,,,164.0,
B,L,"[3, 2]",-2.0,0.0,1.4118800163269043,4.305591821670532,0.5003032514273886,,991.0
B,L,"[3, 1]",1.0,1.0,0.3103489875793457,1.7711899280548096,0.43822172264717457,165.0,992.0
Y,R,"[3, 2]",-1.0,0.0,0.9705290794372559,2.2703890800476074,0.29210090966332924,165.0,993.0
R,U,"[2, 2]",1.0,1.0,0.7818961143493652,2.272515058517456,0.48121271160383816,165.0,994.0
R,U,"[1, 2]",1.0,2.0,0.5285730361938477,2.1105000972747803,0.5750590917355372,165.0,995.0
R,U,"[0, 2]",0.0,2.0,0.4726250171661377,1.730567216873169,0.2560203569285699,165.0,996.0
,,"(3, 3)",,,,,,165.0,
B,L,"[3, 2]",-1.0,-1.0,0.8348681926727295,3.4797208309173584,0.502165495578734,,997.0
B,L,"[3, 1]",-2.0,-1.0,1.2379939556121826,2.730527877807617,0.4495002395818633,166.0,998.0
B,L,"[3, 0]",0.0,-1.0,0.29876708984375,1.5986030101776123,0.2985829058740399,166.0,999.0
R,U,"[2, 0]",0.0,-1.0,0.5551731586456299,1.863253116607666,0.29501594622506716,166.0,1000.0
R,U,"[1, 0]",0.0,-1.0,0.2923438549041748,1.6950979232788086,0.4067789212734832,166.0,1001.0
R,U,"[0, 0]",0.0,-1.0,0.40557098388671875,1.722174882888794,0.3124868977419008,166.0,1002.0
,,"(3, 3)",,,,,,166.0,
B,L,"[3, 2]",-2.0,0.0,1.279296875,4.67692494392395,0.5723785452879351,,1003.0
B,L,"[3, 1]",1.0,1.0,0.338407039642334,1.9117920398712158,0.5678020328653383,167.0,1004.0
B,L,"[3, 0]",0.0,1.0,0.40761899948120117,1.930046796798706,0.514530594906328,167.0,1005.0
R,U,"[2, 0]",0.0,1.0,0.3656020164489746,1.9389870166778564,0.570159454395849,167.0,1006.0
R,U,"[1, 0]",0.0,1.0,0.3902931213378906,1.7464070320129395,0.35034563528169255,167.0,1007.0
R,U,"[0, 0]",0.0,1.0,0.5671601295471191,1.9891681671142578,0.4227998502865118,167.0,1008.0
,,"(3, 3)",,,,,,167.0,
B,L,"[3, 2]",-1.0,-1.0,0.7198660373687744,3.517064094543457,0.5731199852452469,,1009.0
G,D,"[4, 2]",-2.0,-1.0,2.4843759536743164,4.036432981491089,0.5264086266024743,168.0,1010.0
G,D,"[5, 2]",-1.0,-2.0,0.3091268539428711,1.835740089416504,0.5288412506624343,168.0,1011.0
B,L,"[5, 1]",-1.0,-3.0,0.4438469409942627,2.033048152923584,0.5951428804104062,168.0,1012.0
Y,R,"[5, 2]",-1.0,-4.0,0.6326930522918701,2.033622980117798,0.39568166081703754,168.0,1013.0
R,U,"[4, 2]",-1.0,-5.0,0.4643290042877197,1.9370951652526855,0.4828380295826105,168.0,1014.0
,,"(3, 3)",,,,,,168.0,
Y,R,"[3, 4]",-2.0,0.0,1.9249379634857178,5.0331549644470215,0.5661010391484459,,1015.0
Y,R,"[3, 5]",-1.0,-1.0,0.358212947845459,2.0211679935455322,0.653835415930564,169.0,1016.0
B,L,"[3, 4]",-1.0,-2.0,0.8736109733581543,2.3802061080932617,0.5010142965402706,169.0,1017.0
G,D,"[4, 4]",-1.0,-3.0,0.4133479595184326,2.0698909759521484,0.6540623042466016,169.0,1018.0
R,U,"[3, 4]",-1.0,-4.0,0.34775805473327637,1.9533162117004395,0.6074498497730755,169.0,1019.0
B,L,"[3, 3]",-2.0,-4.0,2.7630770206451416,4.540087938308716,0.7475888450480461,169.0,1020.0
,,"(3, 3)",,,,,,169.0,
B,L,"[3, 2]",-2.0,0.0,3.585620880126953,6.425891876220703,0.5406172713745264,,1021.0
B,L,"[3, 1]",1.0,1.0,0.455690860748291,1.8238608837127686,0.3646751000523512,170.0,1022.0
B,L,"[3, 0]",0.0,1.0,0.8522500991821289,2.1458630561828613,0.2772604603005157,170.0,1023.0
Y,R,"[3, 1]",1.0,2.0,0.7181191444396973,2.140503168106079,0.4176339391155254,170.0,1024.0
R,U,"[2, 1]",1.0,3.0,0.7872259616851807,2.129024028778076,0.33017861110614943,170.0,1025.0
R,U,"[1, 1]",1.0,4.0,0.4918339252471924,2.0009989738464355,0.4978332831735143,170.0,1026.0
,,"(3, 3)",,,,,,170.0,
B,L,"[3, 2]",-2.0,0.0,1.7182440757751465,4.2837748527526855,0.6316573712980603,,1027.0
B,L,"[3, 1]",1.0,1.0,0.2818410396575928,1.5626490116119385,0.277881375732726,171.0,1028.0
B,L,"[3, 0]",0.0,1.0,0.32572484016418457,1.9400169849395752,0.6176278387506453,171.0,1029.0
Y,R,"[3, 1]",1.0,2.0,0.2757880687713623,1.8768689632415771,0.5946134642017106,171.0,1030.0
R,U,"[2, 1]",1.0,3.0,0.28237009048461914,1.580693006515503,0.3089336942270116,171.0,1031.0
R,U,"[1, 1]",1.0,4.0,0.3331260681152344,1.876331090927124,0.5350856397790652,171.0,1032.0
,,"(3, 3)",,,,,,171.0,
B,L,"[3, 2]",-2.0,0.0,1.3844680786132812,3.534346103668213,0.5862450358192679,,1033.0
B,L,"[3, 1]",1.0,1.0,0.2246088981628418,1.9153680801391602,0.6847672767019435,172.0,1034.0
B,L,"[3, 0]",0.0,1.0,0.2108001708984375,1.7252130508422852,0.5102626922516308,172.0,1035.0
Y,R,"[3, 1]",1.0,2.0,0.2832770347595215,1.7736709117889404,0.4840135736891286,172.0,1036.0
R,U,"[2, 1]",1.0,3.0,0.37843918800354004,1.75850510597229,0.37594714982021077,172.0,1037.0
R,U,"[1, 1]",1.0,4.0,0.40101099014282227,1.6759369373321533,0.26880792959940614,172.0,1038.0
,,"(3, 3)",,,,,,172.0,
B,L,"[3, 2]",-1.0,-1.0,0.8666250705718994,3.0990259647369385,0.7177547490673195,,1039.0
B,L,"[3, 1]",1.0,0.0,0.8838708400726318,2.4582011699676514,0.5593714116177728,173.0,1040.0
B,L,"[3, 0]",0.0,0.0,0.4939448833465576,2.0202338695526123,0.529633588092822,173.0,1041.0
R,U,"[2, 0]",0.0,0.0,0.3838229179382324,2.020190954208374,0.6332157219498938,173.0,1042.0
R,U,"[1, 0]",0.0,0.0,0.292255163192749,1.9711191654205322,0.6706851138435861,173.0,1043.0
R,U,"[0, 0]",0.0,0.0,0.5023219585418701,2.187535047531128,0.6916529550428997,173.0,1044.0
,,"(3, 3)",,,,,,173.0,
B,L,"[3, 2]",-2.0,0.0,1.5770928859710693,4.0416810512542725,0.5504025347567694,,1045.0
B,L,"[3, 1]",1.0,1.0,0.4015359878540039,1.9452369213104248,0.5291516747044069,174.0,1046.0
B,L,"[3, 0]",0.0,1.0,0.3071408271789551,1.6499860286712646,0.3457940797986918,174.0,1047.0
Y,R,"[3, 1]",1.0,2.0,0.3301560878753662,1.6751148700714111,0.33772129875038276,174.0,1048.0
R,U,"[2, 1]",1.0,3.0,0.7528040409088135,2.4446420669555664,0.6822387161388197,174.0,1049.0
R,U,"[1, 1]",1.0,4.0,0.4639451503753662,1.8966410160064697,0.4291433963185927,174.0,1050.0
,,"(3, 3)",,,,,,174.0,
B,L,"[3, 2]",-1.0,-1.0,0.7832989692687988,2.9994828701019287,0.7453213614039489,,1051.0
B,L,"[3, 1]",1.0,0.0,0.5547370910644531,1.9597840309143066,0.40494021123584334,175.0,1052.0
B,L,"[3, 0]",0.0,0.0,0.57511305809021,2.1747279167175293,0.5962716658768445,175.0,1053.0
Y,R,"[3, 1]",1.0,1.0,0.3248600959777832,2.0822129249572754,0.7449532940004157,175.0,1054.0
R,U,"[2, 1]",1.0,2.0,0.35834598541259766,1.740170955657959,0.38558180991732494,175.0,1055.0
R,U,"[1, 1]",1.0,3.0,0.40930819511413574,2.0304880142211914,0.6158075815812079,175.0,1056.0
,,"(3, 3)",,,,,,175.0,
B,L,"[3, 2]",-2.0,0.0,1.4972059726715088,4.472246885299683,0.32216525019674375,,1057.0
B,L,"[3, 1]",1.0,1.0,0.32472896575927734,1.8768529891967773,0.5485316562730351,176.0,1058.0
B,L,"[3, 0]",0.0,1.0,0.9512729644775391,2.5497069358825684,0.5818320164954092,176.0,1059.0
Y,R,"[3, 1]",1.0,2.0,0.3174259662628174,1.7035839557647705,0.36891729261849254,176.0,1060.0
R,U,"[2, 1]",1.0,3.0,0.4803898334503174,1.7597661018371582,0.2788215740701801,176.0,1061.0
R,U,"[1, 1]",1.0,4.0,0.3205089569091797,1.8695340156555176,0.5480236725342058,176.0,1062.0
,,"(3, 3)",,,,,,176.0,
B,L,"[3, 2]",-2.0,0.0,1.4233548641204834,3.3474349975585938,0.3788557536964272,,1063.0
B,L,"[3, 1]",1.0,1.0,0.28632402420043945,1.716521978378296,0.42878891359278093,177.0,1064.0
B,L,"[3, 0]",0.0,1.0,0.2675778865814209,1.634835958480835,0.36371437983620136,177.0,1065.0
Y,R,"[3, 1]",1.0,2.0,0.26858997344970703,1.638767957687378,0.35259969387411466,177.0,1066.0
R,U,"[2, 1]",1.0,3.0,0.39230918884277344,1.7353501319885254,0.3379524645347568,177.0,1067.0
R,U,"[1, 1]",1.0,4.0,0.27289891242980957,1.9928309917449951,0.7139482498374772,177.0,1068.0
,,"(3, 3)",,,,,,177.0,
B,L,"[3, 2]",-2.0,0.0,1.4723811149597168,3.281764030456543,0.26278767456014446,,1069.0
B,L,"[3, 1]",1.0,1.0,0.3913400173187256,1.7354328632354736,0.34809752312737496,178.0,1070.0
B,L,"[3, 0]",0.0,1.0,0.38845300674438477,2.075322151184082,0.6732169680308788,178.0,1071.0
Y,R,"[3, 1]",1.0,2.0,0.23981499671936035,1.9428300857543945,0.6993782326286568,178.0,1072.0
R,U,"[2, 1]",1.0,3.0,0.3598639965057373,1.6777470111846924,0.31096686617497926,178.0,1073.0
R,U,"[1, 1]",1.0,4.0,0.29846715927124023,1.920884132385254,0.6315275658933839,178.0,1074.0
,,"(3, 3)",,,,,,178.0,
B,L,"[3, 2]",-1.0,-1.0,0.4632251262664795,2.5655930042266846,0.48065833517183226,,1075.0
B,L,"[3, 1]",1.0,0.0,0.5835378170013428,2.115807056427002,0.5130565159724236,179.0,1076.0
B,L,"[3, 0]",0.0,0.0,0.46700310707092285,1.9154198169708252,0.4285906900958883,179.0,1077.0
Y,R,"[3, 1]",1.0,1.0,0.3172159194946289,1.6302599906921387,0.30903963472931595,179.0,1078.0
