button_choice,action_choice,coordinate_choice,reward,cumulative_reward,rt,total_trial_time,iti,block_n,trial_n
R,U,"[2, 3]",-2.0,0.0,2.410814046859741,3.825451135635376,0.3764222965487467,0.0,1.0
G,D,"[3, 3]",-2.0,0.0,1.27555513381958,2.852942943572998,0.5458868896573135,0.0,2.0
B,L,"[3, 2]",1.0,1.0,0.33171510696411133,1.8992538452148438,0.5784763368087888,0.0,3.0
Y,R,"[3, 3]",0.0,1.0,0.5346469879150391,1.79606294631958,0.2581279544363774,0.0,4.0
G,D,"[4, 3]",-1.0,0.0,0.25996994972229004,2.0181238651275635,0.7423085806603811,0.0,5.0
G,D,"[5, 3]",-1.0,-1.0,0.3381929397583008,1.714540958404541,0.37409363533259843,0.0,6.0
,,"(3, 3)",,,,,,0.0,
R,U,"[2, 3]",-1.0,-1.0,0.5092451572418213,8.480602025985718,0.6210734355371651,,7.0
G,D,"[3, 3]",0.0,-1.0,0.2454390525817871,1.854680061340332,0.609184941257435,1.0,8.0
G,D,"[4, 3]",-1.0,-2.0,0.1014559268951416,1.6421279907226562,0.5348004257534502,1.0,9.0
Y,R,"[4, 4]",-1.0,-3.0,0.2516648769378662,1.874372959136963,0.6091423121594458,1.0,10.0
B,L,"[4, 3]",0.0,-3.0,0.25000786781311035,1.8426358699798584,0.5852120400806438,1.0,11.0
B,L,"[4, 2]",-1.0,-4.0,0.4801969528198242,2.0124521255493164,0.5143755937870237,1.0,12.0
,,"(3, 3)",,,,,,1.0,
R,U,"[2, 3]",-1.0,-1.0,0.3516561985015869,6.005273103713989,0.6029699365503425,,13.0
Y,R,"[2, 4]",-1.0,-2.0,0.16069889068603516,1.650202989578247,0.48666908482929033,2.0,14.0
G,D,"[3, 4]",-1.0,-3.0,0.26859498023986816,1.9272549152374268,0.6472141515689634,2.0,15.0
G,D,"[4, 4]",-1.0,-4.0,0.6072530746459961,1.907196044921875,0.2880450956531983,2.0,16.0
R,U,"[3, 4]",0.0,-4.0,0.29445314407348633,1.7427170276641846,0.4473003861209252,2.0,17.0
Y,R,"[3, 5]",-1.0,-5.0,0.388369083404541,1.755204200744629,0.3526902187654966,2.0,18.0
,,"(3, 3)",,,,,,2.0,
Y,R,"[3, 4]",-1.0,-1.0,0.4142780303955078,6.604650974273682,0.47413710990634755,,19.0
Y,R,"[3, 5]",-1.0,-2.0,0.3777298927307129,1.859753131866455,0.4838322941363106,3.0,20.0
Y,R,"[3, 6]",0.0,-2.0,0.18254899978637695,1.5401170253753662,0.35730118927654675,3.0,21.0
Y,R,"[3, 6]",0.0,-2.0,0.43392109870910645,1.7910170555114746,0.3649493506409991,3.0,22.0
Y,R,"[3, 6]",0.0,-2.0,0.3148961067199707,2.0011069774627686,0.6823523256977087,3.0,23.0
B,L,"[3, 5]",0.0,-2.0,0.2690620422363281,1.5863878726959229,0.3193683272372216,3.0,24.0
,,"(3, 3)",,,,,,3.0,
B,L,"[3, 2]",1.0,1.0,0.7491359710693359,5.198083877563477,0.6506672095075385,,25.0
R,U,"[2, 2]",1.0,2.0,0.5830860137939453,1.8949329853057861,0.29572093194345783,4.0,26.0
G,D,"[3, 2]",0.0,2.0,0.6296489238739014,2.3578920364379883,0.7365465523317822,4.0,27.0
Y,R,"[3, 3]",0.0,2.0,0.301041841506958,1.7850279808044434,0.48838552919563566,4.0,28.0
R,U,"[2, 3]",-1.0,1.0,0.7137608528137207,2.0765328407287598,0.3486172177655176,4.0,29.0
B,L,"[2, 2]",0.0,1.0,0.4434621334075928,2.1956708431243896,0.7437483960632186,4.0,30.0
,,"(3, 3)",,,,,,4.0,
G,D,"[4, 3]",-1.0,-1.0,0.4556729793548584,4.4485859870910645,0.5926288021678503,,31.0
Y,R,"[4, 4]",-1.0,-2.0,0.13852596282958984,1.8749809265136719,0.7340904441716986,5.0,32.0
B,L,"[4, 3]",0.0,-2.0,0.27216005325317383,1.7702138423919678,0.48802856724812893,5.0,33.0
R,U,"[3, 3]",0.0,-2.0,0.26846909523010254,1.8786568641662598,0.616572663413843,5.0,34.0
R,U,"[2, 3]",-1.0,-3.0,0.256195068359375,1.7591688632965088,0.4926415733753882,5.0,35.0
G,D,"[3, 3]",0.0,-3.0,0.16225600242614746,1.9076368808746338,0.7499892207823442,5.0,36.0
,,"(3, 3)",,,,,,5.0,
Y,R,"[3, 4]",-1.0,-1.0,0.2419278621673584,2.9744110107421875,0.6411207535877962,,37.0
B,L,"[3, 3]",-1.0,-1.0,0.017445802688598633,5.439518928527832,0.29787320768177195,6.0,38.0
B,L,"[3, 2]",1.0,0.0,0.3745391368865967,2.053138017654419,0.6671785813643005,6.0,39.0
R,U,"[2, 2]",1.0,1.0,0.13248300552368164,1.7918519973754883,0.6424872025573495,6.0,40.0
G,D,"[3, 2]",0.0,1.0,0.6831710338592529,2.3687689304351807,0.6945436475828874,6.0,41.0
R,U,"[2, 2]",0.0,1.0,0.3143610954284668,1.9467041492462158,0.6412902914695857,6.0,42.0
,,"(3, 3)",,,,,,6.0,
Y,R,"[3, 4]",-1.0,-1.0,0.710637092590332,3.8579649925231934,0.6662723405902014,,43.0
B,L,"[3, 3]",0.0,-1.0,0.35599184036254883,1.8064088821411133,0.43935695614274095,7.0,44.0
R,U,"[2, 3]",-1.0,-2.0,0.31043219566345215,1.9233479499816895,0.6125583535839965,7.0,45.0
G,D,"[3, 3]",0.0,-2.0,0.4264638423919678,1.8159780502319336,0.39544276884605595,7.0,46.0
R,U,"[2, 3]",0.0,-2.0,0.7160449028015137,2.401339054107666,0.6965893031083483,7.0,47.0
Y,R,"[2, 4]",-1.0,-3.0,0.26315784454345703,1.6451051235198975,0.3586748262254992,7.0,48.0
,,"(3, 3)",,,,,,7.0,
B,L,"[3, 2]",1.0,1.0,0.3665189743041992,3.2462689876556396,0.42171018756332573,,49.0
Y,R,"[3, 3]",0.0,1.0,0.16326904296875,1.4811618328094482,0.3195228624940079,8.0,50.0
G,D,"[4, 3]",-1.0,0.0,0.7547509670257568,2.2161309719085693,0.4521370956089909,8.0,51.0
Y,R,"[4, 4]",-1.0,0.0,0.08624792098999023,5.837623119354248,0.6230034882168383,8.0,52.0
Y,R,"[4, 5]",-1.0,-1.0,0.6750469207763672,2.1845040321350098,0.5077512105346373,8.0,53.0
R,U,"[3, 5]",-1.0,-2.0,0.43493103981018066,2.154137134552002,0.7118467924780232,8.0,54.0
,,"(3, 3)",,,,,,8.0,
B,L,"[3, 2]",1.0,1.0,0.3664219379425049,4.8987181186676025,0.4942189170722369,,55.0
R,U,"[2, 2]",1.0,2.0,0.745276927947998,2.335909128189087,0.5965154490403526,9.0,56.0
G,D,"[3, 2]",-2.0,2.0,1.0026540756225586,2.4195258617401123,0.38314789389032805,9.0,57.0
G,D,"[4, 2]",-1.0,1.0,0.5555369853973389,2.0470190048217773,0.47998858840316166,9.0,58.0
Y,R,"[4, 3]",-1.0,0.0,0.25260400772094727,1.9428038597106934,0.6726446843050973,9.0,59.0
R,U,"[3, 3]",0.0,0.0,0.25945091247558594,1.6728579998016357,0.4124827095852443,9.0,60.0
,,"(3, 3)",,,,,,9.0,
B,L,"[3, 2]",1.0,1.0,0.4316089153289795,3.459105968475342,0.6879094046948331,,61.0
B,L,"[3, 1]",1.0,2.0,0.2471599578857422,1.7495908737182617,0.5043852133774518,10.0,62.0
R,U,"[2, 1]",1.0,3.0,0.2062530517578125,1.4622371196746826,0.2501770092099389,10.0,63.0
Y,R,"[2, 2]",1.0,4.0,0.3108079433441162,1.5749101638793945,0.25853846775782513,10.0,64.0
G,D,"[3, 2]",0.0,4.0,0.3989830017089844,1.9710519313812256,0.5626284829455721,10.0,65.0
Y,R,"[3, 3]",0.0,4.0,0.8087148666381836,2.200428009033203,0.38006483305062827,10.0,66.0
,,"(3, 3)",,,,,,10.0,
R,U,"[2, 3]",-1.0,-1.0,0.5921428203582764,3.328735828399658,0.39198621955809065,,67.0
G,D,"[3, 3]",0.0,-1.0,0.1601400375366211,1.6690289974212646,0.5109762926218552,11.0,68.0
Y,R,"[3, 4]",-1.0,-2.0,0.45359301567077637,1.957751989364624,0.5021104239103406,11.0,69.0
B,L,"[3, 3]",0.0,-2.0,0.250974178314209,1.9063379764556885,0.6417639521084867,11.0,70.0
R,U,"[2, 3]",0.0,-2.0,0.24617505073547363,1.6738438606262207,0.4324811825541279,11.0,71.0
R,U,"[1, 3]",-2.0,-2.0,1.0839908123016357,2.7210068702697754,0.6035079529681242,11.0,72.0
,,"(3, 3)",,,,,,11.0,
R,U,"[2, 3]",-1.0,-1.0,0.28793883323669434,3.1310551166534424,0.5847842862338681,,73.0
B,L,"[2, 2]",1.0,0.0,0.17385196685791016,1.5024280548095703,0.32056843972638727,12.0,74.0
G,D,"[3, 2]",1.0,1.0,0.2070620059967041,1.5968008041381836,0.38388607947688513,12.0,75.0
Y,R,"[3, 3]",0.0,1.0,0.2493431568145752,1.7982847690582275,0.5321170483789402,12.0,76.0
Y,R,"[3, 4]",-1.0,0.0,0.294158935546875,1.662031888961792,0.36100919794328035,12.0,77.0
Y,R,"[3, 5]",-1.0,-1.0,0.1413869857788086,1.4961650371551514,0.3570791196184325,12.0,78.0
,,"(3, 3)",,,,,,12.0,
R,U,"[2, 3]",-1.0,-1.0,0.432905912399292,3.0168368816375732,0.5904025208110495,,79.0
G,D,"[3, 3]",0.0,-1.0,0.1577000617980957,1.680513858795166,0.521122215423536,13.0,80.0
B,L,"[3, 2]",1.0,0.0,0.18729686737060547,1.5194199085235596,0.32409881231723253,13.0,81.0
G,D,"[4, 2]",-1.0,-1.0,0.17786884307861328,1.5355310440063477,0.3595437183070973,13.0,82.0
R,U,"[3, 2]",0.0,-1.0,0.19335699081420898,1.513720989227295,0.32336288158611176,13.0,83.0
Y,R,"[3, 3]",0.0,-1.0,0.13173890113830566,1.7138760089874268,0.5869013059808812,13.0,84.0
,,"(3, 3)",,,,,,13.0,
B,L,"[3, 2]",1.0,1.0,0.3546109199523926,3.346034049987793,0.5664955120586179,,85.0
R,U,"[2, 2]",1.0,2.0,0.22043895721435547,1.8286960124969482,0.6118266227325969,14.0,86.0
G,D,"[3, 2]",0.0,2.0,0.835813045501709,2.409447193145752,0.5712717553161828,14.0,87.0
Y,R,"[3, 3]",0.0,2.0,0.1433250904083252,1.6849730014801025,0.5396333920617655,14.0,88.0
Y,R,"[3, 4]",-1.0,1.0,0.2219221591949463,1.7358651161193848,0.5089432458815858,14.0,89.0
B,L,"[3, 3]",0.0,1.0,0.15772509574890137,1.5229411125183105,0.365348860076249,14.0,90.0
,,"(3, 3)",,,,,,14.0,
R,U,"[2, 3]",-1.0,-1.0,0.4860110282897949,2.8133668899536133,0.37885479172125486,,91.0
G,D,"[3, 3]",0.0,-1.0,0.26962804794311523,1.613210916519165,0.34211993260673895,15.0,92.0
B,L,"[3, 2]",1.0,0.0,0.4159090518951416,2.0334420204162598,0.6085841349424281,15.0,93.0
G,D,"[4, 2]",-1.0,-1.0,0.4015779495239258,2.086756944656372,0.6785947200546047,15.0,94.0
Y,R,"[4, 3]",-1.0,-2.0,0.17433500289916992,1.8542561531066895,0.6829886219269836,15.0,95.0
R,U,"[3, 3]",0.0,-2.0,0.500878095626831,1.998426914215088,0.48161681657068345,15.0,96.0
,,"(3, 3)",,,,,,15.0,
R,U,"[2, 3]",-1.0,-1.0,0.8346941471099854,3.4141860008239746,0.5625406301291539,,97.0
Y,R,"[2, 4]",-1.0,-2.0,0.14205098152160645,1.5923168659210205,0.4548339611070559,16.0,98.0
G,D,"[3, 4]",-1.0,-3.0,0.32793092727661133,1.7990000247955322,0.4704714978402403,16.0,99.0
B,L,"[3, 3]",0.0,-3.0,0.15907716751098633,1.9045159816741943,0.7415222304322199,16.0,100.0
R,U,"[2, 3]",0.0,-3.0,0.20925307273864746,1.7153010368347168,0.5069977471126463,16.0,101.0
G,D,"[3, 3]",0.0,-3.0,0.5174620151519775,2.1158409118652344,0.606047295268582,16.0,102.0
,,"(3, 3)",,,,,,16.0,
Y,R,"[3, 4]",-1.0,-1.0,0.3447709083557129,2.7903079986572266,0.4300778790243453,,103.0
G,D,"[4, 4]",-1.0,-2.0,0.13383698463439941,1.4557299613952637,0.30257676300427006,17.0,104.0
B,L,"[4, 3]",-1.0,-3.0,0.2811250686645508,2.0000219345092773,0.7188793111437884,17.0,105.0
R,U,"[3, 3]",0.0,-3.0,0.48306703567504883,1.9005939960479736,0.41970479921072673,17.0,106.0
G,D,"[4, 3]",0.0,-3.0,0.4051179885864258,1.9423651695251465,0.5288116439075425,17.0,107.0
G,D,"[5, 3]",-1.0,-4.0,0.35181498527526855,2.0137948989868164,0.6591093910402257,17.0,108.0
,,"(3, 3)",,,,,,17.0,
G,D,"[4, 3]",-1.0,-1.0,0.6638989448547363,4.2841339111328125,0.6932312334075212,,109.0
R,U,"[3, 3]",0.0,-1.0,0.21709489822387695,1.8872239589691162,0.6639013395478507,18.0,110.0
Y,R,"[3, 4]",-1.0,-2.0,0.45001697540283203,2.032804012298584,0.5800369134722494,18.0,111.0
B,L,"[3, 3]",0.0,-2.0,0.2679591178894043,1.5468389987945557,0.2607185905192321,18.0,112.0
R,U,"[2, 3]",-1.0,-3.0,0.41162586212158203,2.0776689052581787,0.6548459311757876,18.0,113.0
G,D,"[3, 3]",0.0,-3.0,0.22518682479858398,1.9605648517608643,0.7318750815264419,18.0,114.0
,,"(3, 3)",,,,,,18.0,
B,L,"[3, 2]",1.0,1.0,0.32559990882873535,3.477353811264038,0.7257851192600691,,115.0
G,D,"[4, 2]",-1.0,0.0,0.2551398277282715,1.9132838249206543,0.6558714490660693,19.0,116.0
R,U,"[3, 2]",0.0,0.0,0.20155096054077148,1.7733080387115479,0.5626686770431081,19.0,117.0
Y,R,"[3, 3]",0.0,0.0,0.38257288932800293,1.6483430862426758,0.2612317937558646,19.0,118.0
B,L,"[3, 2]",0.0,0.0,0.9309709072113037,2.6689910888671875,0.7464474344299095,19.0,119.0
R,U,"[2, 2]",1.0,1.0,0.4157590866088867,2.087027072906494,0.6501594172138391,19.0,120.0
,,"(3, 3)",,,,,,19.0,
G,D,"[4, 3]",-1.0,-1.0,0.9757521152496338,3.8349239826202393,0.36903146344120497,,121.0
Y,R,"[4, 4]",-1.0,-2.0,0.2245500087738037,1.8896088600158691,0.6584006950584095,20.0,122.0
B,L,"[4, 3]",0.0,-2.0,0.15732407569885254,1.9006381034851074,0.7422817451298775,20.0,123.0
R,U,"[3, 3]",0.0,-2.0,0.21714496612548828,1.7461450099945068,0.5385238595057832,20.0,124.0
R,U,"[2, 3]",-1.0,-3.0,0.3781101703643799,2.001762866973877,0.6070640026368354,20.0,125.0
G,D,"[3, 3]",0.0,-3.0,0.3202178478240967,2.024890899658203,0.698595338037657,20.0,126.0
,,"(3, 3)",,,,,,20.0,
B,L,"[3, 2]",1.0,1.0,0.38264894485473633,3.073988914489746,0.6393073098404471,,127.0
G,D,"[4, 2]",-1.0,0.0,0.1628410816192627,1.6534721851348877,0.4761947044928804,21.0,128.0
Y,R,"[4, 3]",-1.0,-1.0,0.2663729190826416,2.002901077270508,0.7290186638743463,21.0,129.0
Y,R,"[4, 4]",-1.0,-2.0,0.13039588928222656,1.4250400066375732,0.3043517015510414,21.0,130.0
Y,R,"[4, 5]",-1.0,-3.0,0.20317816734313965,1.8006207942962646,0.5881631626903827,21.0,131.0
Y,R,"[4, 6]",0.0,-3.0,0.28723907470703125,1.6701679229736328,0.37509833899084627,21.0,132.0
,,"(3, 3)",,,,,,21.0,
R,U,"[2, 3]",-1.0,-1.0,0.5976419448852539,3.5396602153778076,0.6312617279476997,,133.0
G,D,"[3, 3]",0.0,-1.0,0.1208949089050293,1.7798690795898438,0.6442753672630979,22.0,134.0
Y,R,"[3, 4]",-1.0,-2.0,0.2650749683380127,1.9931259155273438,0.720920553625783,22.0,135.0
B,L,"[3, 3]",0.0,-2.0,0.1872861385345459,1.6263411045074463,0.43097094486437254,22.0,136.0
R,U,"[2, 3]",0.0,-2.0,0.29279088973999023,1.8529951572418213,0.5503617953119486,22.0,137.0
Y,R,"[2, 4]",-1.0,-3.0,0.20410490036010742,1.547339916229248,0.34828499131575025,22.0,138.0
,,"(3, 3)",,,,,,22.0,
G,D,"[4, 3]",-1.0,-1.0,0.747344970703125,2.555095911026001,0.4361899208776154,,139.0
B,L,"[4, 2]",-1.0,-2.0,0.14557194709777832,1.6958930492401123,0.5489615939678212,23.0,140.0
R,U,"[3, 2]",1.0,-1.0,0.2023000717163086,1.564136028289795,0.3466791696645062,23.0,141.0
Y,R,"[3, 3]",0.0,-1.0,0.3618640899658203,1.7138619422912598,0.34390861045620313,23.0,142.0
G,D,"[4, 3]",0.0,-1.0,0.44670796394348145,1.7232728004455566,0.28396088929527036,23.0,143.0
B,L,"[4, 2]",0.0,-1.0,0.4433321952819824,1.8303680419921875,0.38077273950953117,23.0,144.0
,,"(3, 3)",,,,,,23.0,
R,U,"[2, 3]",-1.0,-1.0,0.47098422050476074,2.6783061027526855,0.3758731610269824,,145.0
B,L,"[2, 2]",1.0,0.0,0.22358202934265137,1.6763920783996582,0.45218605245659926,24.0,146.0
G,D,"[3, 2]",1.0,1.0,0.1750779151916504,1.534548044204712,0.3535146646040093,24.0,147.0
R,U,"[2, 2]",0.0,1.0,0.46080899238586426,1.8522961139678955,0.38920279264155594,24.0,148.0
Y,R,"[2, 3]",0.0,1.0,0.2600979804992676,1.7596478462219238,0.4987210117030952,24.0,149.0
B,L,"[2, 2]",0.0,1.0,0.23345088958740234,1.9344279766082764,0.6996105639436478,24.0,150.0
,,"(3, 3)",,,,,,24.0,
G,D,"[4, 3]",-1.0,-1.0,0.5243289470672607,3.9891340732574463,0.5390511366008846,,151.0
Y,R,"[4, 4]",-1.0,-1.0,0.02513408660888672,5.632352113723755,0.4548404591560892,25.0,152.0
Y,R,"[4, 5]",-1.0,-2.0,0.5397579669952393,2.2036070823669434,0.6581598263156829,25.0,153.0
B,L,"[4, 4]",0.0,-2.0,0.46688199043273926,1.8109960556030273,0.3362614098397042,25.0,154.0
R,U,"[3, 4]",-1.0,-3.0,0.5362288951873779,2.1154820919036865,0.5682657429196694,25.0,155.0
G,D,"[4, 4]",0.0,-3.0,0.6197829246520996,2.0779101848602295,0.44627861633291027,25.0,156.0
,,"(3, 3)",,,,,,25.0,
B,L,"[3, 2]",-2.0,0.0,1.4662559032440186,5.130548000335693,0.6766084183752478,,157.0
B,L,"[3, 1]",1.0,1.0,0.13620495796203613,1.454571008682251,0.31496748800368735,26.0,158.0
R,U,"[2, 1]",1.0,2.0,0.815194845199585,2.198089838027954,0.37961914301263455,26.0,159.0
Y,R,"[2, 2]",1.0,3.0,0.4662630558013916,2.0553739070892334,0.5683602355588262,26.0,160.0
R,U,"[1, 2]",1.0,4.0,0.41534900665283203,1.9207720756530762,0.4889887604146563,26.0,161.0
G,D,"[2, 2]",0.0,4.0,0.2779231071472168,1.6830101013183594,0.4054968079518418,26.0,162.0
,,"(3, 3)",,,,,,26.0,
G,D,"[4, 3]",-1.0,-1.0,0.6957569122314453,3.608445167541504,0.3142526738621914,,163.0
R,U,"[3, 3]",0.0,-1.0,0.2560460567474365,1.9547250270843506,0.6851528459233229,27.0,164.0
B,L,"[3, 2]",1.0,0.0,0.1703169345855713,1.6356589794158936,0.45451387739335103,27.0,165.0
G,D,"[4, 2]",-1.0,-1.0,0.1537330150604248,1.4318859577178955,0.2700131684214332,27.0,166.0
Y,R,"[4, 3]",0.0,-1.0,0.24242901802062988,1.9378139972686768,0.6905170366051214,27.0,167.0
Y,R,"[4, 4]",-1.0,-2.0,0.3864281177520752,2.0785958766937256,0.6859509566255629,27.0,168.0
,,"(3, 3)",,,,,,27.0,
R,U,"[2, 3]",-1.0,-1.0,0.46944212913513184,2.6108968257904053,0.2806915255005273,,169.0
B,L,"[2, 2]",1.0,0.0,0.30843114852905273,1.7504079341888428,0.43068605971265084,28.0,170.0
Y,R,"[2, 3]",0.0,0.0,0.42353391647338867,1.7119860649108887,0.276487712116062,28.0,171.0
R,U,"[1, 3]",1.0,1.0,0.260483980178833,1.6540591716766357,0.3970024980290711,28.0,172.0
G,D,"[2, 3]",0.0,1.0,0.20282816886901855,1.9064688682556152,0.6396265880079263,28.0,173.0
Y,R,"[2, 4]",-1.0,0.0,0.3018829822540283,1.9588680267333984,0.6454595248669766,28.0,174.0
,,"(3, 3)",,,,,,28.0,
B,L,"[3, 2]",1.0,1.0,0.45467495918273926,2.4293041229248047,0.6749196253760379,,175.0
Y,R,"[3, 3]",0.0,1.0,0.15098094940185547,1.4084739685058594,0.25041378002305376,29.0,176.0
B,L,"[3, 2]",0.0,1.0,0.5491800308227539,2.2868998050689697,0.7368741228285248,29.0,177.0
R,U,"[2, 2]",1.0,2.0,0.2369089126586914,1.8685839176177979,0.6223140948571682,29.0,178.0
G,D,"[3, 2]",0.0,2.0,0.19637298583984375,1.921943187713623,0.7275498541689629,29.0,179.0
Y,R,"[3, 3]",0.0,2.0,0.18976998329162598,1.6713230609893799,0.48237620312683716,29.0,180.0
,,"(3, 3)",,,,,,29.0,
B,L,"[3, 2]",1.0,1.0,0.34348607063293457,2.8351869583129883,0.33452767286753826,,181.0
R,U,"[2, 2]",1.0,2.0,0.18001508712768555,1.7351508140563965,0.5526983673127048,30.0,182.0
G,D,"[3, 2]",0.0,2.0,0.22605109214782715,1.9613540172576904,0.7306848734326877,30.0,183.0
G,D,"[4, 2]",-1.0,1.0,0.30527496337890625,2.058190107345581,0.7388655023915782,30.0,184.0
Y,R,"[4, 3]",-1.0,0.0,0.28529882431030273,1.6680889129638672,0.37393109602643126,30.0,185.0
B,L,"[4, 2]",0.0,0.0,0.23760485649108887,1.756227970123291,0.5134718354382687,30.0,186.0
,,"(3, 3)",,,,,,30.0,
B,L,"[3, 2]",1.0,1.0,0.32377099990844727,2.610668182373047,0.45751082118689895,,187.0
Y,R,"[3, 3]",0.0,1.0,0.14009404182434082,1.8477530479431152,0.7049518467045652,31.0,188.0
R,U,"[2, 3]",-1.0,0.0,0.16531896591186523,1.8887569904327393,0.710445177359168,31.0,189.0
G,D,"[3, 3]",0.0,0.0,0.17603588104248047,1.6964659690856934,0.5238387943668014,31.0,190.0
B,L,"[3, 2]",0.0,0.0,0.3071730136871338,2.0382139682769775,0.72845121981437,31.0,191.0
Y,R,"[3, 3]",0.0,0.0,0.33023500442504883,1.7739479541778564,0.4528771709132912,31.0,192.0
,,"(3, 3)",,,,,,31.0,
R,U,"[2, 3]",-1.0,-1.0,0.4079248905181885,3.1199800968170166,0.6059724853316386,,193.0
B,L,"[2, 2]",-1.0,-1.0,0.03685808181762695,5.512264966964722,0.3518942147462762,32.0,194.0
B,L,"[2, 1]",1.0,0.0,0.47845888137817383,1.855475902557373,0.35743160287304654,32.0,195.0
G,D,"[3, 1]",1.0,1.0,0.806610107421875,2.1369831562042236,0.3277846298032607,32.0,196.0
Y,R,"[3, 2]",1.0,2.0,0.6301298141479492,2.155221939086914,0.5329015217665015,32.0,197.0
R,U,"[2, 2]",0.0,2.0,0.7475850582122803,2.096200942993164,0.3460353031221846,32.0,198.0
,,"(3, 3)",,,,,,32.0,
G,D,"[4, 3]",-2.0,0.0,1.0676679611206055,4.281123161315918,0.6600446313729961,,199.0
G,D,"[5, 3]",-1.0,-1.0,0.17935419082641602,1.811028003692627,0.6211248803162613,33.0,200.0
B,L,"[5, 2]",-1.0,-2.0,0.1656200885772705,1.5273420810699463,0.33226426064244846,33.0,201.0
R,U,"[4, 2]",-1.0,-2.0,0.026620149612426758,5.536207914352417,0.3851997267502107,33.0,202.0
R,U,"[3, 2]",1.0,-1.0,0.17395901679992676,1.5378179550170898,0.3562346635028949,33.0,203.0
G,D,"[4, 2]",0.0,-1.0,0.4868428707122803,1.9914729595184326,0.4976166396839956,33.0,204.0
,,"(3, 3)",,,,,,33.0,
Y,R,"[3, 4]",-1.0,-1.0,0.738029956817627,3.637402057647705,0.5687193009342989,,205.0
G,D,"[4, 4]",-1.0,-2.0,0.5788729190826416,2.046020030975342,0.46453038522139994,34.0,206.0
G,D,"[5, 4]",-1.0,-3.0,0.35166192054748535,2.0267181396484375,0.6742162393210352,34.0,207.0
R,U,"[4, 4]",0.0,-3.0,0.16225719451904297,1.5912771224975586,0.43266963976446526,34.0,208.0
B,L,"[4, 3]",-1.0,-4.0,0.17140817642211914,1.4882330894470215,0.3043733704453861,34.0,209.0
Y,R,"[4, 4]",0.0,-4.0,0.5130839347839355,2.207284927368164,0.6946032542807627,34.0,210.0
,,"(3, 3)",,,,,,34.0,
B,L,"[3, 2]",1.0,1.0,0.8916800022125244,3.5238609313964844,0.48543053571340383,,211.0
R,U,"[2, 2]",1.0,2.0,0.17967915534973145,1.7827339172363281,0.6014585047064709,35.0,212.0
G,D,"[3, 2]",0.0,2.0,0.2834780216217041,2.013490915298462,0.7315140122392292,35.0,213.0
Y,R,"[3, 3]",0.0,2.0,0.6593868732452393,1.9508249759674072,0.29946872102877425,35.0,214.0
R,U,"[2, 3]",-2.0,2.0,1.2830421924591064,2.6805269718170166,0.36322442654282294,35.0,215.0
R,U,"[1, 3]",1.0,3.0,0.17360401153564453,1.7889490127563477,0.6018791189195685,35.0,216.0
,,"(3, 3)",,,,,,35.0,
G,D,"[4, 3]",-1.0,-1.0,0.5130090713500977,3.576920986175537,0.6290667763495157,,217.0
R,U,"[3, 3]",-1.0,-1.0,0.0890188217163086,5.928884983062744,0.6911085832829388,36.0,218.0
R,U,"[2, 3]",-2.0,-1.0,1.5517098903656006,3.2241909503936768,0.6486588692115811,36.0,219.0
Y,R,"[2, 4]",-2.0,-1.0,2.2135260105133057,3.884209156036377,0.6330205802677988,36.0,220.0
Y,R,"[2, 5]",-1.0,-2.0,0.31427717208862305,1.8568661212921143,0.5233702316696568,36.0,221.0
B,L,"[2, 4]",0.0,-2.0,0.16346096992492676,1.5759971141815186,0.41618303155559905,36.0,222.0
,,"(3, 3)",,,,,,36.0,
R,U,"[2, 3]",-2.0,0.0,1.406667947769165,6.603732109069824,0.636621689606744,,223.0
G,D,"[3, 3]",0.0,0.0,0.3353450298309326,1.9904789924621582,0.6436162144194666,37.0,224.0
B,L,"[3, 2]",1.0,1.0,0.23611807823181152,1.8812370300292969,0.6415384382350775,37.0,225.0
R,U,"[2, 2]",1.0,2.0,0.31371212005615234,1.9497838020324707,0.641312153121133,37.0,226.0
Y,R,"[2, 3]",0.0,2.0,0.2767801284790039,1.746263027191162,0.47122630105375324,37.0,227.0
G,D,"[3, 3]",0.0,2.0,0.66792893409729,1.9803080558776855,0.31833364478864895,37.0,228.0
,,"(3, 3)",,,,,,37.0,
B,L,"[3, 2]",-2.0,0.0,1.2150380611419678,4.777282953262329,0.5954155996080577,,229.0
B,L,"[3, 1]",1.0,1.0,0.22796106338500977,1.6496100425720215,0.4118393597775894,38.0,230.0
R,U,"[2, 1]",1.0,2.0,0.18316984176635742,1.7601399421691895,0.57181844562348,38.0,231.0
G,D,"[3, 1]",0.0,2.0,0.16754889488220215,1.4884991645812988,0.3107866755622796,38.0,232.0
Y,R,"[3, 2]",0.0,2.0,0.23837995529174805,1.7452270984649658,0.5057423705937155,38.0,233.0
B,L,"[3, 1]",0.0,2.0,0.8172500133514404,2.1746621131896973,0.36372393147637566,38.0,234.0
,,"(3, 3)",,,,,,38.0,
B,L,"[3, 2]",1.0,1.0,0.2783658504486084,4.279834032058716,0.5102849870826707,,235.0
R,U,"[2, 2]",1.0,2.0,0.15964293479919434,1.5402710437774658,0.38399015343293974,39.0,236.0
Y,R,"[2, 3]",-1.0,1.0,0.2236790657043457,1.8030908107757568,0.5703374551206208,39.0,237.0
G,D,"[3, 3]",0.0,1.0,0.30989789962768555,1.88755202293396,0.5745379484093676,39.0,238.0
B,L,"[3, 2]",0.0,1.0,0.18973994255065918,1.9350459575653076,0.7429026744959428,39.0,239.0
R,U,"[2, 2]",0.0,1.0,0.19225001335144043,1.7855210304260254,0.5951218364046572,39.0,240.0
,,"(3, 3)",,,,,,39.0,
B,L,"[3, 2]",1.0,1.0,0.44318699836730957,2.4051830768585205,0.6336917799136383,,241.0
R,U,"[2, 2]",1.0,2.0,0.15831708908081055,1.4444990158081055,0.27856097353383064,40.0,242.0
B,L,"[2, 1]",1.0,3.0,0.36791396141052246,1.6692500114440918,0.29780592587243143,40.0,243.0
G,D,"[3, 1]",1.0,4.0,0.5146410465240479,1.841897964477539,0.32302324736462557,40.0,244.0
Y,R,"[3, 2]",0.0,4.0,0.21449899673461914,1.4846081733703613,0.2744465771346885,40.0,245.0
G,D,"[4, 2]",-1.0,3.0,0.5072228908538818,1.7944140434265137,0.2854963508576243,40.0,246.0
,,"(3, 3)",,,,,,40.0,
B,L,"[3, 2]",1.0,1.0,0.35604119300842285,2.914900064468384,0.28385489858416074,,247.0
R,U,"[2, 2]",1.0,2.0,0.1825718879699707,1.755223035812378,0.5554689440185565,41.0,248.0
B,L,"[2, 1]",1.0,3.0,0.3586418628692627,1.6507930755615234,0.2897985469864346,41.0,249.0
G,D,"[3, 1]",1.0,4.0,0.15781688690185547,1.8385000228881836,0.6784871052674002,41.0,250.0
R,U,"[2, 1]",0.0,4.0,0.1983640193939209,1.9246799945831299,0.7359784312255752,41.0,251.0
B,L,"[2, 0]",0.0,4.0,0.1842339038848877,1.775367021560669,0.5949541490872108,41.0,252.0
,,"(3, 3)",,,,,,41.0,
B,L,"[3, 2]",1.0,1.0,0.4435908794403076,2.699907064437866,0.44524190873936054,,253.0
R,U,"[2, 2]",1.0,2.0,0.10664105415344238,1.6866910457611084,0.5815398651203614,42.0,254.0
B,L,"[2, 1]",1.0,3.0,0.4138631820678711,1.9701111316680908,0.5517594265831265,42.0,255.0
G,D,"[3, 1]",1.0,4.0,0.4344470500946045,2.062044143676758,0.6137958081052006,42.0,256.0
Y,R,"[3, 2]",0.0,4.0,0.41379594802856445,1.886909008026123,0.4674256744560803,42.0,257.0
R,U,"[2, 2]",0.0,4.0,0.5292110443115234,2.1292641162872314,0.5965605347098517,42.0,258.0
,,"(3, 3)",,,,,,42.0,
B,L,"[3, 2]",1.0,1.0,0.5767419338226318,2.548161029815674,0.5115514559949457,,259.0
R,U,"[2, 2]",1.0,2.0,0.21066594123840332,1.9394841194152832,0.7341791236644738,43.0,260.0
B,L,"[2, 1]",1.0,3.0,0.18596100807189941,1.898087978363037,0.698953388265436,43.0,261.0
G,D,"[3, 1]",1.0,4.0,0.26910996437072754,1.8295888900756836,0.5454216433515677,43.0,262.0
G,D,"[4, 1]",-1.0,3.0,0.5331840515136719,1.88576078414917,0.3481070216546168,43.0,263.0
Y,R,"[4, 2]",-1.0,2.0,0.6032400131225586,2.216348886489868,0.5975929419606901,43.0,264.0
,,"(3, 3)",,,,,,43.0,
B,L,"[3, 2]",1.0,1.0,0.40824198722839355,2.2154910564422607,0.47977661163672786,,265.0
R,U,"[2, 2]",1.0,2.0,0.15718984603881836,1.4229099750518799,0.2531960181793973,44.0,266.0
B,L,"[2, 1]",1.0,3.0,0.2826390266418457,1.8565621376037598,0.5593142826493998,44.0,267.0
G,D,"[3, 1]",1.0,4.0,0.2294762134552002,1.9222750663757324,0.6982633325098269,44.0,268.0
G,D,"[4, 1]",-1.0,3.0,0.9361770153045654,2.4584929943084717,0.506964790460618,44.0,269.0
G,D,"[5, 1]",-1.0,2.0,0.898259162902832,2.346850872039795,0.45387522561767357,44.0,270.0
,,"(3, 3)",,,,,,44.0,
B,L,"[3, 2]",1.0,1.0,0.2985529899597168,2.1778008937835693,0.48182620654857666,,271.0
R,U,"[2, 2]",1.0,2.0,0.1405010223388672,1.7316839694976807,0.5798816144065952,45.0,272.0
B,L,"[2, 1]",1.0,3.0,0.16306495666503906,1.801062822341919,0.6309152973440196,45.0,273.0
G,D,"[3, 1]",1.0,4.0,0.18091297149658203,1.789806842803955,0.6041990932929409,45.0,274.0
R,U,"[2, 1]",0.0,4.0,0.9856550693511963,2.3126959800720215,0.3170691143842783,45.0,275.0
B,L,"[2, 0]",-2.0,4.0,1.2730910778045654,3.0143589973449707,0.6977960139341332,45.0,276.0
,,"(3, 3)",,,,,,45.0,
B,L,"[3, 2]",1.0,1.0,0.3008079528808594,3.4631869792938232,0.5111904421295554,,277.0
R,U,"[2, 2]",1.0,2.0,0.39782214164733887,1.7431399822235107,0.3545960534933601,46.0,278.0
B,L,"[2, 1]",1.0,3.0,0.34973812103271484,1.874643087387085,0.5289988055383759,46.0,279.0
G,D,"[3, 1]",1.0,4.0,0.28908610343933105,1.6779701709747314,0.3905621197958627,46.0,280.0
Y,R,"[3, 2]",0.0,4.0,0.5879330635070801,2.08583402633667,0.4930651656760748,46.0,281.0
R,U,"[2, 2]",0.0,4.0,0.40575313568115234,2.0426580905914307,0.6521977120796103,46.0,282.0
,,"(3, 3)",,,,,,46.0,
B,L,"[3, 2]",1.0,1.0,0.3108510971069336,2.7966220378875732,0.6989228005635042,,283.0
R,U,"[2, 2]",1.0,2.0,0.2169051170349121,1.7111570835113525,0.4769131781789514,47.0,284.0
B,L,"[2, 1]",1.0,3.0,0.18773889541625977,1.5281250476837158,0.3384963682711438,47.0,285.0
G,D,"[3, 1]",1.0,4.0,0.35241222381591797,2.085786819458008,0.7240175606011408,47.0,286.0
B,L,"[3, 0]",0.0,4.0,0.31316304206848145,1.5921978950500488,0.28324568183976995,47.0,287.0
B,L,"[3, 0]",0.0,4.0,0.4651930332183838,1.906062126159668,0.43916966214581404,47.0,288.0
,,"(3, 3)",,,,,,47.0,
B,L,"[3, 2]",1.0,1.0,0.7547149658203125,3.626271963119507,0.7487409277904544,,289.0
R,U,"[2, 2]",1.0,2.0,0.28910183906555176,1.7326359748840332,0.4314892528664769,48.0,290.0
B,L,"[2, 1]",1.0,3.0,0.25075602531433105,1.8005859851837158,0.5487091983843293,48.0,291.0
G,D,"[3, 1]",1.0,4.0,0.251035213470459,1.7281239032745361,0.46033084736790436,48.0,292.0
R,U,"[2, 1]",0.0,4.0,0.6632680892944336,2.166146993637085,0.5097741896658389,48.0,293.0
G,D,"[3, 1]",0.0,4.0,0.3036539554595947,1.7026610374450684,0.3958324180134742,48.0,294.0
,,"(3, 3)",,,,,,48.0,
B,L,"[3, 2]",1.0,1.0,0.9211030006408691,3.303647994995117,0.5996092010039885,,295.0
R,U,"[2, 2]",1.0,2.0,0.4376859664916992,1.8862290382385254,0.4523478355370221,49.0,296.0
B,L,"[2, 1]",1.0,3.0,0.38383913040161133,2.0986061096191406,0.7007958806824692,49.0,297.0
G,D,"[3, 1]",1.0,4.0,0.3758220672607422,1.821061134338379,0.43910789818151397,49.0,298.0
Y,R,"[3, 2]",0.0,4.0,0.8212020397186279,2.522373914718628,0.694293132596334,49.0,299.0
B,L,"[3, 1]",0.0,4.0,0.646773099899292,2.3006160259246826,0.6616361733846641,49.0,300.0
,,"(3, 3)",,,,,,49.0,
B,L,"[3, 2]",1.0,1.0,0.3979790210723877,3.185734987258911,0.714249575241136,,301.0
R,U,"[2, 2]",1.0,2.0,0.1809852123260498,1.5276789665222168,0.34223094918742464,50.0,302.0
B,L,"[2, 1]",1.0,3.0,0.46642518043518066,2.142941951751709,0.6847389104478072,50.0,303.0
G,D,"[3, 1]",1.0,4.0,0.317363977432251,1.7648229598999023,0.4331695116509899,50.0,304.0
B,L,"[3, 0]",0.0,4.0,0.2418839931488037,1.9348859786987305,0.6846599218406704,50.0,305.0
G,D,"[4, 0]",0.0,4.0,0.3026418685913086,1.8109009265899658,0.4957435077542749,50.0,306.0
,,"(3, 3)",,,,,,50.0,
B,L,"[3, 2]",1.0,1.0,0.43878889083862305,2.5008819103240967,0.31336450793364573,,307.0
R,U,"[2, 2]",1.0,2.0,0.1781330108642578,1.8746910095214844,0.6878236410816803,51.0,308.0
B,L,"[2, 1]",1.0,3.0,0.35259294509887695,1.801574945449829,0.43966320596293,51.0,309.0
G,D,"[3, 1]",1.0,4.0,0.30246520042419434,1.9808320999145508,0.670283596387073,51.0,310.0
R,U,"[2, 1]",0.0,4.0,0.34217214584350586,1.668877124786377,0.3227440345491228,51.0,311.0
G,D,"[3, 1]",0.0,4.0,0.45455002784729004,1.997201919555664,0.5364606246352795,51.0,312.0
,,"(3, 3)",,,,,,51.0,
B,L,"[3, 2]",1.0,1.0,0.5255520343780518,3.0802009105682373,0.7334999093711541,,313.0
R,U,"[2, 2]",1.0,2.0,0.3354198932647705,1.7003719806671143,0.35097425827458906,52.0,314.0
B,L,"[2, 1]",1.0,3.0,0.5873520374298096,2.2120678424835205,0.6121741964715264,52.0,315.0
G,D,"[3, 1]",1.0,4.0,0.2663838863372803,1.8435578346252441,0.5727514966414875,52.0,316.0
G,D,"[4, 1]",-1.0,3.0,0.29247498512268066,1.5951519012451172,0.30158463409674113,52.0,317.0
B,L,"[4, 0]",0.0,3.0,0.5526270866394043,1.933633804321289,0.3684689406038023,52.0,318.0
,,"(3, 3)",,,,,,52.0,
B,L,"[3, 2]",1.0,1.0,0.46137094497680664,2.49212384223938,0.5937091903200422,,319.0
R,U,"[2, 2]",1.0,2.0,0.620966911315918,1.9028198719024658,0.29690412529347143,53.0,320.0
B,L,"[2, 1]",1.0,3.0,0.38567304611206055,1.7714078426361084,0.3682972124872995,53.0,321.0
G,D,"[3, 1]",1.0,4.0,0.4519062042236328,2.0777649879455566,0.6125188822115852,53.0,322.0
Y,R,"[3, 2]",0.0,4.0,0.29956984519958496,1.6209189891815186,0.33374538243229723,53.0,323.0
R,U,"[2, 2]",0.0,4.0,0.20915603637695312,1.5412650108337402,0.325001936943146,53.0,324.0
,,"(3, 3)",,,,,,53.0,
B,L,"[3, 2]",1.0,1.0,0.3428940773010254,2.6261370182037354,0.4509997930359829,,325.0
R,U,"[2, 2]",1.0,2.0,0.22176194190979004,1.6139280796051025,0.3984320834090173,54.0,326.0
B,L,"[2, 1]",1.0,3.0,0.30800390243530273,1.8628380298614502,0.5445150001267058,54.0,327.0
G,D,"[3, 1]",1.0,4.0,0.2549300193786621,1.7825820446014404,0.5271916898836188,54.0,328.0
Y,R,"[3, 2]",0.0,4.0,0.44076013565063477,1.9157061576843262,0.4761462021807351,54.0,329.0
R,U,"[2, 2]",0.0,4.0,0.31416797637939453,2.0251760482788086,0.7177100976337187,54.0,330.0
,,"(3, 3)",,,,,,54.0,
B,L,"[3, 2]",1.0,1.0,0.3880281448364258,2.9756641387939453,0.36062522587550355,,331.0
R,U,"[2, 2]",1.0,2.0,0.20239996910095215,1.912825107574463,0.7065236203796621,55.0,332.0
B,L,"[2, 1]",1.0,3.0,0.3088998794555664,1.8168411254882812,0.5068172148382848,55.0,333.0
G,D,"[3, 1]",1.0,4.0,0.3880739212036133,1.643320083618164,0.2504579427832093,55.0,334.0
R,U,"[2, 1]",0.0,4.0,0.24520397186279297,1.59608793258667,0.34645379068205645,55.0,335.0
Y,R,"[2, 2]",0.0,4.0,0.3761930465698242,1.9393610954284668,0.5521820550942003,55.0,336.0
,,"(3, 3)",,,,,,55.0,
B,L,"[3, 2]",1.0,1.0,0.3265061378479004,2.8110530376434326,0.5800167821413198,,337.0
R,U,"[2, 2]",1.0,2.0,0.25292277336120605,1.7375590801239014,0.46769827464246444,56.0,338.0
B,L,"[2, 1]",1.0,3.0,0.25219011306762695,1.652245044708252,0.3867884732873819,56.0,339.0
G,D,"[3, 1]",1.0,4.0,0.31525707244873047,1.6701631546020508,0.3569228849343978,56.0,340.0
B,L,"[3, 0]",0.0,4.0,0.31543612480163574,1.6954569816589355,0.3857314838841949,56.0,341.0
G,D,"[4, 0]",0.0,4.0,0.1806938648223877,1.9186480045318604,0.6208678563229144,56.0,342.0
,,"(3, 3)",,,,,,56.0,
B,L,"[3, 2]",-2.0,0.0,1.4366629123687744,3.994400978088379,0.6820082310240889,,343.0
R,U,"[2, 2]",1.0,1.0,0.21396994590759277,1.8468761444091797,0.6121286062424739,57.0,344.0
B,L,"[2, 1]",1.0,2.0,0.17473292350769043,1.5037031173706055,0.33280297732657527,57.0,345.0
G,D,"[3, 1]",1.0,3.0,0.3401041030883789,2.0648391246795654,0.714177251394734,57.0,346.0
Y,R,"[3, 2]",0.0,3.0,0.2628920078277588,1.720181941986084,0.3845572682520376,57.0,347.0
B,L,"[3, 1]",0.0,3.0,0.2301039695739746,1.5071158409118652,0.27522287403522044,57.0,348.0
,,"(3, 3)",,,,,,57.0,
Y,R,"[3, 4]",-1.0,-1.0,0.6188020706176758,3.77071213722229,0.728926691494453,,349.0
B,L,"[3, 3]",0.0,-1.0,0.4514150619506836,2.0990850925445557,0.6445305393106169,58.0,350.0
B,L,"[3, 2]",1.0,0.0,0.14255285263061523,1.7840580940246582,0.6453826520849105,58.0,351.0
G,D,"[4, 2]",-1.0,-1.0,0.3814709186553955,2.0162131786346436,0.6449079564713269,58.0,352.0
R,U,"[3, 2]",0.0,-1.0,0.33676695823669434,1.8855299949645996,0.5639858220640122,58.0,353.0
Y,R,"[3, 3]",0.0,-1.0,0.19364595413208008,1.874338150024414,0.5051054471168892,58.0,354.0
,,"(3, 3)",,,,,,58.0,
B,L,"[3, 2]",1.0,1.0,0.33564209938049316,2.9713549613952637,0.44317077965004126,,355.0
R,U,"[2, 2]",1.0,2.0,0.23363804817199707,1.802196979522705,0.561969492657689,59.0,356.0
B,L,"[2, 1]",1.0,3.0,0.1776590347290039,1.9013121128082275,0.7298790488446404,59.0,357.0
G,D,"[3, 1]",1.0,4.0,0.19409394264221191,1.9032220840454102,0.6998474562905492,59.0,358.0
R,U,"[2, 1]",0.0,4.0,0.3511209487915039,1.6750590801239014,0.3085485073838864,59.0,359.0
G,D,"[3, 1]",0.0,4.0,0.7556748390197754,2.4516570568084717,0.6932316625079917,59.0,360.0
,,"(3, 3)",,,,,,59.0,
B,L,"[3, 2]",1.0,1.0,0.35056114196777344,2.9041271209716797,0.43129408055681134,,361.0
R,U,"[2, 2]",1.0,2.0,0.5829620361328125,2.331817865371704,0.7293072105546834,60.0,362.0
B,L,"[2, 1]",1.0,3.0,0.4147930145263672,1.684485912322998,0.26431832465659,60.0,363.0
G,D,"[3, 1]",1.0,4.0,0.42763400077819824,2.1173720359802246,0.681122060121462,60.0,364.0
R,U,"[2, 1]",0.0,4.0,0.3557710647583008,1.6447019577026367,0.2764624127537887,60.0,365.0
R,U,"[1, 1]",-1.0,3.0,0.5486278533935547,2.058717966079712,0.5014853860003345,60.0,366.0
,,"(3, 3)",,,,,,60.0,
B,L,"[3, 2]",1.0,1.0,0.3054239749908447,2.5921947956085205,0.42731235138922813,,367.0
R,U,"[2, 2]",1.0,2.0,0.36075615882873535,1.803359031677246,0.44706536546146675,61.0,368.0
B,L,"[2, 1]",1.0,3.0,0.22100281715393066,1.7668209075927734,0.530577309264609,61.0,369.0
G,D,"[3, 1]",1.0,4.0,0.2765791416168213,1.76885986328125,0.4828516820930281,61.0,370.0
Y,R,"[3, 2]",0.0,4.0,0.18795514106750488,1.94724702835083,0.7465285826536718,61.0,371.0
R,U,"[2, 2]",0.0,4.0,0.1908860206604004,1.6852550506591797,0.482168049909758,61.0,372.0
,,"(3, 3)",,,,,,61.0,
B,L,"[3, 2]",1.0,1.0,0.32852792739868164,2.160547971725464,0.5593544526514284,,373.0
R,U,"[2, 2]",1.0,2.0,0.3796658515930176,2.0302398204803467,0.6560115487166168,62.0,374.0
B,L,"[2, 1]",1.0,3.0,0.19531607627868652,1.8516128063201904,0.6577034807704788,62.0,375.0
G,D,"[3, 1]",1.0,4.0,0.29145097732543945,1.7491238117218018,0.45710491707821016,62.0,376.0
Y,R,"[3, 2]",0.0,4.0,0.592536211013794,2.0897979736328125,0.4968646107278087,62.0,377.0
R,U,"[2, 2]",0.0,4.0,0.3416261672973633,1.8886950016021729,0.5356371870922467,62.0,378.0
,,"(3, 3)",,,,,,62.0,
B,L,"[3, 2]",1.0,1.0,0.38692784309387207,7.2622528076171875,0.3978406189758231,,379.0
R,U,"[2, 2]",1.0,2.0,0.33597397804260254,1.871156930923462,0.5190892709236294,63.0,380.0
B,L,"[2, 1]",1.0,3.0,0.5622498989105225,2.1187870502471924,0.5543620855918074,63.0,381.0
G,D,"[3, 1]",1.0,4.0,0.41726207733154297,1.8689498901367188,0.45710469723625424,63.0,382.0
Y,R,"[3, 2]",0.0,4.0,0.3011610507965088,1.8531618118286133,0.5434533114329628,63.0,383.0
R,U,"[2, 2]",0.0,4.0,0.1050269603729248,1.692025899887085,0.5854308275468549,63.0,384.0
,,"(3, 3)",,,,,,63.0,
B,L,"[3, 2]",1.0,1.0,0.38092803955078125,13.31345510482788,0.3326206946687788,,385.0
R,U,"[2, 2]",1.0,2.0,0.23702192306518555,1.5604231357574463,0.30992575132979705,64.0,386.0
B,L,"[2, 1]",1.0,3.0,0.4870290756225586,2.2076520919799805,0.7170434892805153,64.0,387.0
G,D,"[3, 1]",1.0,4.0,0.29644107818603516,2.0151560306549072,0.7156139880769365,64.0,388.0
Y,R,"[3, 2]",0.0,4.0,0.5279688835144043,1.8218879699707031,0.28798095406881824,64.0,389.0
R,U,"[2, 2]",0.0,4.0,0.19933485984802246,1.8822729587554932,0.6864466254540125,64.0,390.0
,,"(3, 3)",,,,,,64.0,
B,L,"[3, 2]",1.0,1.0,0.3588728904724121,3.719964027404785,0.29032817474685957,,391.0
R,U,"[2, 2]",1.0,2.0,0.20457696914672852,1.706899881362915,0.4970559151634036,65.0,392.0
B,L,"[2, 1]",1.0,3.0,0.38881707191467285,1.7699830532073975,0.36709206182782667,65.0,393.0
G,D,"[3, 1]",1.0,4.0,0.47719812393188477,2.064281940460205,0.5812556451596634,65.0,394.0
R,U,"[2, 1]",0.0,4.0,0.19372296333312988,1.8787720203399658,0.6766652342038288,65.0,395.0
G,D,"[3, 1]",0.0,4.0,0.16498494148254395,1.7454650402069092,0.5888655623391779,65.0,396.0
,,"(3, 3)",,,,,,65.0,
B,L,"[3, 2]",1.0,1.0,0.2952699661254883,2.724252939224243,0.4132641570572158,,397.0
R,U,"[2, 2]",1.0,2.0,0.42987585067749023,1.832096815109253,0.3954100817872059,66.0,398.0
B,L,"[2, 1]",1.0,3.0,0.2752339839935303,1.522500991821289,0.25155134811699503,66.0,399.0
G,D,"[3, 1]",1.0,4.0,0.4290339946746826,1.954395055770874,0.5222609285615196,66.0,400.0
G,D,"[4, 1]",-1.0,3.0,0.2352290153503418,1.7354481220245361,0.5076793281242491,66.0,401.0
R,U,"[3, 1]",0.0,3.0,0.1567089557647705,1.6964459419250488,0.5376733205911375,66.0,402.0
,,"(3, 3)",,,,,,66.0,
B,L,"[3, 2]",-1.0,-1.0,0.3237748146057129,2.333587884902954,0.687717348760072,,403.0
R,U,"[2, 2]",-1.0,-2.0,0.2181229591369629,1.5193748474121094,0.274374728050708,67.0,404.0
B,L,"[2, 1]",-1.0,-3.0,0.4859480857849121,2.0281460285186768,0.552051377861126,67.0,405.0
Y,R,"[2, 2]",-1.0,-4.0,0.31499314308166504,1.816910982131958,0.5022682000876981,67.0,406.0
G,D,"[3, 2]",-1.0,-5.0,0.675015926361084,1.9406909942626953,0.2600136071702132,67.0,407.0
R,U,"[2, 2]",-1.0,-6.0,0.3607461452484131,1.7487170696258545,0.3920350304429628,67.0,408.0
,,"(3, 3)",,,,,,67.0,
R,U,"[2, 3]",-1.0,-1.0,0.6844329833984375,4.060567140579224,0.2693930276924242,,409.0
Y,R,"[2, 4]",-1.0,-2.0,0.21875309944152832,1.6163859367370605,0.4023935656184046,68.0,410.0
B,L,"[2, 3]",-1.0,-3.0,0.3506591320037842,1.8556859493255615,0.5078677052454794,68.0,411.0
Y,R,"[2, 4]",-1.0,-4.0,0.2667081356048584,1.627040147781372,0.3684444961378131,68.0,412.0
G,D,"[3, 4]",-1.0,-5.0,0.16247200965881348,1.5291318893432617,0.36410090734498035,68.0,413.0
R,U,"[2, 4]",-1.0,-6.0,0.2612590789794922,1.9985249042510986,0.7290790284180761,68.0,414.0
,,"(3, 3)",,,,,,68.0,
B,L,"[3, 2]",-1.0,-1.0,0.22706198692321777,4.516145944595337,0.3957430781653622,,415.0
R,U,"[2, 2]",-1.0,-2.0,0.1485750675201416,1.638810157775879,0.5011208916743339,69.0,416.0
G,D,"[3, 2]",-1.0,-3.0,0.11294007301330566,1.7631680965423584,0.6475354616266138,69.0,417.0
R,U,"[2, 2]",-1.0,-4.0,0.20589518547058105,1.4774699211120605,0.258643097746467,69.0,418.0
Y,R,"[2, 3]",-1.0,-5.0,0.17435288429260254,1.657080888748169,0.48220552705043773,69.0,419.0
B,L,"[2, 2]",-1.0,-6.0,0.19269394874572754,1.8771398067474365,0.6753989312809241,69.0,420.0
,,"(3, 3)",,,,,,69.0,
B,L,"[3, 2]",-1.0,-1.0,0.45465707778930664,3.287461996078491,0.4471210850362589,,421.0
R,U,"[2, 2]",-1.0,-2.0,0.17224717140197754,1.4638259410858154,0.29424493224147225,70.0,422.0
G,D,"[3, 2]",-1.0,-3.0,0.4913198947906494,1.9365119934082031,0.4638169577398024,70.0,423.0
Y,R,"[3, 3]",-2.0,-5.0,0.23334884643554688,1.9374189376831055,0.6846205352931845,70.0,424.0
R,U,"[2, 3]",-1.0,-6.0,0.24091291427612305,1.706146001815796,0.45765264080163076,70.0,425.0
B,L,"[2, 2]",-1.0,-7.0,0.40593910217285156,1.6722209453582764,0.26336056348583886,70.0,426.0
,,"(3, 3)",,,,,,70.0,
G,D,"[4, 3]",1.0,1.0,0.40614891052246094,2.288530111312866,0.48535570161163244,,427.0
Y,R,"[4, 4]",-1.0,0.0,0.15821194648742676,1.4585940837860107,0.293972011204591,71.0,428.0
B,L,"[4, 3]",1.0,1.0,0.376507043838501,1.7555170059204102,0.3826973890588294,71.0,429.0
R,U,"[3, 3]",-2.0,-1.0,0.41527700424194336,2.078299045562744,0.660647433221033,71.0,430.0
Y,R,"[3, 4]",-1.0,-2.0,0.19927597045898438,1.6503210067749023,0.44458513927828414,71.0,431.0
R,U,"[2, 4]",-1.0,-3.0,0.21526598930358887,1.5155560970306396,0.31033737237741177,71.0,432.0
,,"(3, 3)",,,,,,71.0,
G,D,"[4, 3]",1.0,1.0,0.25344395637512207,2.4429450035095215,0.4032745036522224,,433.0
R,U,"[3, 3]",-2.0,-1.0,0.1718740463256836,1.4713540077209473,0.2913360789178838,72.0,434.0
B,L,"[3, 2]",-1.0,-2.0,0.3316650390625,1.7903378009796143,0.4649098813930826,72.0,435.0
Y,R,"[3, 3]",-2.0,-4.0,0.7613351345062256,2.483496904373169,0.6983362078721738,72.0,436.0
R,U,"[2, 3]",-1.0,-5.0,0.30025315284729004,1.850403070449829,0.5321667870383854,72.0,437.0
G,D,"[3, 3]",-2.0,-7.0,0.1752619743347168,1.6764540672302246,0.49203683257769193,72.0,438.0
,,"(3, 3)",,,,,,72.0,
G,D,"[4, 3]",1.0,1.0,0.5683929920196533,3.299704074859619,0.2586497823974395,,439.0
Y,R,"[4, 4]",-1.0,0.0,0.21970105171203613,1.9405810832977295,0.7153907162325672,73.0,440.0
G,D,"[5, 4]",-1.0,-1.0,0.21863484382629395,1.6225860118865967,0.38839620408704234,73.0,441.0
R,U,"[4, 4]",-1.0,-2.0,0.46933484077453613,1.9600279331207275,0.481729585089443,73.0,442.0
Y,R,"[4, 5]",-1.0,-3.0,0.11880278587341309,1.6157479286193848,0.480777267728758,73.0,443.0
B,L,"[4, 4]",-1.0,-4.0,0.22877287864685059,1.8331630229949951,0.5972599184791851,73.0,444.0
,,"(3, 3)",,,,,,73.0,
G,D,"[4, 3]",1.0,1.0,0.6860630512237549,2.3869540691375732,0.28451014596216756,,445.0
B,L,"[4, 2]",1.0,2.0,0.5952091217041016,2.2028939723968506,0.6037873973224792,74.0,446.0
G,D,"[5, 2]",1.0,3.0,0.3742868900299072,1.9724578857421875,0.5932450934080369,74.0,447.0
B,L,"[5, 1]",-1.0,2.0,0.187852144241333,1.8725860118865967,0.6819933148813363,74.0,448.0
R,U,"[4, 1]",1.0,3.0,0.21848297119140625,1.8277719020843506,0.5933504971756096,74.0,449.0
Y,R,"[4, 2]",1.0,4.0,0.18288302421569824,1.6912739276885986,0.5013956553871168,74.0,450.0
,,"(3, 3)",,,,,,74.0,
G,D,"[4, 3]",1.0,1.0,0.5339269638061523,2.8521549701690674,0.4203083001041656,,451.0
B,L,"[4, 2]",1.0,2.0,0.2509481906890869,1.9171748161315918,0.6540292252209324,75.0,452.0
G,D,"[5, 2]",1.0,3.0,0.22046995162963867,1.5366299152374268,0.3077289648830986,75.0,453.0
R,U,"[4, 2]",1.0,4.0,0.34007716178894043,1.6754240989685059,0.33305202901846537,75.0,454.0
B,L,"[4, 1]",1.0,5.0,0.30993103981018066,1.9767370223999023,0.6595154582889844,75.0,455.0
Y,R,"[4, 2]",1.0,6.0,0.18623995780944824,1.8304789066314697,0.6400506766336278,75.0,456.0
,,"(3, 3)",,,,,,75.0,
G,D,"[4, 3]",1.0,1.0,0.5309638977050781,2.8300371170043945,0.4536188592347253,,457.0
B,L,"[4, 2]",1.0,2.0,0.42774200439453125,1.9685251712799072,0.5384436960642378,76.0,458.0
G,D,"[5, 2]",1.0,3.0,0.42533087730407715,1.691688060760498,0.26410637252712066,76.0,459.0
R,U,"[4, 2]",1.0,4.0,0.41718196868896484,2.1187970638275146,0.6825888276313841,76.0,460.0
B,L,"[4, 1]",1.0,5.0,0.5396530628204346,2.13254714012146,0.5818560068953731,76.0,461.0
Y,R,"[4, 2]",1.0,6.0,0.40138912200927734,1.7179899215698242,0.3002873916882161,76.0,462.0
,,"(3, 3)",,,,,,76.0,
G,D,"[4, 3]",1.0,1.0,0.5892040729522705,2.6887271404266357,0.7384468444968297,,463.0
B,L,"[4, 2]",1.0,2.0,0.2865180969238281,1.8481030464172363,0.5535701598362217,77.0,464.0
G,D,"[5, 2]",1.0,3.0,0.38187599182128906,2.002713203430176,0.6228719038957063,77.0,465.0
R,U,"[4, 2]",1.0,4.0,0.3047339916229248,1.6685590744018555,0.35832953254261984,77.0,466.0
B,L,"[4, 1]",1.0,5.0,0.40094685554504395,2.1165859699249268,0.7079037087500826,77.0,467.0
Y,R,"[4, 2]",1.0,6.0,0.15732812881469727,1.9046058654785156,0.7457360224858491,77.0,468.0
,,"(3, 3)",,,,,,77.0,
G,D,"[4, 3]",1.0,1.0,0.8470509052276611,3.785892963409424,0.41547572739849953,,469.0
B,L,"[4, 2]",1.0,2.0,0.28681087493896484,1.8948659896850586,0.5934571152874931,78.0,470.0
G,D,"[5, 2]",1.0,3.0,0.3473398685455322,2.017580986022949,0.6775707993485482,78.0,471.0
R,U,"[4, 2]",1.0,4.0,0.3117210865020752,1.5801620483398438,0.27487417994499513,78.0,472.0
B,L,"[4, 1]",1.0,5.0,0.34468698501586914,2.035922050476074,0.6936673752587803,78.0,473.0
Y,R,"[4, 2]",1.0,6.0,0.4081151485443115,1.8468480110168457,0.4410249063287157,78.0,474.0
,,"(3, 3)",,,,,,78.0,
G,D,"[4, 3]",1.0,1.0,0.5719270706176758,3.6407999992370605,0.5984979401015732,,475.0
B,L,"[4, 2]",1.0,2.0,0.21430301666259766,1.6058180332183838,0.3877100034606796,79.0,476.0
G,D,"[5, 2]",1.0,3.0,0.3045477867126465,1.7208149433135986,0.4085049208205912,79.0,477.0
R,U,"[4, 2]",1.0,4.0,0.2098979949951172,1.8585340976715088,0.6501795277927188,79.0,478.0
B,L,"[4, 1]",1.0,5.0,0.22442293167114258,1.8698921203613281,0.6368978291237873,79.0,479.0
Y,R,"[4, 2]",1.0,6.0,0.3086428642272949,1.591965913772583,0.2792126019590258,79.0,480.0
,,"(3, 3)",,,,,,79.0,
G,D,"[4, 3]",-2.0,0.0,1.0587351322174072,3.812537908554077,0.6413830415020186,,481.0
B,L,"[4, 2]",1.0,1.0,0.17501091957092285,1.6751689910888672,0.5001103041184201,80.0,482.0
G,D,"[5, 2]",1.0,2.0,0.3734450340270996,2.050273895263672,0.6668172713949085,80.0,483.0
R,U,"[4, 2]",1.0,3.0,0.22947001457214355,1.5685899257659912,0.3358913523602944,80.0,484.0
B,L,"[4, 1]",1.0,4.0,0.3699491024017334,1.6679961681365967,0.2871497083040207,80.0,485.0
Y,R,"[4, 2]",1.0,5.0,0.5431561470031738,2.011880874633789,0.46557317905232837,80.0,486.0
,,"(3, 3)",,,,,,80.0,
G,D,"[4, 3]",1.0,1.0,0.999769926071167,3.4192798137664795,0.4183033258330368,,487.0
B,L,"[4, 2]",1.0,2.0,0.36628103256225586,1.6186769008636475,0.25385629171219104,81.0,488.0
G,D,"[5, 2]",1.0,3.0,0.3446381092071533,1.9082059860229492,0.5617426879204399,81.0,489.0
R,U,"[4, 2]",1.0,4.0,0.21561408042907715,1.9158110618591309,0.7108555391418585,81.0,490.0
B,L,"[4, 1]",1.0,5.0,0.45004701614379883,1.9607510566711426,0.5050670551908529,81.0,491.0
Y,R,"[4, 2]",1.0,6.0,0.4715280532836914,2.1670241355895996,0.6886607199880758,81.0,492.0
,,"(3, 3)",,,,,,81.0,
G,D,"[4, 3]",1.0,1.0,0.4324171543121338,3.0263359546661377,0.6316211525661422,,493.0
B,L,"[4, 2]",1.0,2.0,0.3466520309448242,2.0817058086395264,0.7300774025143498,82.0,494.0
G,D,"[5, 2]",1.0,3.0,0.12334179878234863,1.6953370571136475,0.5587946164586777,82.0,495.0
R,U,"[4, 2]",1.0,4.0,0.21627306938171387,1.6403310298919678,0.4327274978711405,82.0,496.0
B,L,"[4, 1]",1.0,5.0,0.41705322265625,1.9619779586791992,0.5279023569589347,82.0,497.0
Y,R,"[4, 2]",1.0,6.0,0.32022595405578613,1.7048070430755615,0.38294825083178924,82.0,498.0
,,"(3, 3)",,,,,,82.0,
G,D,"[4, 3]",1.0,1.0,0.5181760787963867,2.833829879760742,0.5167375879810194,,499.0
B,L,"[4, 2]",1.0,2.0,0.23933720588684082,1.6153488159179688,0.3655270937751314,83.0,500.0
G,D,"[5, 2]",1.0,3.0,0.39263200759887695,1.9338099956512451,0.5324965105544706,83.0,501.0
R,U,"[4, 2]",1.0,4.0,0.38538193702697754,1.939190149307251,0.5384500531741709,83.0,502.0
B,L,"[4, 1]",1.0,5.0,0.2972869873046875,1.7351491451263428,0.4405197444226964,83.0,503.0
Y,R,"[4, 2]",1.0,6.0,0.42600297927856445,1.7148621082305908,0.288765105248536,83.0,504.0
,,"(3, 3)",,,,,,83.0,
G,D,"[4, 3]",1.0,1.0,0.5745837688446045,2.647343873977661,0.51901061397432,,505.0
B,L,"[4, 2]",1.0,2.0,0.20729589462280273,1.8689959049224854,0.6550574274530306,84.0,506.0
G,D,"[5, 2]",1.0,3.0,0.2587289810180664,1.553063154220581,0.291660409657774,84.0,507.0
R,U,"[4, 2]",1.0,4.0,0.35276198387145996,1.7231521606445312,0.36479585092009864,84.0,508.0
B,L,"[4, 1]",1.0,5.0,0.3425431251525879,1.6597719192504883,0.3078459816756075,84.0,509.0
Y,R,"[4, 2]",1.0,6.0,0.4544961452484131,1.780822992324829,0.3221334560267842,84.0,510.0
,,"(3, 3)",,,,,,84.0,
G,D,"[4, 3]",1.0,1.0,0.7522220611572266,3.03554105758667,0.724045542136351,,511.0
B,L,"[4, 2]",1.0,2.0,0.25925397872924805,1.5148260593414307,0.2560510650784506,85.0,512.0
G,D,"[5, 2]",1.0,3.0,0.6235928535461426,2.376739025115967,0.7489085648195315,85.0,513.0
R,U,"[4, 2]",1.0,4.0,0.23062801361083984,1.5223112106323242,0.28839649576586496,85.0,514.0
B,L,"[4, 1]",1.0,5.0,0.3117671012878418,1.8214499950408936,0.5094732399865174,85.0,515.0
Y,R,"[4, 2]",1.0,6.0,0.22792696952819824,1.5809988975524902,0.35742038192514836,85.0,516.0
,,"(3, 3)",,,,,,85.0,
G,D,"[4, 3]",1.0,1.0,0.4459550380706787,3.084599018096924,0.6584165591011389,,517.0
B,L,"[4, 2]",1.0,2.0,0.19943499565124512,1.9439241886138916,0.7356103984674721,86.0,518.0
G,D,"[5, 2]",1.0,3.0,0.24246907234191895,1.5295729637145996,0.28219644207811284,86.0,519.0
R,U,"[4, 2]",1.0,4.0,0.3251781463623047,1.9620158672332764,0.6274143880241613,86.0,520.0
B,L,"[4, 1]",1.0,5.0,0.18421411514282227,1.8856878280639648,0.6962574446139812,86.0,521.0
Y,R,"[4, 2]",1.0,6.0,0.12838387489318848,1.6534948348999023,0.5167045990067036,86.0,522.0
,,"(3, 3)",,,,,,86.0,
G,D,"[4, 3]",1.0,1.0,0.658621072769165,3.0401558876037598,0.5903014337865597,,523.0
B,L,"[4, 2]",1.0,2.0,0.303286075592041,1.9085781574249268,0.5987838799444145,87.0,524.0
G,D,"[5, 2]",1.0,3.0,0.38678598403930664,2.0064730644226074,0.6052318361549375,87.0,525.0
R,U,"[4, 2]",1.0,4.0,0.21973204612731934,1.7207469940185547,0.49276824076387415,87.0,526.0
B,L,"[4, 1]",1.0,5.0,0.2301020622253418,1.5701830387115479,0.346475057819154,87.0,527.0
Y,R,"[4, 2]",1.0,6.0,0.44978785514831543,2.1714439392089844,0.7009108374241777,87.0,528.0
,,"(3, 3)",,,,,,87.0,
G,D,"[4, 3]",1.0,1.0,0.5320680141448975,2.8981518745422363,0.3328124554644323,,529.0
B,L,"[4, 2]",1.0,2.0,0.2843799591064453,1.728180170059204,0.42761758238585573,88.0,530.0
G,D,"[5, 2]",1.0,3.0,0.32982707023620605,1.9969980716705322,0.6742879166629221,88.0,531.0
R,U,"[4, 2]",1.0,4.0,0.32990384101867676,1.8277521133422852,0.5024837734682102,88.0,532.0
B,L,"[4, 1]",1.0,5.0,0.3032848834991455,1.7384240627288818,0.4242545212032942,88.0,533.0
Y,R,"[4, 2]",1.0,6.0,0.3751997947692871,2.0599660873413086,0.6839526240743068,88.0,534.0
,,"(3, 3)",,,,,,88.0,
G,D,"[4, 3]",1.0,1.0,0.4300079345703125,5.33208703994751,0.532925087507832,,535.0
B,L,"[4, 2]",1.0,2.0,0.26734399795532227,1.7741961479187012,0.4905260088969961,89.0,536.0
G,D,"[5, 2]",1.0,3.0,0.2126319408416748,1.6279280185699463,0.41869720546309147,89.0,537.0
R,U,"[4, 2]",1.0,4.0,0.344357967376709,1.8535029888153076,0.5053024080659846,89.0,538.0
B,L,"[4, 1]",1.0,5.0,0.33391594886779785,1.672408103942871,0.32784667494716657,89.0,539.0
Y,R,"[4, 2]",1.0,6.0,0.5497939586639404,2.2728970050811768,0.7170791073658411,89.0,540.0
,,"(3, 3)",,,,,,89.0,
G,D,"[4, 3]",1.0,1.0,0.7820861339569092,3.2583351135253906,0.5257916412083818,,541.0
B,L,"[4, 2]",1.0,2.0,0.2807941436767578,1.572387933731079,0.2984940021200084,90.0,542.0
G,D,"[5, 2]",1.0,3.0,0.4504568576812744,2.092392921447754,0.6404479367794079,90.0,543.0
R,U,"[4, 2]",1.0,4.0,0.45033907890319824,2.1927530765533447,0.7330818702785883,90.0,544.0
B,L,"[4, 1]",1.0,5.0,0.2671520709991455,1.8815200328826904,0.5982281568381618,90.0,545.0
Y,R,"[4, 2]",1.0,6.0,0.41538190841674805,1.8955228328704834,0.477126116284597,90.0,546.0
,,"(3, 3)",,,,,,90.0,
G,D,"[4, 3]",1.0,1.0,0.9320390224456787,2.861114025115967,0.4550307846498141,,547.0
B,L,"[4, 2]",1.0,2.0,0.30494189262390137,1.6326940059661865,0.3378672112529577,91.0,548.0
G,D,"[5, 2]",1.0,3.0,0.42994093894958496,1.969865083694458,0.5409489388105135,91.0,549.0
R,U,"[4, 2]",1.0,4.0,0.3812849521636963,1.6321451663970947,0.2567558579128352,91.0,550.0
B,L,"[4, 1]",1.0,5.0,0.3629951477050781,2.108733892440796,0.7483564480868388,91.0,551.0
Y,R,"[4, 2]",1.0,6.0,0.41369199752807617,1.8425579071044922,0.42461617327698914,91.0,552.0
,,"(3, 3)",,,,,,91.0,
G,D,"[4, 3]",1.0,1.0,0.5752449035644531,3.0298640727996826,0.6873775069739593,,553.0
B,L,"[4, 2]",1.0,2.0,0.18785500526428223,1.452131986618042,0.256871246868965,92.0,554.0
G,D,"[5, 2]",1.0,3.0,0.36211204528808594,1.8682169914245605,0.5080718388591041,92.0,555.0
R,U,"[4, 2]",1.0,4.0,0.4642601013183594,2.197222948074341,0.7384549699598657,92.0,556.0
B,L,"[4, 1]",1.0,5.0,0.5104770660400391,2.213711977005005,0.7021865394415834,92.0,557.0
Y,R,"[4, 2]",1.0,6.0,0.36074399948120117,1.634840965270996,0.2709927665810272,92.0,558.0
,,"(3, 3)",,,,,,92.0,
G,D,"[4, 3]",1.0,1.0,0.5016140937805176,5.470941066741943,0.558371737547134,,559.0
B,L,"[4, 2]",1.0,2.0,0.3450510501861572,1.8397390842437744,0.4980407758621394,93.0,560.0
G,D,"[5, 2]",1.0,3.0,0.3401648998260498,1.9858410358428955,0.6339005067182018,93.0,561.0
R,U,"[4, 2]",1.0,4.0,0.34905195236206055,2.0381970405578613,0.6719735431934908,93.0,562.0
B,L,"[4, 1]",1.0,5.0,0.26862096786499023,1.9023189544677734,0.6410452978408434,93.0,563.0
Y,R,"[4, 2]",1.0,6.0,0.2506728172302246,1.9961068630218506,0.7370250391481008,93.0,564.0
,,"(3, 3)",,,,,,93.0,
G,D,"[4, 3]",1.0,1.0,0.736832857131958,3.777569055557251,0.4152900785136193,,565.0
B,L,"[4, 2]",1.0,2.0,0.11151885986328125,1.8205621242523193,0.7018981278333547,94.0,566.0
G,D,"[5, 2]",1.0,3.0,0.3669090270996094,1.9747469425201416,0.5935238494522449,94.0,567.0
R,U,"[4, 2]",1.0,4.0,0.14337921142578125,1.843641996383667,0.703975360075445,94.0,568.0
B,L,"[4, 1]",1.0,5.0,0.28748297691345215,1.6246769428253174,0.32872850324541686,94.0,569.0
Y,R,"[4, 2]",1.0,6.0,0.41692590713500977,2.151850938796997,0.7303549329193499,94.0,570.0
,,"(3, 3)",,,,,,94.0,
G,D,"[4, 3]",1.0,1.0,0.7438809871673584,3.841278076171875,0.4887639034300872,,571.0
B,L,"[4, 2]",1.0,2.0,0.40387606620788574,2.142832040786743,0.7311357094330704,95.0,572.0
G,D,"[5, 2]",1.0,3.0,0.3949911594390869,1.8138902187347412,0.41206349486716864,95.0,573.0
R,U,"[4, 2]",1.0,4.0,0.3302178382873535,1.7123448848724365,0.391030113966058,95.0,574.0
B,L,"[4, 1]",1.0,5.0,0.4994361400604248,2.09055495262146,0.5982812376060516,95.0,575.0
Y,R,"[4, 2]",1.0,6.0,0.2295238971710205,1.5293140411376953,0.29460531551961366,95.0,576.0
,,"(3, 3)",,,,,,95.0,
G,D,"[4, 3]",1.0,1.0,0.5295159816741943,3.4065887928009033,0.5342712873496819,,577.0
B,L,"[4, 2]",1.0,2.0,0.3584880828857422,1.7858679294586182,0.4202949651575587,96.0,578.0
G,D,"[5, 2]",1.0,3.0,0.2833139896392822,1.5909137725830078,0.3113323217254673,96.0,579.0
R,U,"[4, 2]",1.0,4.0,0.3367769718170166,1.7741279602050781,0.45195475558702874,96.0,580.0
B,L,"[4, 1]",1.0,5.0,0.2235119342803955,1.584158182144165,0.35297922845639557,96.0,581.0
Y,R,"[4, 2]",1.0,6.0,0.2142040729522705,1.7298691272735596,0.5161206083119865,96.0,582.0
,,"(3, 3)",,,,,,96.0,
G,D,"[4, 3]",1.0,1.0,0.7252058982849121,3.3744468688964844,0.27418730653122997,,583.0
B,L,"[4, 2]",1.0,2.0,0.5934219360351562,2.2394440174102783,0.6465699773341479,97.0,584.0
G,D,"[5, 2]",1.0,3.0,0.3975529670715332,1.8042778968811035,0.40108175464713725,97.0,585.0
R,U,"[4, 2]",1.0,4.0,0.5254940986633301,1.859792947769165,0.3276177762543347,97.0,586.0
B,L,"[4, 1]",1.0,5.0,0.6807379722595215,2.301218032836914,0.6285945325820825,97.0,587.0
Y,R,"[4, 2]",1.0,6.0,0.777799129486084,2.3195488452911377,0.5483387881638788,97.0,588.0
,,"(3, 3)",,,,,,97.0,
G,D,"[4, 3]",1.0,1.0,0.9832231998443604,3.4674019813537598,0.7322575549613359,,589.0
B,L,"[4, 2]",1.0,2.0,0.40782785415649414,1.6785619258880615,0.26128674515089584,98.0,590.0
G,D,"[5, 2]",1.0,3.0,0.4562361240386963,2.2035679817199707,0.7476748268795146,98.0,591.0
R,U,"[4, 2]",1.0,4.0,0.489886999130249,2.1624488830566406,0.6602413729868359,98.0,592.0
B,L,"[4, 1]",1.0,5.0,0.5027179718017578,1.8684899806976318,0.3623956098724239,98.0,593.0
Y,R,"[4, 2]",1.0,6.0,0.7131040096282959,2.229788064956665,0.525516550262535,98.0,594.0
,,"(3, 3)",,,,,,98.0,
G,D,"[4, 3]",1.0,1.0,0.7135539054870605,2.946532964706421,0.388776321514408,,595.0
B,L,"[4, 2]",1.0,2.0,0.4869229793548584,2.117637872695923,0.6228556519034988,99.0,596.0
G,D,"[5, 2]",1.0,3.0,0.4645071029663086,1.7945771217346191,0.33443565510003576,99.0,597.0
R,U,"[4, 2]",1.0,4.0,0.24561095237731934,1.5155019760131836,0.266708815703232,99.0,598.0
B,L,"[4, 1]",1.0,5.0,0.31364893913269043,1.9251959323883057,0.6083032490823714,99.0,599.0
Y,R,"[4, 2]",1.0,6.0,0.2801990509033203,1.9567639827728271,0.6817349828800077,99.0,600.0
,,"(3, 3)",,,,,,99.0,
G,D,"[4, 3]",1.0,1.0,0.6019868850708008,3.3845369815826416,0.4331736655901105,,601.0
B,L,"[4, 2]",1.0,2.0,0.359407901763916,2.1009750366210938,0.7337698228070522,100.0,602.0
G,D,"[5, 2]",1.0,3.0,0.2984349727630615,2.026201009750366,0.7102184244300505,100.0,603.0
R,U,"[4, 2]",1.0,4.0,0.3427398204803467,1.8891239166259766,0.5492451750912268,100.0,604.0
B,L,"[4, 1]",1.0,5.0,0.36890101432800293,1.9181630611419678,0.5344100700016204,100.0,605.0
Y,R,"[4, 2]",1.0,6.0,0.4323098659515381,2.148867130279541,0.7163824832362594,100.0,606.0
,,"(3, 3)",,,,,,100.0,
B,L,"[3, 2]",-1.0,-1.0,0.393779993057251,4.2114880084991455,0.2618529307267838,,607.0
G,D,"[4, 2]",1.0,0.0,0.5404329299926758,1.8960850238800049,0.3578172651701891,101.0,608.0
Y,R,"[4, 3]",1.0,1.0,0.28060293197631836,1.956313133239746,0.6803939507126473,101.0,609.0
R,U,"[3, 3]",-2.0,-1.0,0.2639429569244385,1.6409919261932373,0.35500016319024014,101.0,610.0
B,L,"[3, 2]",-1.0,-2.0,0.306898832321167,1.927628993988037,0.615824356584235,101.0,611.0
R,U,"[2, 2]",-1.0,-3.0,0.2306230068206787,1.8339259624481201,0.5997484353601102,101.0,612.0
,,"(3, 3)",,,,,,101.0,
R,U,"[2, 3]",-1.0,-1.0,0.7654080390930176,3.745047092437744,0.6949259251048128,,613.0
Y,R,"[2, 4]",-1.0,-2.0,0.3159780502319336,1.6168570518493652,0.2954985439477261,102.0,614.0
G,D,"[3, 4]",-1.0,-3.0,0.18557190895080566,1.9248528480529785,0.7367093628297399,102.0,615.0
B,L,"[3, 3]",-2.0,-5.0,0.1670389175415039,1.5992422103881836,0.4194590285876378,102.0,616.0
R,U,"[2, 3]",-1.0,-6.0,0.2581338882446289,1.6041030883789062,0.340414267711539,102.0,617.0
Y,R,"[2, 4]",-1.0,-7.0,0.18358993530273438,1.8498828411102295,0.6567199467072189,102.0,618.0
,,"(3, 3)",,,,,,102.0,
R,U,"[2, 3]",-1.0,-1.0,0.2624208927154541,3.2115650177001953,0.3018493982601614,,619.0
G,D,"[3, 3]",-2.0,-3.0,0.46349406242370605,1.881500005722046,0.4000074362152876,103.0,620.0
G,D,"[4, 3]",1.0,-2.0,0.16937994956970215,1.8035340309143066,0.6366363965421971,103.0,621.0
Y,R,"[4, 4]",-1.0,-3.0,0.19739294052124023,1.7866160869598389,0.5899822598711344,103.0,622.0
B,L,"[4, 3]",1.0,-2.0,0.3063011169433594,1.9602041244506836,0.6501281581740075,103.0,623.0
R,U,"[3, 3]",-2.0,-4.0,0.25354814529418945,1.9965360164642334,0.7299207069103812,103.0,624.0
,,"(3, 3)",,,,,,103.0,
Y,R,"[3, 4]",-1.0,-1.0,0.19243884086608887,2.9283461570739746,0.5418303586540206,,625.0
G,D,"[4, 4]",-1.0,-2.0,0.44698500633239746,1.7403059005737305,0.2990958673065486,104.0,626.0
G,D,"[5, 4]",-1.0,-3.0,0.15531706809997559,1.8712499141693115,0.703161595245178,104.0,627.0
B,L,"[5, 3]",1.0,-2.0,0.22654414176940918,1.5026741027832031,0.2732031168099744,104.0,628.0
R,U,"[4, 3]",1.0,-1.0,0.22864603996276855,1.5391919612884521,0.31232289563585125,104.0,629.0
G,D,"[5, 3]",1.0,0.0,0.4874129295349121,1.7398948669433594,0.2522495715169898,104.0,630.0
,,"(3, 3)",,,,,,104.0,
G,D,"[4, 3]",1.0,1.0,0.7077178955078125,3.732758045196533,0.26837967227940535,,631.0
Y,R,"[4, 4]",-1.0,0.0,0.26908087730407715,1.5766959190368652,0.2953038309948772,105.0,632.0
Y,R,"[4, 5]",-1.0,-1.0,0.8344728946685791,2.0927491188049316,0.254591551615408,105.0,633.0
B,L,"[4, 4]",-1.0,-2.0,0.17667508125305176,1.7956700325012207,0.6164712778691676,105.0,634.0
R,U,"[3, 4]",-1.0,-3.0,0.19163990020751953,1.6568222045898438,0.4569498109550447,105.0,635.0
G,D,"[4, 4]",-1.0,-4.0,0.26275205612182617,1.9467408657073975,0.6866989297755809,105.0,636.0
,,"(3, 3)",,,,,,105.0,
R,U,"[2, 3]",-1.0,-1.0,0.7032248973846436,2.551478862762451,0.2886594554674103,,637.0
Y,R,"[2, 4]",-1.0,-2.0,0.22880101203918457,1.625298023223877,0.3971099142824346,106.0,638.0
G,D,"[3, 4]",-1.0,-3.0,0.1528489589691162,1.498668909072876,0.32945156655899926,106.0,639.0
B,L,"[3, 3]",-2.0,-5.0,0.15343117713928223,1.764753818511963,0.6105040620810811,106.0,640.0
G,D,"[4, 3]",-1.0,-5.0,0.07663798332214355,5.767009019851685,0.5445914820890424,106.0,641.0
G,D,"[5, 3]",1.0,-4.0,0.35823798179626465,1.9451141357421875,0.5894144110447151,106.0,642.0
,,"(3, 3)",,,,,,106.0,
R,U,"[2, 3]",-1.0,-1.0,0.7918660640716553,5.458664894104004,0.4982489576983169,,643.0
Y,R,"[2, 4]",-1.0,-2.0,0.2027301788330078,1.589709997177124,0.37127224485664223,107.0,644.0
G,D,"[3, 4]",-1.0,-3.0,0.15153908729553223,1.500744104385376,0.33871949456172284,107.0,645.0
B,L,"[3, 3]",-2.0,-5.0,0.17365694046020508,1.89044189453125,0.7123817057159763,107.0,646.0
B,L,"[3, 2]",-1.0,-6.0,0.18097615242004395,1.623297929763794,0.4359310853167065,107.0,647.0
B,L,"[3, 1]",1.0,-5.0,0.21102690696716309,1.8588509559631348,0.6446798576178492,107.0,648.0
,,"(3, 3)",,,,,,107.0,
R,U,"[2, 3]",-1.0,-1.0,0.4236788749694824,3.7410168647766113,0.40254711946653643,,649.0
Y,R,"[2, 4]",-1.0,-2.0,0.276231050491333,1.7481780052185059,0.4673545872697028,108.0,650.0
G,D,"[3, 4]",-1.0,-3.0,0.18236398696899414,1.9258151054382324,0.7263697880195653,108.0,651.0
G,D,"[4, 4]",-1.0,-4.0,0.22606110572814941,1.9231579303741455,0.6994353508692615,108.0,652.0
Y,R,"[4, 5]",-1.0,-5.0,0.2534499168395996,1.747636079788208,0.48077615845271143,108.0,653.0
B,L,"[4, 4]",-1.0,-6.0,0.16368794441223145,1.835988998413086,0.6667586682645625,108.0,654.0
,,"(3, 3)",,,,,,108.0,
R,U,"[2, 3]",-1.0,-1.0,0.5812687873840332,2.796747922897339,0.4968609883822008,,655.0
G,D,"[3, 3]",-2.0,-3.0,0.41920995712280273,1.8676559925079346,0.43132490008562907,109.0,656.0
Y,R,"[3, 4]",-1.0,-4.0,0.44203996658325195,2.007539987564087,0.5554876935856563,109.0,657.0
G,D,"[4, 4]",-1.0,-5.0,0.10011792182922363,1.8015849590301514,0.690175088942895,109.0,658.0
B,L,"[4, 3]",-1.0,-5.0,0.04912996292114258,5.703036069869995,0.5267873288852424,109.0,659.0
B,L,"[4, 2]",1.0,-4.0,0.31374692916870117,1.9236681461334229,0.6004497382714429,109.0,660.0
,,"(3, 3)",,,,,,109.0,
Y,R,"[3, 4]",-1.0,-1.0,0.3563990592956543,5.070404052734375,0.5876411683166124,,661.0
G,D,"[4, 4]",-1.0,-2.0,0.22849297523498535,1.7231090068817139,0.4941652191670653,110.0,662.0
R,U,"[3, 4]",-1.0,-3.0,0.15774083137512207,1.5442039966583252,0.38846959037420203,110.0,663.0
G,D,"[4, 4]",-1.0,-4.0,0.16467714309692383,1.49583101272583,0.33443731248726677,110.0,664.0
Y,R,"[4, 5]",-1.0,-5.0,0.14483213424682617,1.570082187652588,0.4210496796926504,110.0,665.0
B,L,"[4, 4]",-1.0,-6.0,0.17320799827575684,1.7870509624481201,0.6082132980992698,110.0,666.0
,,"(3, 3)",,,,,,110.0,
Y,R,"[3, 4]",-1.0,-1.0,0.6749169826507568,4.0912861824035645,0.699559933548055,,667.0
G,D,"[4, 4]",-1.0,-2.0,0.13683199882507324,1.7718489170074463,0.6212170420895522,111.0,668.0
R,U,"[3, 4]",-1.0,-3.0,0.13639497756958008,1.6283330917358398,0.4829522335045219,111.0,669.0
G,D,"[4, 4]",-1.0,-4.0,0.34323978424072266,1.6920220851898193,0.3418979237761798,111.0,670.0
Y,R,"[4, 5]",-1.0,-5.0,0.18311095237731934,1.9206619262695312,0.7289660713994357,111.0,671.0
B,L,"[4, 4]",-1.0,-6.0,0.16137909889221191,1.5215659141540527,0.36741468392021487,111.0,672.0
,,"(3, 3)",,,,,,111.0,
G,D,"[4, 3]",1.0,1.0,0.2192370891571045,2.208420991897583,0.3592587858320827,,673.0
Y,R,"[4, 4]",-1.0,1.0,0.018053770065307617,5.818402051925659,0.6774920422819193,112.0,674.0
B,L,"[4, 3]",1.0,2.0,0.16746997833251953,1.582007884979248,0.40977184246729365,112.0,675.0
R,U,"[3, 3]",-2.0,0.0,0.2542998790740967,1.8744869232177734,0.6174531573735249,112.0,676.0
G,D,"[4, 3]",1.0,1.0,0.19506502151489258,1.6126561164855957,0.4136014655342898,112.0,677.0
Y,R,"[4, 4]",-1.0,0.0,0.13350391387939453,1.8022000789642334,0.6488883418210278,112.0,678.0
,,"(3, 3)",,,,,,112.0,
G,D,"[4, 3]",1.0,1.0,0.2669210433959961,3.0178909301757812,0.61674668728817,,679.0
R,U,"[3, 3]",-2.0,-1.0,0.18187808990478516,1.5270328521728516,0.34417408039980435,113.0,680.0
B,L,"[3, 2]",-1.0,-2.0,0.22447896003723145,1.7209529876708984,0.49842347495635136,113.0,681.0
B,L,"[3, 1]",1.0,-1.0,0.3418128490447998,1.8609991073608398,0.5093645280672283,113.0,682.0
G,D,"[4, 1]",1.0,0.0,0.17104792594909668,1.8670320510864258,0.6928597027730494,113.0,683.0
Y,R,"[4, 2]",1.0,1.0,0.15957283973693848,1.6756370067596436,0.518729694361975,113.0,684.0
,,"(3, 3)",,,,,,113.0,
G,D,"[4, 3]",1.0,1.0,0.27113986015319824,2.8180220127105713,0.37024662400737696,,685.0
R,U,"[3, 3]",-2.0,-1.0,0.21546196937561035,1.8223450183868408,0.5924060377317093,114.0,686.0
Y,R,"[3, 4]",-1.0,-2.0,0.23108792304992676,1.8191208839416504,0.5782702224536584,114.0,687.0
B,L,"[3, 3]",-2.0,-4.0,0.17747187614440918,1.478714942932129,0.30730820609782017,114.0,688.0
B,L,"[3, 2]",-1.0,-5.0,0.18940401077270508,1.6941652297973633,0.5012254381852319,114.0,689.0
B,L,"[3, 1]",1.0,-4.0,0.10900712013244629,1.6621639728546143,0.5467315390221348,114.0,690.0
,,"(3, 3)",,,,,,114.0,
G,D,"[4, 3]",1.0,1.0,0.39971184730529785,3.210041046142578,0.2572023652345807,,691.0
B,L,"[4, 2]",1.0,2.0,0.35462403297424316,1.707345962524414,0.3477845485809624,115.0,692.0
R,U,"[3, 2]",-1.0,1.0,0.18996691703796387,1.5108778476715088,0.30870416015667246,115.0,693.0
B,L,"[3, 1]",1.0,2.0,0.5621681213378906,2.1826698780059814,0.6242338480536946,115.0,694.0
G,D,"[4, 1]",1.0,3.0,0.19174814224243164,1.8649280071258545,0.6726507463558902,115.0,695.0
B,L,"[4, 0]",0.0,3.0,0.223067045211792,1.657261848449707,0.4301097020831997,115.0,696.0
,,"(3, 3)",,,,,,115.0,
G,D,"[4, 3]",1.0,1.0,0.35849595069885254,3.211879014968872,0.375610695675273,,697.0
Y,R,"[4, 4]",-1.0,0.0,0.14362096786499023,1.7250709533691406,0.5835416549843668,116.0,698.0
B,L,"[4, 3]",1.0,1.0,0.307297945022583,1.6225810050964355,0.3065662029506299,116.0,699.0
R,U,"[3, 3]",-2.0,-1.0,0.8487949371337891,2.110502004623413,0.2506427565793035,116.0,700.0
B,L,"[3, 2]",-1.0,-2.0,0.6210699081420898,2.0651490688323975,0.4488722677590749,116.0,701.0
G,D,"[4, 2]",1.0,-1.0,0.1564791202545166,1.5299360752105713,0.3621610957546951,116.0,702.0
,,"(3, 3)",,,,,,116.0,
G,D,"[4, 3]",1.0,1.0,0.20014190673828125,2.80308198928833,0.3152586194246414,,703.0
B,L,"[4, 2]",1.0,2.0,0.26975202560424805,1.8258259296417236,0.5409803669388762,117.0,704.0
G,D,"[5, 2]",1.0,3.0,0.1766071319580078,1.4545111656188965,0.27920475811029927,117.0,705.0
G,D,"[6, 2]",0.0,3.0,0.20972394943237305,1.699342966079712,0.49487079021152774,117.0,706.0
Y,R,"[6, 3]",0.0,3.0,0.18706703186035156,1.9489970207214355,0.743759909896332,117.0,707.0
G,D,"[6, 3]",0.0,3.0,0.1610400676727295,1.6718759536743164,0.5157906296033157,117.0,708.0
,,"(3, 3)",,,,,,117.0,
G,D,"[4, 3]",1.0,1.0,0.20738792419433594,3.028665781021118,0.34466420022450206,,709.0
B,L,"[4, 2]",1.0,2.0,0.3931541442871094,2.0083439350128174,0.6194792948697552,118.0,710.0
G,D,"[5, 2]",1.0,3.0,0.26332902908325195,1.9398748874664307,0.6760133058419329,118.0,711.0
Y,R,"[5, 3]",1.0,4.0,0.47618699073791504,2.0727880001068115,0.5989966816531104,118.0,712.0
B,L,"[5, 2]",1.0,5.0,0.1969470977783203,1.5199689865112305,0.31923311137613436,118.0,713.0
G,D,"[6, 2]",0.0,5.0,0.2724440097808838,1.7629201412200928,0.4820123765618703,118.0,714.0
,,"(3, 3)",,,,,,118.0,
G,D,"[4, 3]",1.0,1.0,0.23029088973999023,2.4484798908233643,0.4138405683295576,,715.0
B,L,"[4, 2]",1.0,2.0,0.3497340679168701,1.6491079330444336,0.27982378812320025,119.0,716.0
G,D,"[5, 2]",1.0,3.0,0.3057861328125,2.0383009910583496,0.7176665149517576,119.0,717.0
Y,R,"[5, 3]",1.0,4.0,0.3235630989074707,2.0452170372009277,0.7130000408732209,119.0,718.0
B,L,"[5, 2]",1.0,5.0,0.18263602256774902,1.7762649059295654,0.5726291666836694,119.0,719.0
R,U,"[4, 2]",1.0,6.0,0.5551872253417969,1.9873290061950684,0.42683778059718475,119.0,720.0
,,"(3, 3)",,,,,,119.0,
G,D,"[4, 3]",1.0,1.0,0.2548069953918457,2.7206549644470215,0.41446228352751685,,721.0
B,L,"[4, 2]",1.0,2.0,0.2504110336303711,1.877317190170288,0.6085370948280537,120.0,722.0
G,D,"[5, 2]",1.0,3.0,0.17385196685791016,1.802398920059204,0.6272459938609165,120.0,723.0
Y,R,"[5, 3]",1.0,4.0,0.45499706268310547,1.7692599296569824,0.313381921872271,120.0,724.0
B,L,"[5, 2]",1.0,5.0,0.19484496116638184,1.6999940872192383,0.4965321225022138,120.0,725.0
R,U,"[4, 2]",1.0,6.0,0.24182796478271484,1.8043930530548096,0.5509112133745037,120.0,726.0
,,"(3, 3)",,,,,,120.0,
G,D,"[4, 3]",1.0,1.0,0.37286806106567383,2.455063819885254,0.4231264976921138,,727.0
B,L,"[4, 2]",1.0,2.0,0.31174302101135254,1.647273063659668,0.3369956260108331,121.0,728.0
G,D,"[5, 2]",1.0,3.0,0.22008204460144043,1.5064749717712402,0.2768036995112485,121.0,729.0
Y,R,"[5, 3]",1.0,4.0,0.4499218463897705,2.1489641666412354,0.69245140130195,121.0,730.0
B,L,"[5, 2]",1.0,5.0,0.1641240119934082,1.5055110454559326,0.34787740195424965,121.0,731.0
R,U,"[4, 2]",1.0,6.0,0.14858388900756836,1.599905014038086,0.44772322427404704,121.0,732.0
,,"(3, 3)",,,,,,121.0,
G,D,"[4, 3]",1.0,1.0,0.26763391494750977,3.5817599296569824,0.6960203426469023,,733.0
B,L,"[4, 2]",1.0,2.0,0.1488969326019287,1.8934621810913086,0.7393914210170387,122.0,734.0
G,D,"[5, 2]",1.0,3.0,0.21097683906555176,1.6703479290008545,0.4600536258891123,122.0,735.0
Y,R,"[5, 3]",1.0,4.0,0.3052968978881836,1.9938549995422363,0.6869754682448936,122.0,736.0
B,L,"[5, 2]",1.0,5.0,0.15649199485778809,1.854140043258667,0.6913019218104506,122.0,737.0
R,U,"[4, 2]",1.0,6.0,0.17545795440673828,1.6037321090698242,0.4286874850932575,122.0,738.0
,,"(3, 3)",,,,,,122.0,
G,D,"[4, 3]",1.0,1.0,0.3616471290588379,7.1321539878845215,0.6605765120208626,,739.0
B,L,"[4, 2]",1.0,2.0,0.2555880546569824,1.7801730632781982,0.5242746549377062,123.0,740.0
G,D,"[5, 2]",1.0,3.0,0.1992959976196289,1.7661449909210205,0.5737695047484281,123.0,741.0
Y,R,"[5, 3]",1.0,4.0,0.2695639133453369,1.7781479358673096,0.5019750893599093,123.0,742.0
B,L,"[5, 2]",1.0,5.0,0.33223891258239746,2.018449068069458,0.6868725824508584,123.0,743.0
R,U,"[4, 2]",1.0,6.0,0.2091219425201416,1.9341340065002441,0.7209970343629082,123.0,744.0
,,"(3, 3)",,,,,,123.0,
G,D,"[4, 3]",1.0,1.0,0.32155394554138184,2.8595898151397705,0.5975751070298918,,745.0
B,L,"[4, 2]",1.0,2.0,0.30878686904907227,1.5796949863433838,0.2608338635015161,124.0,746.0
G,D,"[5, 2]",1.0,3.0,0.47233104705810547,1.8589510917663574,0.3864195732970495,124.0,747.0
Y,R,"[5, 3]",1.0,4.0,0.26158881187438965,1.6750471591949463,0.4114092048406259,124.0,748.0
B,L,"[5, 2]",1.0,5.0,0.2210230827331543,1.8084990978240967,0.586590249303351,124.0,749.0
R,U,"[4, 2]",1.0,6.0,0.22959685325622559,1.6359620094299316,0.40597580098939956,124.0,750.0
,,"(3, 3)",,,,,,124.0,
G,D,"[4, 3]",1.0,1.0,0.37099194526672363,2.6533141136169434,0.6922375159844455,,751.0
B,L,"[4, 2]",1.0,2.0,0.20324182510375977,1.9270811080932617,0.7193991746509798,125.0,752.0
G,D,"[5, 2]",1.0,3.0,0.259929895401001,1.7691149711608887,0.5053239689444176,125.0,753.0
Y,R,"[5, 3]",1.0,4.0,0.20344209671020508,1.9162490367889404,0.7048371500260933,125.0,754.0
B,L,"[5, 2]",1.0,5.0,0.20203185081481934,1.5122339725494385,0.30086571700958015,125.0,755.0
R,U,"[4, 2]",1.0,6.0,0.2571239471435547,1.660187005996704,0.39436808828918923,125.0,756.0
,,"(3, 3)",,,,,,125.0,
G,D,"[4, 3]",1.0,1.0,0.3067598342895508,2.5174760818481445,0.32881861220274367,,757.0
B,L,"[4, 2]",1.0,2.0,0.21393609046936035,1.9462311267852783,0.7412175382518703,126.0,758.0
G,D,"[5, 2]",1.0,3.0,0.4736490249633789,2.0939531326293945,0.6186207546597846,126.0,759.0
Y,R,"[5, 3]",1.0,4.0,0.23764705657958984,1.5690360069274902,0.33780266259703057,126.0,760.0
B,L,"[5, 2]",1.0,5.0,0.4063239097595215,1.8388841152191162,0.4266986011197246,126.0,761.0
R,U,"[4, 2]",1.0,6.0,0.2547578811645508,1.8210999965667725,0.5643792101875784,126.0,762.0
,,"(3, 3)",,,,,,126.0,
G,D,"[4, 3]",1.0,1.0,0.346498966217041,2.8048691749572754,0.43606110511184865,,763.0
B,L,"[4, 2]",1.0,2.0,0.19461393356323242,1.4651880264282227,0.2680518504263524,127.0,764.0
G,D,"[5, 2]",1.0,3.0,0.5870819091796875,2.279026985168457,0.6803131616820672,127.0,765.0
Y,R,"[5, 3]",1.0,4.0,0.40585899353027344,1.8148322105407715,0.39530972124471647,127.0,766.0
B,L,"[5, 2]",1.0,5.0,0.2710099220275879,1.8626289367675781,0.59093538363638,127.0,767.0
R,U,"[4, 2]",1.0,6.0,0.21441292762756348,1.8730320930480957,0.663934761829033,127.0,768.0
,,"(3, 3)",,,,,,127.0,
G,D,"[4, 3]",1.0,1.0,0.39914393424987793,2.9482431411743164,0.6121518838420972,,769.0
B,L,"[4, 2]",1.0,2.0,0.24173498153686523,1.5964620113372803,0.35903208295596023,128.0,770.0
G,D,"[5, 2]",1.0,3.0,0.3187069892883301,1.9910531044006348,0.6664440077872145,128.0,771.0
Y,R,"[5, 3]",1.0,4.0,0.5008931159973145,1.9644989967346191,0.44790553223982493,128.0,772.0
B,L,"[5, 2]",1.0,5.0,0.26735901832580566,1.7274298667907715,0.4420382985270901,128.0,773.0
R,U,"[4, 2]",1.0,6.0,0.27967286109924316,1.5988409519195557,0.32433275948286494,128.0,774.0
,,"(3, 3)",,,,,,128.0,
G,D,"[4, 3]",1.0,1.0,0.4514470100402832,2.8575599193573,0.3321154043105721,,775.0
B,L,"[4, 2]",1.0,2.0,0.2860288619995117,1.5804789066314697,0.27915564244652064,129.0,776.0
G,D,"[5, 2]",1.0,3.0,0.24641203880310059,1.6528739929199219,0.4153829281637547,129.0,777.0
Y,R,"[5, 3]",1.0,4.0,0.2838480472564697,2.0188748836517334,0.7172634140899807,129.0,778.0
B,L,"[5, 2]",1.0,5.0,0.3082280158996582,1.7530581951141357,0.4372444146496091,129.0,779.0
R,U,"[4, 2]",1.0,6.0,0.5906980037689209,2.1537859439849854,0.5574774737165584,129.0,780.0
,,"(3, 3)",,,,,,129.0,
G,D,"[4, 3]",1.0,1.0,0.2899439334869385,3.344355821609497,0.28562469973511573,,781.0
B,L,"[4, 2]",1.0,2.0,0.2624680995941162,1.5682718753814697,0.303882603456632,130.0,782.0
G,D,"[5, 2]",1.0,3.0,0.23615813255310059,1.656615972518921,0.4103632894834687,130.0,783.0
Y,R,"[5, 3]",1.0,4.0,0.16204380989074707,1.7407550811767578,0.5843495173356238,130.0,784.0
B,L,"[5, 2]",1.0,5.0,0.1772167682647705,1.5620760917663574,0.37996904614181837,130.0,785.0
R,U,"[4, 2]",1.0,6.0,0.26874399185180664,1.714750051498413,0.4281537272762602,130.0,786.0
,,"(3, 3)",,,,,,130.0,
G,D,"[4, 3]",1.0,1.0,0.26256299018859863,17.000128030776978,0.6282255293338852,,787.0
B,L,"[4, 2]",1.0,2.0,0.4040369987487793,1.778385877609253,0.3736014082320146,131.0,788.0
G,D,"[5, 2]",1.0,3.0,0.39470505714416504,1.9233450889587402,0.529889937781165,131.0,789.0
Y,R,"[5, 3]",1.0,4.0,0.1976170539855957,1.7282931804656982,0.5249714127027956,131.0,790.0
B,L,"[5, 2]",1.0,5.0,0.3269200325012207,1.6560289859771729,0.33125326686473683,131.0,791.0
R,U,"[4, 2]",1.0,6.0,0.29137086868286133,2.00140118598938,0.6990506662081686,131.0,792.0
,,"(3, 3)",,,,,,131.0,
G,D,"[4, 3]",1.0,1.0,0.8313498497009277,3.4057579040527344,0.4883537069784434,,793.0
B,L,"[4, 2]",1.0,2.0,0.33034396171569824,1.6481850147247314,0.32019248044506876,132.0,794.0
G,D,"[5, 2]",1.0,3.0,0.4065358638763428,1.8406140804290771,0.4272823009459352,132.0,795.0
Y,R,"[5, 3]",1.0,4.0,0.3382530212402344,1.97678804397583,0.6371879430821246,132.0,796.0
B,L,"[5, 2]",1.0,5.0,0.33887696266174316,1.9256300926208496,0.5798752007108894,132.0,797.0
R,U,"[4, 2]",1.0,6.0,0.34888696670532227,2.0718350410461426,0.7179975887180744,132.0,798.0
,,"(3, 3)",,,,,,132.0,
G,D,"[4, 3]",1.0,1.0,0.7572948932647705,3.795307159423828,0.3970021387695373,,799.0
B,L,"[4, 2]",1.0,2.0,0.30404210090637207,2.013366937637329,0.6933778598050138,133.0,800.0
G,D,"[5, 2]",1.0,3.0,0.20821189880371094,1.5279860496520996,0.3219580221555481,133.0,801.0
Y,R,"[5, 3]",1.0,4.0,0.2802550792694092,1.6322519779205322,0.3540902894716097,133.0,802.0
B,L,"[5, 2]",1.0,5.0,0.33764100074768066,1.6350009441375732,0.2890863085593988,133.0,803.0
R,U,"[4, 2]",1.0,6.0,0.488361120223999,1.866858959197998,0.37266157724828286,133.0,804.0
,,"(3, 3)",,,,,,133.0,
B,L,"[3, 2]",-1.0,-1.0,0.713435173034668,2.7748141288757324,0.4973959638515531,,805.0
B,L,"[3, 1]",1.0,0.0,0.1476891040802002,1.8649029731750488,0.6955821291022835,134.0,806.0
G,D,"[4, 1]",-1.0,-1.0,0.18658089637756348,1.7683780193328857,0.5806702601228457,134.0,807.0
Y,R,"[4, 2]",-1.0,-2.0,0.22636008262634277,1.5576789379119873,0.322048836196629,134.0,808.0
B,L,"[4, 1]",-1.0,-3.0,0.19640588760375977,1.4541218280792236,0.25950566900168964,134.0,809.0
R,U,"[3, 1]",1.0,-2.0,0.18646717071533203,1.5346038341522217,0.34401419083445867,134.0,810.0
,,"(3, 3)",,,,,,134.0,
G,D,"[4, 3]",-1.0,-1.0,0.5982131958007812,3.251422882080078,0.5619255276563447,,811.0
B,L,"[4, 2]",-1.0,-1.0,0.09127020835876465,5.552173852920532,0.3311605396611317,135.0,812.0
B,L,"[4, 1]",-1.0,-2.0,0.43483495712280273,1.8521089553833008,0.3996821749345678,135.0,813.0
R,U,"[3, 1]",1.0,-1.0,0.3758211135864258,1.915196180343628,0.5315497417217216,135.0,814.0
Y,R,"[3, 2]",-1.0,-2.0,0.1799778938293457,1.5143799781799316,0.2962818374429701,135.0,815.0
G,D,"[4, 2]",-1.0,-3.0,0.19624614715576172,1.6371500492095947,0.44993098641172663,135.0,816.0
,,"(3, 3)",,,,,,135.0,
Y,R,"[3, 4]",-1.0,-1.0,0.22185707092285156,4.507948160171509,0.308191109024945,,817.0
R,U,"[2, 4]",-1.0,-2.0,0.3146090507507324,2.026669979095459,0.7176872331135297,136.0,818.0
G,D,"[3, 4]",-1.0,-3.0,0.3242669105529785,1.8154120445251465,0.48330566506589945,136.0,819.0
B,L,"[3, 3]",-2.0,-5.0,0.1811079978942871,1.826427936553955,0.6264119134268746,136.0,820.0
R,U,"[2, 3]",1.0,-4.0,0.17022013664245605,1.4435369968414307,0.27027962725106613,136.0,821.0
Y,R,"[2, 4]",-1.0,-5.0,0.23719000816345215,1.6104180812835693,0.36389455677486954,136.0,822.0
,,"(3, 3)",,,,,,136.0,
G,D,"[4, 3]",-1.0,-1.0,0.4100320339202881,3.782073974609375,0.31285181671081763,,823.0
R,U,"[3, 3]",-2.0,-3.0,0.2628159523010254,1.9746198654174805,0.7036225844978952,137.0,824.0
B,L,"[3, 2]",-1.0,-4.0,0.11966490745544434,1.5070970058441162,0.37782061654546384,137.0,825.0
Y,R,"[3, 3]",-2.0,-6.0,0.33463287353515625,1.864211082458496,0.5252763984164299,137.0,826.0
R,U,"[2, 3]",1.0,-5.0,0.15364599227905273,1.492521047592163,0.3347053988818216,137.0,827.0
G,D,"[3, 3]",-2.0,-7.0,0.1671590805053711,1.7700769901275635,0.5877711649138029,137.0,828.0
,,"(3, 3)",,,,,,137.0,
Y,R,"[3, 4]",-2.0,0.0,1.2678029537200928,3.611618995666504,0.43304410959750056,,829.0
G,D,"[4, 4]",-1.0,-1.0,0.5730409622192383,2.0286810398101807,0.44502825141544755,138.0,830.0
B,L,"[4, 3]",-1.0,-2.0,0.18645882606506348,1.9292659759521484,0.7406105603076922,138.0,831.0
G,D,"[5, 3]",-1.0,-3.0,0.5941729545593262,2.236842155456543,0.644333183241055,138.0,832.0
R,U,"[4, 3]",-1.0,-4.0,0.14296507835388184,1.862813949584961,0.7236556066699874,138.0,833.0
Y,R,"[4, 4]",-1.0,-5.0,0.31644296646118164,1.9905428886413574,0.6644280783397359,138.0,834.0
,,"(3, 3)",,,,,,138.0,
G,D,"[4, 3]",-1.0,-1.0,0.4493420124053955,15.375802040100098,0.274129941945822,,835.0
B,L,"[4, 2]",-1.0,-2.0,0.18410396575927734,1.6886060237884521,0.49592322193555255,139.0,836.0
Y,R,"[4, 3]",-1.0,-3.0,0.318774938583374,1.6847310066223145,0.3641489843001155,139.0,837.0
Y,R,"[4, 4]",-1.0,-4.0,0.11088705062866211,1.5267901420593262,0.4075050631978153,139.0,838.0
B,L,"[4, 3]",-1.0,-5.0,0.20236706733703613,1.880068063735962,0.6707684268758476,139.0,839.0
R,U,"[3, 3]",-2.0,-7.0,0.2140500545501709,1.608997106552124,0.37999143807678454,139.0,840.0
,,"(3, 3)",,,,,,139.0,
B,L,"[3, 2]",-2.0,0.0,1.3072209358215332,4.26997709274292,0.4334444779579178,,841.0
G,D,"[4, 2]",-1.0,-1.0,0.3798489570617676,1.784754991531372,0.38480070900828056,140.0,842.0
R,U,"[3, 2]",-1.0,-2.0,0.19849681854248047,1.9170291423797607,0.7181809973463591,140.0,843.0
R,U,"[2, 2]",-1.0,-2.0,0.07995104789733887,5.631741046905518,0.40022710934411915,140.0,844.0
B,L,"[2, 1]",1.0,-1.0,0.6048979759216309,2.0971591472625732,0.4808374514388115,140.0,845.0
R,U,"[1, 1]",1.0,0.0,0.17092609405517578,1.5388209819793701,0.3531824709892852,140.0,846.0
,,"(3, 3)",,,,,,140.0,
G,D,"[4, 3]",-1.0,-1.0,0.4711627960205078,4.680584907531738,0.3005794822640211,,847.0
Y,R,"[4, 4]",-1.0,-2.0,0.31160902976989746,1.668287992477417,0.3519947860073623,141.0,848.0
G,D,"[5, 4]",-1.0,-3.0,0.15984296798706055,1.7856988906860352,0.6209811225945638,141.0,849.0
B,L,"[5, 3]",-1.0,-4.0,0.15652704238891602,1.4147899150848389,0.25265535349819335,141.0,850.0
B,L,"[5, 2]",-1.0,-5.0,0.28405308723449707,1.9053878784179688,0.6077445084480834,141.0,851.0
R,U,"[4, 2]",-1.0,-6.0,0.2789788246154785,1.594693899154663,0.319507430095913,141.0,852.0
,,"(3, 3)",,,,,,141.0,
G,D,"[4, 3]",-1.0,-1.0,0.8804678916931152,2.3799149990081787,0.2661304164788297,,853.0
R,U,"[3, 3]",-1.0,-1.0,0.010067939758300781,5.833962917327881,0.6997131300308344,142.0,854.0
R,U,"[2, 3]",1.0,0.0,0.15981101989746094,1.5806210041046143,0.4139444831897338,142.0,855.0
Y,R,"[2, 4]",-1.0,-1.0,0.29038405418395996,1.6874439716339111,0.3848983163963801,142.0,856.0
G,D,"[3, 4]",-1.0,-2.0,0.3149440288543701,1.9274351596832275,0.6121096366042316,142.0,857.0
B,L,"[3, 3]",-2.0,-4.0,0.26858997344970703,1.7770190238952637,0.5058225987671554,142.0,858.0
,,"(3, 3)",,,,,,142.0,
G,D,"[4, 3]",-1.0,-1.0,0.2584860324859619,4.269054174423218,0.34190257620970216,,859.0
R,U,"[3, 3]",-2.0,-3.0,0.15787792205810547,1.865962028503418,0.7079082087246238,143.0,860.0
B,L,"[3, 2]",-1.0,-4.0,0.18205714225769043,1.772381067276001,0.5800185772268287,143.0,861.0
G,D,"[4, 2]",-1.0,-5.0,0.10517311096191406,1.6999289989471436,0.5799415822652216,143.0,862.0
Y,R,"[4, 3]",-1.0,-6.0,0.17780780792236328,1.682769775390625,0.4961156453297077,143.0,863.0
R,U,"[3, 3]",-2.0,-8.0,0.1875760555267334,1.513401985168457,0.30970863327036097,143.0,864.0
,,"(3, 3)",,,,,,143.0,
G,D,"[4, 3]",-1.0,-1.0,0.6568880081176758,4.27165412902832,0.6810433807981681,,865.0
Y,R,"[4, 4]",-1.0,-2.0,0.2354428768157959,1.5481510162353516,0.29636553044379077,144.0,866.0
Y,R,"[4, 5]",-1.0,-3.0,0.20219087600708008,1.5659210681915283,0.34565580455657785,144.0,867.0
Y,R,"[4, 6]",0.0,-3.0,0.1477510929107666,1.388869047164917,0.2511682372367619,144.0,868.0
B,L,"[4, 5]",-1.0,-4.0,0.25156188011169434,1.7281010150909424,0.4624306729593001,144.0,869.0
R,U,"[3, 5]",-1.0,-5.0,0.14997196197509766,1.7005319595336914,0.5461983719002825,144.0,870.0
,,"(3, 3)",,,,,,144.0,
R,U,"[2, 3]",1.0,1.0,0.39905309677124023,2.7880260944366455,0.5177994836901862,,871.0
G,D,"[3, 3]",-2.0,-1.0,0.1260511875152588,1.5961859226226807,0.46391444710800545,145.0,872.0
R,U,"[2, 3]",-1.0,-1.0,0.053457021713256836,5.496135950088501,0.3102517676340363,145.0,873.0
B,L,"[2, 2]",1.0,0.0,0.18344902992248535,1.5133521556854248,0.32363548843583045,145.0,874.0
G,D,"[3, 2]",-1.0,-1.0,0.20757794380187988,1.5467360019683838,0.3370074315130161,145.0,875.0
Y,R,"[3, 3]",-2.0,-3.0,0.12455415725708008,1.62176513671875,0.49201241084747827,145.0,876.0
,,"(3, 3)",,,,,,145.0,
R,U,"[2, 3]",1.0,1.0,0.6588320732116699,2.8072330951690674,0.5659812071892028,,877.0
Y,R,"[2, 4]",-1.0,0.0,0.1683659553527832,1.9099071025848389,0.7256139785152288,146.0,878.0
G,D,"[3, 4]",-1.0,-1.0,0.15764403343200684,1.6285030841827393,0.4710258015915576,146.0,879.0
B,L,"[3, 3]",-2.0,-3.0,0.5669398307800293,2.1103789806365967,0.5314283917574418,146.0,880.0
B,L,"[3, 2]",-1.0,-4.0,0.16359686851501465,1.8389909267425537,0.6538215513492509,146.0,881.0
G,D,"[4, 2]",-1.0,-5.0,0.2321319580078125,1.7364189624786377,0.49031652003527737,146.0,882.0
,,"(3, 3)",,,,,,146.0,
R,U,"[2, 3]",1.0,1.0,0.7542431354522705,2.701812982559204,0.7085868890220752,,883.0
R,U,"[1, 3]",-1.0,0.0,0.1761329174041748,1.4498391151428223,0.2755453677852395,147.0,884.0
G,D,"[2, 3]",1.0,1.0,0.256990909576416,1.8534879684448242,0.5954305411519821,147.0,885.0
B,L,"[2, 2]",1.0,2.0,0.1721642017364502,1.7958660125732422,0.6245537919597575,147.0,886.0
G,D,"[3, 2]",-1.0,1.0,0.13413000106811523,1.4163448810577393,0.2746827334154825,147.0,887.0
Y,R,"[3, 3]",-2.0,-1.0,0.14551901817321777,1.80230712890625,0.6433475775395621,147.0,888.0
,,"(3, 3)",,,,,,147.0,
R,U,"[2, 3]",1.0,1.0,0.47736501693725586,2.3328819274902344,0.3433521749038631,,889.0
Y,R,"[2, 4]",-1.0,0.0,0.14338994026184082,1.878829002380371,0.738278012494479,148.0,890.0
G,D,"[3, 4]",-1.0,-1.0,0.1642160415649414,1.4853839874267578,0.3241552148914279,148.0,891.0
G,D,"[4, 4]",-1.0,-2.0,0.22076797485351562,1.6002600193023682,0.3743816766781047,148.0,892.0
B,L,"[4, 3]",-1.0,-3.0,0.1650390625,1.752504825592041,0.5933188018215898,148.0,893.0
R,U,"[3, 3]",-2.0,-5.0,0.19679594039916992,1.6246118545532227,0.4181766272057154,148.0,894.0
,,"(3, 3)",,,,,,148.0,
R,U,"[2, 3]",1.0,1.0,0.32915401458740234,1.968322992324829,0.41983230809477406,,895.0
G,D,"[3, 3]",-2.0,-1.0,0.5080149173736572,2.103822946548462,0.5902838604962447,149.0,896.0
Y,R,"[3, 4]",-1.0,-2.0,0.16641712188720703,1.627397060394287,0.45118752573220444,149.0,897.0
G,D,"[4, 4]",-1.0,-3.0,0.16606783866882324,1.8273789882659912,0.6449602881833699,149.0,898.0
B,L,"[4, 3]",-1.0,-3.0,0.02347421646118164,5.70433497428894,0.5661358307069708,149.0,899.0
R,U,"[3, 3]",-2.0,-5.0,0.36501193046569824,1.7177619934082031,0.35075529383780457,149.0,900.0
,,"(3, 3)",,,,,,149.0,
R,U,"[2, 3]",1.0,1.0,0.42048192024230957,3.004408121109009,0.3385785153648459,,901.0
G,D,"[3, 3]",-2.0,-1.0,0.17934608459472656,1.9426281452178955,0.7475111906944352,150.0,902.0
G,D,"[4, 3]",-1.0,-2.0,0.8432748317718506,2.543708086013794,0.6911117482186716,150.0,903.0
Y,R,"[4, 4]",-1.0,-3.0,0.21700310707092285,1.691467046737671,0.46641163251530743,150.0,904.0
G,D,"[5, 4]",-1.0,-4.0,0.23516297340393066,1.9365360736846924,0.6860022733675567,150.0,905.0
G,D,"[6, 4]",0.0,-4.0,0.5107600688934326,2.104625940322876,0.5907302554498388,150.0,906.0
,,"(3, 3)",,,,,,150.0,
R,U,"[2, 3]",1.0,1.0,0.3578810691833496,3.1551029682159424,0.4293744954656587,,907.0
Y,R,"[2, 4]",-1.0,0.0,0.20227694511413574,1.5216529369354248,0.31784334432302846,151.0,908.0
B,L,"[2, 3]",1.0,1.0,0.5997109413146973,2.2553160190582275,0.6395982209436086,151.0,909.0
G,D,"[3, 3]",-2.0,-1.0,0.19272303581237793,1.8486859798431396,0.6548535121997482,151.0,910.0
B,L,"[3, 2]",-1.0,-2.0,0.560142993927002,1.9798431396484375,0.4184090049358757,151.0,911.0
Y,R,"[3, 3]",-2.0,-4.0,0.21865487098693848,1.5820560455322266,0.3505407318596188,151.0,912.0
,,"(3, 3)",,,,,,151.0,
R,U,"[2, 3]",1.0,1.0,0.7252099514007568,2.6013851165771484,0.31877122319166756,,913.0
G,D,"[3, 3]",-2.0,-1.0,0.2034919261932373,1.5990710258483887,0.38439658914524083,152.0,914.0
Y,R,"[3, 4]",-1.0,-2.0,0.29851603507995605,1.7456881999969482,0.4299834539605934,152.0,915.0
B,L,"[3, 3]",-2.0,-4.0,0.21566200256347656,1.8095760345458984,0.5727889878698353,152.0,916.0
G,D,"[4, 3]",-1.0,-4.0,0.04657888412475586,5.461100101470947,0.28425541608109345,152.0,917.0
G,D,"[5, 3]",-1.0,-5.0,0.16702699661254883,1.8450920581817627,0.6624723235678536,152.0,918.0
,,"(3, 3)",,,,,,152.0,
R,U,"[2, 3]",1.0,1.0,0.1947939395904541,4.203016996383667,0.5988898787355543,,919.0
G,D,"[3, 3]",-2.0,-1.0,0.15335297584533691,1.8135478496551514,0.6459230330824886,153.0,920.0
Y,R,"[3, 4]",-1.0,-1.0,0.09345579147338867,5.827627897262573,0.6068589160936817,153.0,921.0
G,D,"[4, 4]",-1.0,-2.0,0.2291719913482666,1.7457208633422852,0.5027152206284142,153.0,922.0
R,U,"[3, 4]",-1.0,-3.0,0.13348698616027832,1.6677398681640625,0.5204571670476263,153.0,923.0
B,L,"[3, 3]",-2.0,-5.0,0.1516268253326416,1.7548952102661133,0.5917298772554416,153.0,924.0
,,"(3, 3)",,,,,,153.0,
R,U,"[2, 3]",1.0,1.0,0.3503448963165283,4.191448926925659,0.49996325266790037,,925.0
R,U,"[1, 3]",-1.0,0.0,0.15870881080627441,1.4984722137451172,0.3321699683185649,154.0,926.0
G,D,"[2, 3]",1.0,1.0,0.5058550834655762,1.8060319423675537,0.2882492025294734,154.0,927.0
B,L,"[2, 2]",1.0,2.0,0.46283698081970215,1.769826889038086,0.30812189115796157,154.0,928.0
Y,R,"[2, 3]",1.0,3.0,0.31931614875793457,1.6142501831054688,0.2891417913684511,154.0,929.0
B,L,"[2, 2]",-2.0,3.0,1.9256420135498047,3.4054970741271973,0.44451202034385345,154.0,930.0
,,"(3, 3)",,,,,,154.0,
R,U,"[2, 3]",1.0,1.0,0.6045200824737549,3.1651649475097656,0.45964517027455,,931.0
B,L,"[2, 2]",1.0,2.0,0.2682170867919922,1.806926965713501,0.5331511162037835,155.0,932.0
G,D,"[3, 2]",-1.0,1.0,0.25777697563171387,1.954498052597046,0.6875218438745923,155.0,933.0
B,L,"[3, 1]",1.0,2.0,0.8796050548553467,2.270724058151245,0.37533230686881,155.0,934.0
Y,R,"[3, 2]",-1.0,1.0,0.38109898567199707,1.6991181373596191,0.3078128742113132,155.0,935.0
R,U,"[2, 2]",1.0,2.0,0.5861527919769287,2.23488712310791,0.6424725905496109,155.0,936.0
,,"(3, 3)",,,,,,155.0,
R,U,"[2, 3]",1.0,1.0,0.5059242248535156,3.9300551414489746,0.25617191313999904,,937.0
Y,R,"[2, 4]",-1.0,0.0,0.41806602478027344,1.9332098960876465,0.5057800769485903,156.0,938.0
B,L,"[2, 3]",1.0,1.0,0.49463891983032227,1.8300747871398926,0.336253570351401,156.0,939.0
Y,R,"[2, 4]",-1.0,0.0,0.35431599617004395,1.9556589126586914,0.5915632953652816,156.0,940.0
R,U,"[1, 4]",-1.0,-1.0,0.5222039222717285,2.1677238941192627,0.6426685697590675,156.0,941.0
R,U,"[0, 4]",0.0,-1.0,0.1516869068145752,1.732586145401001,0.5753550526138206,156.0,942.0
,,"(3, 3)",,,,,,156.0,
R,U,"[2, 3]",1.0,1.0,0.4635639190673828,2.5819849967956543,0.47410739818844777,,943.0
Y,R,"[2, 4]",-1.0,1.0,0.0462491512298584,5.428409814834595,0.25280996296285985,157.0,944.0
B,L,"[2, 3]",1.0,2.0,0.15590596199035645,1.4791350364685059,0.31523283686286824,157.0,945.0
Y,R,"[2, 4]",-1.0,1.0,0.2507970333099365,1.8184518814086914,0.550150318572264,157.0,946.0
G,D,"[3, 4]",-1.0,0.0,0.1701521873474121,1.8825750350952148,0.699237763305131,157.0,947.0
R,U,"[2, 4]",-1.0,-1.0,0.4448230266571045,1.846221923828125,0.3959039869856351,157.0,948.0
,,"(3, 3)",,,,,,157.0,
R,U,"[2, 3]",1.0,1.0,0.2976109981536865,7.204406023025513,0.40039111476261274,,949.0
Y,R,"[2, 4]",-1.0,0.0,0.1932361125946045,1.912998914718628,0.7130453746437697,158.0,950.0
B,L,"[2, 3]",1.0,1.0,0.16344618797302246,1.7756359577178955,0.5889063738517716,158.0,951.0
G,D,"[3, 3]",-2.0,-1.0,0.2038581371307373,1.7241549491882324,0.5131515944695851,158.0,952.0
Y,R,"[3, 4]",-1.0,-2.0,0.14157700538635254,1.5493090152740479,0.39585511317988975,158.0,953.0
R,U,"[2, 4]",-1.0,-3.0,0.2052900791168213,1.4552249908447266,0.251335116535312,158.0,954.0
,,"(3, 3)",,,,,,158.0,
R,U,"[2, 3]",1.0,1.0,0.48530101776123047,3.0033390522003174,0.6710113133364503,,955.0
R,U,"[1, 3]",-1.0,0.0,0.1321420669555664,1.5952529907226562,0.4498089857938594,159.0,956.0
B,L,"[1, 2]",1.0,1.0,0.14692401885986328,1.550520896911621,0.3836216198071828,159.0,957.0
G,D,"[2, 2]",1.0,2.0,0.3370940685272217,2.000924825668335,0.6510262248795803,159.0,958.0
Y,R,"[2, 3]",1.0,3.0,0.1641099452972412,1.686189889907837,0.5040606116379671,159.0,959.0
R,U,"[1, 3]",-1.0,2.0,0.13577699661254883,1.7027459144592285,0.5567947932469097,159.0,960.0
,,"(3, 3)",,,,,,159.0,
R,U,"[2, 3]",1.0,1.0,0.5484139919281006,3.416383981704712,0.6564450372138042,,961.0
B,L,"[2, 2]",1.0,2.0,0.154249906539917,1.5459868907928467,0.3861538862000181,160.0,962.0
G,D,"[3, 2]",-1.0,1.0,0.17717504501342773,1.4827260971069336,0.30231592490014686,160.0,963.0
G,D,"[4, 2]",-1.0,0.0,0.18608903884887695,1.5546300411224365,0.3568448156279836,160.0,964.0
B,L,"[4, 1]",-1.0,-1.0,0.23897504806518555,1.6130280494689941,0.3698817587854478,160.0,965.0
R,U,"[3, 1]",1.0,0.0,0.1745288372039795,1.6722259521484375,0.4914980369786639,160.0,966.0
,,"(3, 3)",,,,,,160.0,
R,U,"[2, 3]",1.0,1.0,0.5748419761657715,3.1885600090026855,0.4308045600629476,,967.0
G,D,"[3, 3]",-2.0,-1.0,0.15284395217895508,1.4934828281402588,0.3243708013858751,161.0,968.0
B,L,"[3, 2]",-1.0,-2.0,0.19458317756652832,1.5448908805847168,0.33577700163165736,161.0,969.0
G,D,"[4, 2]",-1.0,-3.0,0.1905660629272461,1.7694098949432373,0.5717020552847882,161.0,970.0
Y,R,"[4, 3]",-1.0,-4.0,0.10810089111328125,1.4453201293945312,0.3339341857321956,161.0,971.0
R,U,"[3, 3]",-2.0,-6.0,0.15814805030822754,1.7292580604553223,0.5630510854283292,161.0,972.0
,,"(3, 3)",,,,,,161.0,
R,U,"[2, 3]",1.0,1.0,0.2126328945159912,2.6028940677642822,0.44953265100711787,,973.0
B,L,"[2, 2]",1.0,2.0,0.32799601554870605,1.8411359786987305,0.5072580371990041,162.0,974.0
G,D,"[3, 2]",-1.0,1.0,0.17467880249023438,1.5159518718719482,0.3399978139136415,162.0,975.0
G,D,"[4, 2]",-1.0,0.0,0.4380810260772705,1.7234020233154297,0.28011357919584345,162.0,976.0
Y,R,"[4, 3]",-1.0,-1.0,0.18668198585510254,1.6096220016479492,0.4062865137612963,162.0,977.0
R,U,"[3, 3]",-2.0,-3.0,0.29983997344970703,1.7116260528564453,0.4013719217893329,162.0,978.0
,,"(3, 3)",,,,,,162.0,
R,U,"[2, 3]",1.0,1.0,0.2119150161743164,1.9441750049591064,0.4622757289684823,,979.0
B,L,"[2, 2]",1.0,2.0,0.25384092330932617,1.6292331218719482,0.3747411497163246,163.0,980.0
Y,R,"[2, 3]",1.0,3.0,0.20754313468933105,1.8428730964660645,0.6340666396656649,163.0,981.0
B,L,"[2, 2]",1.0,4.0,0.16548800468444824,1.6241331100463867,0.45855955690932043,163.0,982.0
Y,R,"[2, 3]",1.0,5.0,0.5158650875091553,1.9443259239196777,0.41955026835509984,163.0,983.0
R,U,"[1, 3]",-1.0,4.0,0.24823617935180664,1.8222370147705078,0.5749701628554225,163.0,984.0
,,"(3, 3)",,,,,,163.0,
R,U,"[2, 3]",1.0,1.0,0.33031797409057617,3.0872111320495605,0.5621538373449619,,985.0
B,L,"[2, 2]",1.0,2.0,0.150177001953125,1.6758630275726318,0.5214442023836434,164.0,986.0
Y,R,"[2, 3]",1.0,3.0,0.19310307502746582,1.5584421157836914,0.36351318934486726,164.0,987.0
B,L,"[2, 2]",1.0,4.0,0.3103771209716797,1.8024680614471436,0.48247516243248756,164.0,988.0
Y,R,"[2, 3]",1.0,5.0,0.16831111907958984,1.8772878646850586,0.6928114732235905,164.0,989.0
G,D,"[3, 3]",-2.0,3.0,0.17920994758605957,1.6413321495056152,0.45113208921212133,164.0,990.0
,,"(3, 3)",,,,,,164.0,
R,U,"[2, 3]",1.0,1.0,0.206190824508667,2.9250760078430176,0.4762680602660727,,991.0
B,L,"[2, 2]",1.0,2.0,0.18241596221923828,1.7426810264587402,0.5689467034738058,165.0,992.0
Y,R,"[2, 3]",1.0,3.0,0.17654991149902344,1.7120869159698486,0.5311374128162253,165.0,993.0
B,L,"[2, 2]",1.0,4.0,0.1489729881286621,1.4457831382751465,0.27699474190197804,165.0,994.0
Y,R,"[2, 3]",1.0,5.0,0.37045907974243164,1.8349339962005615,0.4619409643962993,165.0,995.0
B,L,"[2, 2]",1.0,6.0,0.1554088592529297,1.638606071472168,0.48380606007313254,165.0,996.0
,,"(3, 3)",,,,,,165.0,
R,U,"[2, 3]",1.0,1.0,0.15324997901916504,2.3005118370056152,0.45106095233449334,,997.0
B,L,"[2, 2]",1.0,2.0,0.18933820724487305,1.8524608612060547,0.6533359967171395,166.0,998.0
Y,R,"[2, 3]",1.0,3.0,0.13154888153076172,1.6807529926300049,0.5509132174864957,166.0,999.0
B,L,"[2, 2]",-1.0,3.0,0.004238128662109375,5.59149694442749,0.45918713174821424,166.0,1000.0
Y,R,"[2, 3]",1.0,4.0,0.3139610290527344,1.5993719100952148,0.2922567653318936,166.0,1001.0
B,L,"[2, 2]",1.0,5.0,0.4481160640716553,2.100969076156616,0.659401027900159,166.0,1002.0
,,"(3, 3)",,,,,,166.0,
R,U,"[2, 3]",1.0,1.0,0.23441386222839355,3.588238000869751,0.33136350388475116,,1003.0
Y,R,"[2, 4]",-1.0,0.0,0.3921818733215332,1.8571689128875732,0.4552123859608064,167.0,1004.0
Y,R,"[2, 5]",-1.0,-1.0,0.1554560661315918,1.512699842453003,0.3512281074581359,167.0,1005.0
B,L,"[2, 4]",-1.0,-2.0,0.18361592292785645,1.6249289512634277,0.4261551894372254,167.0,1006.0
Y,R,"[2, 5]",-1.0,-3.0,0.31996989250183105,1.801738977432251,0.4778745386059893,167.0,1007.0
B,L,"[2, 4]",-1.0,-4.0,0.28423500061035156,1.65836501121521,0.36980427307513264,167.0,1008.0
,,"(3, 3)",,,,,,167.0,
R,U,"[2, 3]",1.0,1.0,0.240556001663208,2.1181869506835938,0.4544725555817008,,1009.0
B,L,"[2, 2]",1.0,2.0,0.1908869743347168,1.7670581340789795,0.5715379493139119,168.0,1010.0
Y,R,"[2, 3]",1.0,3.0,0.18235015869140625,1.8047590255737305,0.6095326616540135,168.0,1011.0
B,L,"[2, 2]",1.0,4.0,0.17443108558654785,1.9008421897888184,0.7269053006166264,168.0,1012.0
Y,R,"[2, 3]",1.0,5.0,0.2085130214691162,1.8245959281921387,0.6183392143809103,168.0,1013.0
B,L,"[2, 2]",1.0,6.0,0.23009586334228516,1.7895841598510742,0.5579982506156727,168.0,1014.0
,,"(3, 3)",,,,,,168.0,
R,U,"[2, 3]",1.0,1.0,0.45041799545288086,2.2647860050201416,0.4896659414869883,,1015.0
B,L,"[2, 2]",1.0,2.0,0.4321911334991455,2.1480801105499268,0.7207065831132847,169.0,1016.0
Y,R,"[2, 3]",1.0,3.0,0.2742180824279785,1.8520870208740234,0.5730419851033088,169.0,1017.0
B,L,"[2, 2]",1.0,4.0,0.31235480308532715,1.7167789936065674,0.40678124302222063,169.0,1018.0
Y,R,"[2, 3]",1.0,5.0,0.350754976272583,1.8309109210968018,0.47085304790310206,169.0,1019.0
B,L,"[2, 2]",1.0,6.0,0.2408580780029297,1.5307199954986572,0.28507364853547923,169.0,1020.0
,,"(3, 3)",,,,,,169.0,
R,U,"[2, 3]",-1.0,0.0,0.09168100357055664,7.329880952835083,0.7481306577799233,,1021.0
B,L,"[2, 2]",1.0,1.0,0.25238490104675293,1.6828229427337646,0.4144717576629485,170.0,1022.0
Y,R,"[2, 3]",1.0,2.0,0.24453091621398926,1.7991111278533936,0.5468793970073645,170.0,1023.0
B,L,"[2, 2]",1.0,3.0,0.32300591468811035,1.8911809921264648,0.5547721628525107,170.0,1024.0
Y,R,"[2, 3]",1.0,4.0,0.31458115577697754,1.8585410118103027,0.5466560648456049,170.0,1025.0
B,L,"[2, 2]",1.0,5.0,0.3620011806488037,2.0041768550872803,0.6341184666898754,170.0,1026.0
,,"(3, 3)",,,,,,170.0,
R,U,"[2, 3]",1.0,1.0,0.6856269836425781,2.5432310104370117,0.5274741783916592,,1027.0
B,L,"[2, 2]",1.0,2.0,0.17888998985290527,1.8635389804840088,0.6908330809361792,171.0,1028.0
Y,R,"[2, 3]",1.0,3.0,0.16510891914367676,1.5612947940826416,0.40251615625376097,171.0,1029.0
B,L,"[2, 2]",1.0,4.0,0.2345890998840332,1.6361799240112305,0.3886978592953874,171.0,1030.0
Y,R,"[2, 3]",1.0,5.0,0.2473611831665039,1.9443027973175049,0.6993761634919896,171.0,1031.0
B,L,"[2, 2]",1.0,6.0,0.35039591789245605,2.0274059772491455,0.6600494060155604,171.0,1032.0
,,"(3, 3)",,,,,,171.0,
R,U,"[2, 3]",1.0,1.0,0.7781460285186768,2.6290690898895264,0.506173447738371,,1033.0
B,L,"[2, 2]",1.0,2.0,0.30455899238586426,1.6359341144561768,0.32564511455999756,172.0,1034.0
Y,R,"[2, 3]",1.0,3.0,0.29232215881347656,2.0268619060516357,0.7353956449757177,172.0,1035.0
B,L,"[2, 2]",1.0,4.0,0.20716190338134766,1.4742670059204102,0.2603236141115436,172.0,1036.0
Y,R,"[2, 3]",1.0,5.0,0.7693719863891602,2.3812201023101807,0.6077951244315416,172.0,1037.0
B,L,"[2, 2]",1.0,6.0,0.47211194038391113,1.8983981609344482,0.42302049510530954,172.0,1038.0
,,"(3, 3)",,,,,,172.0,
R,U,"[2, 3]",1.0,1.0,0.7328689098358154,4.772067070007324,0.611595989995233,,1039.0
B,L,"[2, 2]",1.0,2.0,0.3685770034790039,2.0621490478515625,0.6904136225009228,173.0,1040.0
Y,R,"[2, 3]",1.0,3.0,0.22603082656860352,1.9193801879882812,0.6931489789290546,173.0,1041.0
B,L,"[2, 2]",1.0,4.0,0.2326219081878662,1.9649040699005127,0.7246195565267652,173.0,1042.0
Y,R,"[2, 3]",1.0,5.0,0.49600696563720703,1.9802088737487793,0.4885329163041514,173.0,1043.0
B,L,"[2, 2]",1.0,6.0,0.3415830135345459,2.0694119930267334,0.724386808109846,173.0,1044.0
,,"(3, 3)",,,,,,173.0,
R,U,"[2, 3]",-2.0,0.0,1.0918819904327393,3.7879109382629395,0.5627796022950127,,1045.0
B,L,"[2, 2]",1.0,1.0,0.4477519989013672,2.138603925704956,0.6844740250046342,174.0,1046.0
Y,R,"[2, 3]",1.0,2.0,0.1539630889892578,1.469468116760254,0.3043046215882392,174.0,1047.0
B,L,"[2, 2]",1.0,3.0,0.24612092971801758,1.603945016860962,0.3581702960541414,174.0,1048.0
Y,R,"[2, 3]",1.0,4.0,0.2845499515533447,1.6525969505310059,0.3608087745757292,174.0,1049.0
B,L,"[2, 2]",1.0,5.0,0.3673532009124756,2.04168701171875,0.6688889348077869,174.0,1050.0
,,"(3, 3)",,,,,,174.0,
R,U,"[2, 3]",1.0,1.0,0.6780059337615967,2.7496237754821777,0.5688417200642539,,1051.0
B,L,"[2, 2]",1.0,2.0,0.3095519542694092,1.8480348587036133,0.5334106356419197,175.0,1052.0
Y,R,"[2, 3]",1.0,3.0,0.44860100746154785,1.9939978122711182,0.5442226029527641,175.0,1053.0
B,L,"[2, 2]",1.0,4.0,0.20645713806152344,1.7015039920806885,0.4956716357744307,175.0,1054.0
Y,R,"[2, 3]",1.0,5.0,0.25339198112487793,1.7634470462799072,0.5091202729943722,175.0,1055.0
B,L,"[2, 2]",1.0,6.0,0.19385695457458496,1.6394970417022705,0.4487694120328902,175.0,1056.0
,,"(3, 3)",,,,,,175.0,
R,U,"[2, 3]",1.0,1.0,0.5620942115783691,3.0406241416931152,0.689121789022364,,1057.0
B,L,"[2, 2]",1.0,2.0,0.201552152633667,1.6359360218048096,0.4253831431663202,176.0,1058.0
Y,R,"[2, 3]",1.0,3.0,0.17641711235046387,1.805267095565796,0.6304024557692552,176.0,1059.0
B,L,"[2, 2]",1.0,4.0,0.43866991996765137,1.815459966659546,0.3627001722735499,176.0,1060.0
Y,R,"[2, 3]",1.0,5.0,0.24318313598632812,1.8676259517669678,0.613573017773672,176.0,1061.0
B,L,"[2, 2]",1.0,6.0,0.25263190269470215,1.680049180984497,0.4105126168438155,176.0,1062.0
,,"(3, 3)",,,,,,176.0,
R,U,"[2, 3]",1.0,1.0,0.4756200313568115,2.4494359493255615,0.5432999045020099,,1063.0
B,L,"[2, 2]",1.0,2.0,0.1984119415283203,1.6416730880737305,0.4517139671320806,177.0,1064.0
Y,R,"[2, 3]",1.0,3.0,0.18298101425170898,1.5729541778564453,0.39137300674708564,177.0,1065.0
B,L,"[2, 2]",1.0,4.0,0.33434200286865234,2.073240041732788,0.731101265424979,177.0,1066.0
Y,R,"[2, 3]",1.0,5.0,0.32408905029296875,1.6602280139923096,0.325091995673001,177.0,1067.0
B,L,"[2, 2]",1.0,6.0,0.2924361228942871,1.649289846420288,0.3575891393872337,177.0,1068.0
,,"(3, 3)",,,,,,177.0,
R,U,"[2, 3]",1.0,1.0,0.5390911102294922,2.3452208042144775,0.4528003783542842,,1069.0
B,L,"[2, 2]",1.0,2.0,0.32431793212890625,1.6426270008087158,0.31227457100279804,178.0,1070.0
Y,R,"[2, 3]",1.0,3.0,0.33301806449890137,1.7785120010375977,0.45730213165235406,178.0,1071.0
