button_choice,action_choice,coordinate_choice,reward,cumulative_reward,rt,total_trial_time,iti,block_n,trial_n
R,U,"[2, 3]",-2.0,0.0,1.9460728168487549,3.3146839141845703,0.33217328953269293,0.0,1.0
R,U,"[1, 3]",1.0,1.0,0.3346750736236572,1.7304198741912842,0.37932232692289547,0.0,2.0
G,D,"[2, 3]",0.0,1.0,0.8040869235992432,2.3774049282073975,0.5731736268794249,0.0,3.0
B,L,"[2, 2]",-1.0,1.0,0.0009369850158691406,5.761132001876831,0.6343442684743674,0.0,4.0
B,L,"[2, 1]",1.0,2.0,0.5732848644256592,2.289444923400879,0.7069412401191274,0.0,5.0
Y,R,"[2, 2]",0.0,2.0,0.36811184883117676,1.8276619911193848,0.45162355267926707,0.0,6.0
,,"(3, 3)",,,,,,0.0,
B,L,"[3, 2]",1.0,1.0,0.39523816108703613,7.068937063217163,0.6539951290262076,,7.0
R,U,"[2, 2]",1.0,2.0,0.20341014862060547,1.9407479763031006,0.7279300824568855,1.0,8.0
B,L,"[2, 1]",1.0,3.0,0.17633986473083496,1.6535861492156982,0.4818970460213251,1.0,9.0
R,U,"[1, 1]",-1.0,2.0,0.15471601486206055,1.569370985031128,0.4012392234260074,1.0,10.0
B,L,"[1, 0]",0.0,2.0,0.24393510818481445,1.4987890720367432,0.2503457219279547,1.0,11.0
Y,R,"[1, 1]",0.0,2.0,0.41794490814208984,2.012179136276245,0.5952543652011695,1.0,12.0
,,"(3, 3)",,,,,,1.0,
G,D,"[4, 3]",-1.0,-1.0,0.5361690521240234,4.659043073654175,0.6879486187369862,,13.0
B,L,"[4, 2]",-1.0,-2.0,0.2246558666229248,1.6125259399414062,0.3838781451848833,2.0,14.0
Y,R,"[4, 3]",0.0,-2.0,0.41924500465393066,1.880599021911621,0.44773340262866296,2.0,15.0
R,U,"[3, 3]",0.0,-2.0,0.18569493293762207,1.7009899616241455,0.5153910257818975,2.0,16.0
Y,R,"[3, 4]",-1.0,-3.0,0.2145829200744629,1.7092759609222412,0.4746739331953277,2.0,17.0
G,D,"[4, 4]",-1.0,-4.0,0.360806941986084,1.6093640327453613,0.2509531688793016,2.0,18.0
,,"(3, 3)",,,,,,2.0,
B,L,"[3, 2]",1.0,1.0,0.44083404541015625,3.0007340908050537,0.25225917604846837,,19.0
B,L,"[3, 1]",1.0,2.0,0.17122793197631836,1.620150089263916,0.43869582875470303,3.0,20.0
B,L,"[3, 0]",0.0,2.0,0.16878104209899902,1.5351479053497314,0.35717666803376336,3.0,21.0
G,D,"[4, 0]",0.0,2.0,0.2214970588684082,1.8880620002746582,0.6614797480703765,3.0,22.0
R,U,"[3, 0]",0.0,2.0,0.202239990234375,1.6976568698883057,0.509538932631658,3.0,23.0
Y,R,"[3, 1]",-1.0,2.0,0.030347108840942383,5.818544864654541,0.6613655061046688,3.0,24.0
,,"(3, 3)",,,,,,3.0,
Y,R,"[3, 4]",-1.0,-1.0,0.2949869632720947,3.0727579593658447,0.700493603977725,,25.0
R,U,"[2, 4]",-1.0,-1.0,0.09863901138305664,5.64301609992981,0.4108346300713195,4.0,26.0
R,U,"[1, 4]",-1.0,-2.0,0.3983139991760254,2.073617935180664,0.6676548639274613,4.0,27.0
G,D,"[2, 4]",0.0,-2.0,0.5050580501556396,2.1089468002319336,0.5932900486789755,4.0,28.0
B,L,"[2, 3]",-1.0,-3.0,0.24420595169067383,1.970613956451416,0.7306074611847944,4.0,29.0
G,D,"[3, 3]",0.0,-3.0,0.3922309875488281,1.754012107849121,0.3516448059506484,4.0,30.0
,,"(3, 3)",,,,,,4.0,
Y,R,"[3, 4]",-1.0,-1.0,0.653048038482666,4.10814905166626,0.6764991874558388,,31.0
B,L,"[3, 3]",0.0,-1.0,0.21081304550170898,1.7409381866455078,0.53358174707693,5.0,32.0
G,D,"[4, 3]",-1.0,-2.0,0.23232316970825195,1.9567720890045166,0.7236621977928245,5.0,33.0
B,L,"[4, 2]",-1.0,-3.0,0.5561079978942871,2.1216790676116943,0.5621894684268357,5.0,34.0
R,U,"[3, 2]",1.0,-2.0,0.5605630874633789,2.244770050048828,0.6903200622484105,5.0,35.0
R,U,"[2, 2]",1.0,-1.0,0.34966588020324707,1.6401541233062744,0.2807518614250452,5.0,36.0
,,"(3, 3)",,,,,,5.0,
R,U,"[2, 3]",-1.0,-1.0,0.32699108123779297,3.1213839054107666,0.6352215048829457,,37.0
Y,R,"[2, 4]",-1.0,-2.0,0.4092288017272949,1.955777883529663,0.5412070083786878,6.0,38.0
B,L,"[2, 3]",0.0,-2.0,0.1923069953918457,1.6089248657226562,0.4167720696532606,6.0,39.0
G,D,"[3, 3]",0.0,-2.0,0.16665101051330566,1.5657570362091064,0.39936880338373937,6.0,40.0
B,L,"[3, 2]",1.0,-1.0,0.17498207092285156,1.7985329627990723,0.61450656242628,6.0,41.0
B,L,"[3, 1]",1.0,0.0,0.1881239414215088,1.8381659984588623,0.6358647215459494,6.0,42.0
,,"(3, 3)",,,,,,6.0,
B,L,"[3, 2]",1.0,1.0,0.7287459373474121,3.0978200435638428,0.2508274698889952,,43.0
B,L,"[3, 1]",1.0,2.0,0.3430168628692627,1.7357690334320068,0.3865722190581139,7.0,44.0
R,U,"[2, 1]",1.0,3.0,0.25863218307495117,1.6580960750579834,0.39471496744842655,7.0,45.0
R,U,"[1, 1]",-1.0,2.0,0.3725399971008301,1.8940329551696777,0.5217751398966508,7.0,46.0
B,L,"[1, 0]",0.0,2.0,0.16874217987060547,1.6246891021728516,0.4466046141074638,7.0,47.0
G,D,"[2, 0]",0.0,2.0,0.43746304512023926,2.135442018508911,0.6987460294736512,7.0,48.0
,,"(3, 3)",,,,,,7.0,
Y,R,"[3, 4]",-1.0,-1.0,0.397752046585083,2.8821861743927,0.38132478936244735,,49.0
B,L,"[3, 3]",0.0,-1.0,0.20908093452453613,1.7448010444641113,0.5259243483570193,8.0,50.0
B,L,"[3, 2]",1.0,0.0,0.18273282051086426,1.7470180988311768,0.5560954638419897,8.0,51.0
B,L,"[3, 1]",1.0,1.0,0.22170281410217285,1.5291550159454346,0.30229120753212346,8.0,52.0
B,L,"[3, 0]",0.0,1.0,0.23447799682617188,1.806169033050537,0.5747625307318693,8.0,53.0
G,D,"[4, 0]",0.0,1.0,0.2184300422668457,1.703307867050171,0.49489223552559564,8.0,54.0
,,"(3, 3)",,,,,,8.0,
Y,R,"[3, 4]",-2.0,0.0,2.0689568519592285,4.520462989807129,0.3658159814041932,,55.0
Y,R,"[3, 5]",-1.0,-1.0,0.19669103622436523,1.8729479312896729,0.6550885129958484,9.0,56.0
Y,R,"[3, 6]",0.0,-1.0,0.22487998008728027,1.9416399002075195,0.713339356081859,9.0,57.0
Y,R,"[3, 6]",0.0,-1.0,0.17414188385009766,1.6615378856658936,0.4752365650309031,9.0,58.0
B,L,"[3, 5]",0.0,-1.0,0.40711092948913574,2.077893018722534,0.6695533629699242,9.0,59.0
B,L,"[3, 4]",0.0,-1.0,0.43674206733703613,1.9913280010223389,0.5443144360643021,9.0,60.0
,,"(3, 3)",,,,,,9.0,
G,D,"[4, 3]",-1.0,-1.0,0.2772040367126465,3.2834830284118652,0.7274809843514831,,61.0
G,D,"[5, 3]",-1.0,-2.0,0.20222115516662598,1.6903560161590576,0.4850013621063995,10.0,62.0
R,U,"[4, 3]",0.0,-2.0,0.15736985206604004,1.4846088886260986,0.3198224020655309,10.0,63.0
R,U,"[3, 3]",0.0,-2.0,0.1849970817565918,1.533524990081787,0.35332282335422904,10.0,64.0
R,U,"[2, 3]",-1.0,-3.0,0.21076488494873047,1.9446499347686768,0.714318562244824,10.0,65.0
B,L,"[2, 2]",1.0,-2.0,0.2706871032714844,1.6203598976135254,0.33515028491783816,10.0,66.0
,,"(3, 3)",,,,,,10.0,
B,L,"[3, 2]",1.0,1.0,0.5968399047851562,2.9529571533203125,0.3712784116466113,,67.0
B,L,"[3, 1]",1.0,2.0,0.1374530792236328,1.5076091289520264,0.36233200725101045,11.0,68.0
B,L,"[3, 0]",0.0,2.0,0.2142338752746582,1.559541940689087,0.35533069415050983,11.0,69.0
B,L,"[3, 0]",0.0,2.0,0.14885592460632324,1.8028578758239746,0.6579371622804808,11.0,70.0
Y,R,"[3, 1]",0.0,2.0,0.14867401123046875,1.6800038814544678,0.5379419140179409,11.0,71.0
Y,R,"[3, 2]",0.0,2.0,0.1524190902709961,1.7417898178100586,0.5963414631210995,11.0,72.0
,,"(3, 3)",,,,,,11.0,
Y,R,"[3, 4]",-1.0,-1.0,0.33281898498535156,2.787982940673828,0.4012983761733583,,73.0
G,D,"[4, 4]",-1.0,-2.0,0.16032195091247559,1.7884161472320557,0.6226632230277203,12.0,74.0
R,U,"[3, 4]",0.0,-2.0,0.25203514099121094,1.7109930515289307,0.4506886325575989,12.0,75.0
R,U,"[2, 4]",-1.0,-2.0,0.08204913139343262,5.494037866592407,0.26159032136521015,12.0,76.0
R,U,"[1, 4]",-1.0,-3.0,0.16726183891296387,1.5598089694976807,0.38794117270446965,12.0,77.0
B,L,"[1, 3]",1.0,-2.0,0.16665101051330566,1.772535800933838,0.5937092823133697,12.0,78.0
,,"(3, 3)",,,,,,12.0,
B,L,"[3, 2]",1.0,1.0,0.25062084197998047,2.824788808822632,0.43537985451947064,,79.0
B,L,"[3, 1]",-1.0,1.0,0.08483600616455078,5.701495885848999,0.48691274686043984,13.0,80.0
B,L,"[3, 0]",0.0,1.0,0.41125011444091797,1.7653839588165283,0.35236680283982835,13.0,81.0
Y,R,"[3, 1]",0.0,1.0,0.46650195121765137,1.9487180709838867,0.4845243224565397,13.0,82.0
Y,R,"[3, 2]",0.0,1.0,0.2344667911529541,1.9556281566619873,0.7235235351126015,13.0,83.0
G,D,"[4, 2]",-1.0,0.0,0.46947789192199707,2.1039109230041504,0.6271863984460653,13.0,84.0
,,"(3, 3)",,,,,,13.0,
B,L,"[3, 2]",1.0,1.0,0.6087579727172852,3.521354913711548,0.3824781404411245,,85.0
B,L,"[3, 1]",1.0,2.0,0.2853279113769531,1.7341620922088623,0.44951768579096263,14.0,86.0
B,L,"[3, 0]",0.0,2.0,0.5252819061279297,2.0778892040252686,0.5440539141751497,14.0,87.0
B,L,"[3, 0]",-2.0,2.0,1.9004919528961182,3.4423608779907227,0.5200621611199108,14.0,88.0
B,L,"[3, 0]",0.0,2.0,0.19259405136108398,1.8544728755950928,0.6577904414262767,14.0,89.0
B,L,"[3, 0]",0.0,2.0,0.30185890197753906,1.6522128582000732,0.3599700248076934,14.0,90.0
,,"(3, 3)",,,,,,14.0,
B,L,"[3, 2]",1.0,1.0,0.25662803649902344,3.1031360626220703,0.696656153729708,,91.0
B,L,"[3, 1]",1.0,2.0,0.1694657802581787,1.8428599834442139,0.6560875915079383,15.0,92.0
B,L,"[3, 0]",0.0,2.0,0.17884087562561035,1.63185715675354,0.4545933670390767,15.0,93.0
R,U,"[2, 0]",0.0,2.0,0.19696307182312012,1.634998083114624,0.4395814838342683,15.0,94.0
R,U,"[1, 0]",0.0,2.0,0.18143391609191895,1.4519720077514648,0.275124088487125,15.0,95.0
B,L,"[1, 0]",0.0,2.0,0.24637413024902344,1.667119026184082,0.42557535088495874,15.0,96.0
,,"(3, 3)",,,,,,15.0,
B,L,"[3, 2]",1.0,1.0,0.3493611812591553,2.741832971572876,0.31762944146735267,,97.0
B,L,"[3, 1]",1.0,2.0,0.29415106773376465,1.8008880615234375,0.5018187927340085,16.0,98.0
B,L,"[3, 0]",0.0,2.0,0.17501592636108398,1.5289320945739746,0.3474482980470358,16.0,99.0
R,U,"[2, 0]",0.0,2.0,0.2706491947174072,1.7142119407653809,0.4283542224253827,16.0,100.0
B,L,"[2, 0]",0.0,2.0,0.6187520027160645,1.9747610092163086,0.3695833029428123,16.0,101.0
R,U,"[1, 0]",0.0,2.0,0.3373839855194092,1.6437411308288574,0.3134676978011298,16.0,102.0
,,"(3, 3)",,,,,,16.0,
B,L,"[3, 2]",1.0,1.0,0.361116886138916,2.833477020263672,0.3469114189991037,,103.0
B,L,"[3, 1]",1.0,2.0,0.2312629222869873,1.741405963897705,0.5048326402365839,17.0,104.0
R,U,"[2, 1]",1.0,3.0,0.3080439567565918,1.8202250003814697,0.5085076225071632,17.0,105.0
R,U,"[1, 1]",-1.0,2.0,0.14045286178588867,1.7272839546203613,0.5857118163876814,17.0,106.0
B,L,"[1, 0]",0.0,2.0,0.17818307876586914,1.69697904586792,0.5160711432782145,17.0,107.0
G,D,"[2, 0]",0.0,2.0,0.16708803176879883,1.8190579414367676,0.6516590711744015,17.0,108.0
,,"(3, 3)",,,,,,17.0,
B,L,"[3, 2]",1.0,1.0,0.8130919933319092,3.4319050312042236,0.6338616925621363,,109.0
B,L,"[3, 1]",1.0,2.0,0.341472864151001,1.840939998626709,0.4916643805920079,18.0,110.0
R,U,"[2, 1]",-1.0,2.0,0.030321121215820312,5.511079788208008,0.3528791767558129,18.0,111.0
G,D,"[3, 1]",0.0,2.0,0.1716318130493164,1.8291630744934082,0.6484560485888065,18.0,112.0
G,D,"[4, 1]",-1.0,1.0,0.5363459587097168,1.8758268356323242,0.3245931820297431,18.0,113.0
B,L,"[4, 0]",0.0,1.0,0.2148599624633789,1.6252570152282715,0.4164056178685047,18.0,114.0
,,"(3, 3)",,,,,,18.0,
B,L,"[3, 2]",1.0,1.0,0.5069360733032227,2.892888069152832,0.4426235093453705,,115.0
B,L,"[3, 1]",1.0,2.0,0.19135808944702148,1.7473299503326416,0.5566977079292834,19.0,116.0
B,L,"[3, 0]",0.0,2.0,0.3933720588684082,1.646324872970581,0.25330216631087304,19.0,117.0
Y,R,"[3, 1]",0.0,2.0,0.21848702430725098,1.9508380889892578,0.7369936450134396,19.0,118.0
Y,R,"[3, 2]",0.0,2.0,0.39935302734375,1.9136919975280762,0.5174725564695304,19.0,119.0
R,U,"[2, 2]",1.0,3.0,0.17284202575683594,1.739732027053833,0.5572737708986253,19.0,120.0
,,"(3, 3)",,,,,,19.0,
B,L,"[3, 2]",1.0,1.0,0.4005098342895508,3.098140001296997,0.2890935062709795,,121.0
B,L,"[3, 1]",1.0,2.0,0.17637395858764648,1.6689579486846924,0.49110931151665144,20.0,122.0
B,L,"[3, 0]",0.0,2.0,0.20491409301757812,1.7620289325714111,0.5699110546050413,20.0,123.0
Y,R,"[3, 1]",0.0,2.0,0.14731979370117188,1.651496171951294,0.5046232776002639,20.0,124.0
R,U,"[2, 1]",1.0,3.0,0.1663200855255127,1.435973882675171,0.2744007789322967,20.0,125.0
R,U,"[1, 1]",-1.0,2.0,0.18340587615966797,1.556575059890747,0.36436782468237466,20.0,126.0
,,"(3, 3)",,,,,,20.0,
Y,R,"[3, 4]",-1.0,-1.0,0.3756999969482422,2.878264904022217,0.40903541386192055,,127.0
B,L,"[3, 3]",0.0,-1.0,0.15095281600952148,1.888636827468872,0.730854338447484,21.0,128.0
B,L,"[3, 2]",-1.0,-1.0,0.05207395553588867,5.890260934829712,0.704421846220724,21.0,129.0
B,L,"[3, 1]",-1.0,-1.0,0.08477997779846191,5.67338490486145,0.4614593225693026,21.0,130.0
B,L,"[3, 0]",0.0,-1.0,0.16643714904785156,1.6262459754943848,0.47105226091981417,21.0,131.0
R,U,"[2, 0]",0.0,-1.0,0.20540094375610352,1.6064419746398926,0.39439691696216533,21.0,132.0
,,"(3, 3)",,,,,,21.0,
B,L,"[3, 2]",1.0,1.0,0.3266630172729492,3.0866520404815674,0.4309788613968457,,133.0
B,L,"[3, 1]",1.0,2.0,0.6364431381225586,2.0820398330688477,0.4297348123969054,22.0,134.0
B,L,"[3, 0]",0.0,2.0,0.34096622467041016,1.978705883026123,0.6251047051774741,22.0,135.0
R,U,"[2, 0]",0.0,2.0,0.2905540466308594,1.8387231826782227,0.5471388930552334,22.0,136.0
R,U,"[1, 0]",0.0,2.0,0.41234397888183594,1.9473230838775635,0.5278168186825459,22.0,137.0
G,D,"[2, 0]",0.0,2.0,0.507174015045166,1.8314399719238281,0.3261928696375735,22.0,138.0
,,"(3, 3)",,,,,,22.0,
B,L,"[3, 2]",1.0,1.0,0.31808900833129883,3.024087905883789,0.6499225069063976,,139.0
B,L,"[3, 1]",1.0,2.0,0.7898201942443848,2.067275047302246,0.26778915531687325,23.0,140.0
R,U,"[2, 1]",1.0,3.0,0.32320499420166016,1.7672710418701172,0.4348839513237456,23.0,141.0
R,U,"[1, 1]",-1.0,2.0,0.2314600944519043,1.6731948852539062,0.4248271440977401,23.0,142.0
B,L,"[1, 0]",0.0,2.0,0.4578089714050293,1.838927984237671,0.3804561387095482,23.0,143.0
G,D,"[2, 0]",0.0,2.0,0.14216208457946777,1.528000831604004,0.37523788247028106,23.0,144.0
,,"(3, 3)",,,,,,23.0,
B,L,"[3, 2]",1.0,1.0,0.47301602363586426,2.7865068912506104,0.4950104330564807,,145.0
B,L,"[3, 1]",1.0,2.0,0.21122407913208008,1.5604779720306396,0.35573319573948503,24.0,146.0
R,U,"[2, 1]",1.0,3.0,0.200239896774292,1.5785200595855713,0.3839197197286742,24.0,147.0
G,D,"[3, 1]",0.0,3.0,0.15929698944091797,1.884052038192749,0.7177388383845049,24.0,148.0
Y,R,"[3, 2]",0.0,3.0,0.31985902786254883,1.727086067199707,0.4117208681702598,24.0,149.0
B,L,"[3, 1]",-1.0,3.0,0.06979084014892578,5.736289978027344,0.5481497143914553,24.0,150.0
,,"(3, 3)",,,,,,24.0,
B,L,"[3, 2]",1.0,1.0,0.3897740840911865,2.762327194213867,0.2773040533797978,,151.0
B,L,"[3, 1]",1.0,2.0,0.21077799797058105,1.6300358772277832,0.4239333360744634,25.0,152.0
R,U,"[2, 1]",1.0,3.0,0.2144918441772461,1.5058138370513916,0.2966726071034595,25.0,153.0
G,D,"[3, 1]",0.0,3.0,0.24105501174926758,1.9556410312652588,0.7184467472735035,25.0,154.0
Y,R,"[3, 2]",0.0,3.0,0.7248389720916748,2.0651581287384033,0.334275204525776,25.0,155.0
B,L,"[3, 1]",0.0,3.0,0.5792751312255859,2.1067960262298584,0.5239902632432646,25.0,156.0
,,"(3, 3)",,,,,,25.0,
B,L,"[3, 2]",1.0,1.0,0.373013973236084,2.6651699542999268,0.45596434903972677,,157.0
B,L,"[3, 1]",1.0,2.0,0.21378707885742188,1.7897958755493164,0.5790067336187356,26.0,158.0
R,U,"[2, 1]",1.0,3.0,0.42137694358825684,1.8077199459075928,0.38708391151044147,26.0,159.0
Y,R,"[2, 2]",1.0,4.0,0.33894991874694824,1.6572861671447754,0.31112264408917234,26.0,160.0
Y,R,"[2, 3]",-1.0,3.0,0.7207760810852051,2.0517489910125732,0.32951073031686845,26.0,161.0
G,D,"[3, 3]",0.0,3.0,0.7131500244140625,2.06512713432312,0.3444931591026278,26.0,162.0
,,"(3, 3)",,,,,,26.0,
B,L,"[3, 2]",1.0,1.0,0.49602293968200684,2.7300801277160645,0.3248798765609488,,163.0
B,L,"[3, 1]",1.0,2.0,0.2814168930053711,1.5676240921020508,0.292369240121159,27.0,164.0
R,U,"[2, 1]",1.0,3.0,0.3547341823577881,2.043272018432617,0.6855827677498836,27.0,165.0
Y,R,"[2, 2]",1.0,4.0,0.4954218864440918,1.9031050205230713,0.40574368909098335,27.0,166.0
G,D,"[3, 2]",0.0,4.0,0.21459317207336426,1.5519590377807617,0.34099656025980607,27.0,167.0
B,L,"[3, 1]",0.0,4.0,0.4287841320037842,1.7986938953399658,0.37299703512231264,27.0,168.0
,,"(3, 3)",,,,,,27.0,
B,L,"[3, 2]",1.0,1.0,0.43477797508239746,2.6056511402130127,0.5286596979493746,,169.0
B,L,"[3, 1]",1.0,2.0,0.20164108276367188,1.530972957611084,0.3432068445969274,28.0,170.0
R,U,"[2, 1]",1.0,3.0,0.2433311939239502,1.6257798671722412,0.3855661454963872,28.0,171.0
Y,R,"[2, 2]",1.0,4.0,0.2621290683746338,1.6634719371795654,0.3991259997807094,28.0,172.0
R,U,"[1, 2]",1.0,5.0,0.6814892292022705,1.9744269847869873,0.29024634416713146,28.0,173.0
B,L,"[1, 1]",-1.0,4.0,0.28908801078796387,1.907754898071289,0.6143710252404407,28.0,174.0
,,"(3, 3)",,,,,,28.0,
B,L,"[3, 2]",1.0,1.0,0.5486218929290771,2.316154956817627,0.26446842034432483,,175.0
B,L,"[3, 1]",1.0,2.0,0.21275115013122559,1.8431029319763184,0.6236102429685417,29.0,176.0
R,U,"[2, 1]",1.0,3.0,0.21843814849853516,1.8791608810424805,0.6527892703593884,29.0,177.0
Y,R,"[2, 2]",1.0,4.0,0.2332310676574707,1.5751070976257324,0.34493644246328603,29.0,178.0
R,U,"[1, 2]",1.0,5.0,0.38265204429626465,2.131537914276123,0.742860664911682,29.0,179.0
R,U,"[0, 2]",0.0,5.0,0.6333229541778564,1.9767730236053467,0.3534032430078238,29.0,180.0
,,"(3, 3)",,,,,,29.0,
B,L,"[3, 2]",1.0,1.0,0.3729209899902344,2.6044888496398926,0.25774624126980333,,181.0
B,L,"[3, 1]",1.0,2.0,0.20817995071411133,1.633970022201538,0.4249577900583672,30.0,182.0
Y,R,"[3, 2]",0.0,2.0,0.21988201141357422,1.7641339302062988,0.5390377103672599,30.0,183.0
R,U,"[2, 2]",1.0,3.0,0.22658085823059082,1.7005469799041748,0.47309954501139106,30.0,184.0
R,U,"[1, 2]",1.0,4.0,0.4273560047149658,1.930171012878418,0.5031115579904453,30.0,185.0
B,L,"[1, 1]",-1.0,3.0,0.5791640281677246,1.877810001373291,0.2811374315899648,30.0,186.0
,,"(3, 3)",,,,,,30.0,
B,L,"[3, 2]",1.0,1.0,0.5476839542388916,3.427042007446289,0.5247507271858642,,187.0
B,L,"[3, 1]",1.0,2.0,0.5742170810699463,1.9501700401306152,0.37530240836344314,31.0,188.0
R,U,"[2, 1]",1.0,3.0,0.7075099945068359,2.23431396484375,0.5258858147578789,31.0,189.0
Y,R,"[2, 2]",1.0,4.0,0.5210168361663818,2.0044519901275635,0.4804698348710956,31.0,190.0
Y,R,"[2, 3]",-1.0,3.0,0.9636709690093994,2.660792112350464,0.6744072304646748,31.0,191.0
G,D,"[3, 3]",0.0,3.0,0.6899621486663818,2.2860219478607178,0.5940469405181434,31.0,192.0
,,"(3, 3)",,,,,,31.0,
B,L,"[3, 2]",1.0,1.0,0.4016709327697754,2.3228578567504883,0.3504991148711255,,193.0
B,L,"[3, 1]",1.0,2.0,0.42904019355773926,1.8402278423309326,0.4073720927111312,32.0,194.0
R,U,"[2, 1]",1.0,3.0,0.20634198188781738,1.9553987979888916,0.7457607132152432,32.0,195.0
Y,R,"[2, 2]",1.0,4.0,0.47017979621887207,2.214231014251709,0.7268483739296148,32.0,196.0
R,U,"[1, 2]",1.0,5.0,0.2574179172515869,1.666499137878418,0.42691574319245595,32.0,197.0
R,U,"[0, 2]",0.0,5.0,0.24899888038635254,1.6552550792694092,0.3988512923540786,32.0,198.0
,,"(3, 3)",,,,,,32.0,
B,L,"[3, 2]",1.0,1.0,0.3982560634613037,2.29107403755188,0.3400442952511876,,199.0
B,L,"[3, 1]",1.0,2.0,0.2978241443634033,2.0052881240844727,0.711626251938218,33.0,200.0
R,U,"[2, 1]",1.0,3.0,0.4008948802947998,1.8108139038085938,0.4063216955458234,33.0,201.0
Y,R,"[2, 2]",1.0,4.0,0.20679092407226562,1.8938560485839844,0.6829860433048873,33.0,202.0
R,U,"[1, 2]",1.0,5.0,0.20841002464294434,1.598647117614746,0.3819622634522817,33.0,203.0
R,U,"[0, 2]",0.0,5.0,0.22333097457885742,1.7961549758911133,0.5614350853308445,33.0,204.0
,,"(3, 3)",,,,,,33.0,
B,L,"[3, 2]",1.0,1.0,0.8842558860778809,6.8498759269714355,0.3284296131417639,,205.0
B,L,"[3, 1]",1.0,2.0,0.25746679306030273,1.8842740058898926,0.6290371290328958,34.0,206.0
R,U,"[2, 1]",-1.0,2.0,0.06129097938537598,5.567768096923828,0.3798594394997866,34.0,207.0
R,U,"[1, 1]",-1.0,1.0,0.23784899711608887,1.9136300086975098,0.6604073798406049,34.0,208.0
Y,R,"[1, 2]",1.0,2.0,0.1881730556488037,1.6696200370788574,0.4801896477134406,34.0,209.0
R,U,"[0, 2]",0.0,2.0,0.20384693145751953,1.9310111999511719,0.7111313840647072,34.0,210.0
,,"(3, 3)",,,,,,34.0,
B,L,"[3, 2]",1.0,1.0,0.5663812160491943,3.1197750568389893,0.3312700920549274,,211.0
B,L,"[3, 1]",1.0,2.0,0.20383810997009277,1.5012099742889404,0.28256989207341004,35.0,212.0
R,U,"[2, 1]",1.0,3.0,0.2689979076385498,1.9127228260040283,0.6283901869061181,35.0,213.0
Y,R,"[2, 2]",1.0,4.0,0.22708415985107422,1.7974638938903809,0.5757724190210822,35.0,214.0
R,U,"[1, 2]",1.0,5.0,0.2298879623413086,1.6081891059875488,0.3508917738566504,35.0,215.0
R,U,"[0, 2]",0.0,5.0,0.32155895233154297,1.9342310428619385,0.6015988505243334,35.0,216.0
,,"(3, 3)",,,,,,35.0,
B,L,"[3, 2]",1.0,1.0,0.5741689205169678,2.8471338748931885,0.7320742300423327,,217.0
B,L,"[3, 1]",1.0,2.0,0.9133279323577881,2.330293893814087,0.41273714409204476,36.0,218.0
R,U,"[2, 1]",1.0,3.0,0.9554259777069092,2.420534133911133,0.4334081666589929,36.0,219.0
Y,R,"[2, 2]",1.0,4.0,0.3395528793334961,1.94569993019104,0.5956585610108114,36.0,220.0
R,U,"[1, 2]",1.0,5.0,0.3242499828338623,1.7531678676605225,0.4323325368619906,36.0,221.0
Y,R,"[1, 3]",1.0,6.0,0.296964168548584,1.5781807899475098,0.2772387117228916,36.0,222.0
,,"(3, 3)",,,,,,36.0,
B,L,"[3, 2]",1.0,1.0,0.39596104621887207,2.9495420455932617,0.27678600406664366,,223.0
B,L,"[3, 1]",1.0,2.0,0.3660318851470947,1.7317380905151367,0.358457455503394,37.0,224.0
R,U,"[2, 1]",1.0,3.0,0.2293250560760498,1.640005111694336,0.41512613615748206,37.0,225.0
Y,R,"[2, 2]",1.0,4.0,0.9438350200653076,2.589772939682007,0.6381142968892459,37.0,226.0
R,U,"[1, 2]",1.0,5.0,0.29784512519836426,2.028230905532837,0.7327612226283984,37.0,227.0
Y,R,"[1, 3]",1.0,6.0,0.38228702545166016,1.7515230178833008,0.35149718567567473,37.0,228.0
,,"(3, 3)",,,,,,37.0,
B,L,"[3, 2]",1.0,1.0,0.5039148330688477,2.64595890045166,0.3142440111192472,,229.0
B,L,"[3, 1]",1.0,2.0,0.2066211700439453,1.7574830055236816,0.538229211958775,38.0,230.0
R,U,"[2, 1]",1.0,3.0,0.30066895484924316,1.721548080444336,0.4098190308538845,38.0,231.0
Y,R,"[2, 2]",1.0,4.0,0.35887885093688965,1.856368064880371,0.4995033427213134,38.0,232.0
R,U,"[1, 2]",1.0,5.0,0.21429896354675293,1.6728200912475586,0.4390442409252997,38.0,233.0
Y,R,"[1, 3]",1.0,6.0,0.1786949634552002,1.4810590744018555,0.30357595853948954,38.0,234.0
,,"(3, 3)",,,,,,38.0,
B,L,"[3, 2]",1.0,1.0,0.39031004905700684,2.5465011596679688,0.3334828220104018,,235.0
B,L,"[3, 1]",-2.0,1.0,1.0785088539123535,2.553493022918701,0.43653633404402203,39.0,236.0
B,L,"[3, 0]",0.0,1.0,0.349560022354126,1.7301459312438965,0.36723550009122563,39.0,237.0
R,U,"[2, 0]",0.0,1.0,0.2675621509552002,1.691715955734253,0.42557296353668983,39.0,238.0
Y,R,"[2, 1]",1.0,2.0,0.12012696266174316,1.5250821113586426,0.400645891805035,39.0,239.0
R,U,"[1, 1]",-1.0,1.0,0.47573280334472656,1.740692138671875,0.25824674688417815,39.0,240.0
,,"(3, 3)",,,,,,39.0,
B,L,"[3, 2]",1.0,1.0,0.38300395011901855,2.8856821060180664,0.5269315853527248,,241.0
B,L,"[3, 1]",1.0,2.0,0.2062079906463623,1.7045409679412842,0.4981300409302484,40.0,242.0
R,U,"[2, 1]",1.0,3.0,0.2948429584503174,1.5648598670959473,0.26346961173262334,40.0,243.0
Y,R,"[2, 2]",1.0,4.0,0.34395503997802734,1.7593820095062256,0.40609813024619934,40.0,244.0
R,U,"[1, 2]",1.0,5.0,0.2581150531768799,1.5540359020233154,0.29350056117938933,40.0,245.0
Y,R,"[1, 3]",1.0,6.0,0.19157814979553223,1.8796257972717285,0.6894340013385565,40.0,246.0
,,"(3, 3)",,,,,,40.0,
B,L,"[3, 2]",1.0,1.0,0.46435093879699707,2.286216974258423,0.44250445806967476,,247.0
B,L,"[3, 1]",1.0,2.0,0.16770291328430176,1.8298540115356445,0.6556635333302383,41.0,248.0
R,U,"[2, 1]",1.0,3.0,0.49941515922546387,1.8268208503723145,0.31603985234119086,41.0,249.0
Y,R,"[2, 2]",1.0,4.0,0.15100598335266113,1.473970890045166,0.30671746376624226,41.0,250.0
R,U,"[1, 2]",1.0,5.0,0.174422025680542,1.5621120929718018,0.38546425641744586,41.0,251.0
Y,R,"[1, 3]",1.0,6.0,0.4030618667602539,2.107771158218384,0.6930348243650992,41.0,252.0
,,"(3, 3)",,,,,,41.0,
B,L,"[3, 2]",1.0,1.0,0.3558030128479004,2.4010300636291504,0.3943883740362921,,253.0
B,L,"[3, 1]",1.0,2.0,0.4795188903808594,1.8563120365142822,0.3674598114424944,42.0,254.0
R,U,"[2, 1]",1.0,3.0,0.9557390213012695,2.22131085395813,0.25563774989265825,42.0,255.0
Y,R,"[2, 2]",1.0,4.0,0.21996808052062988,1.5284671783447266,0.30067495657512333,42.0,256.0
R,U,"[1, 2]",1.0,5.0,0.21144700050354004,1.602189064025879,0.38615501187672396,42.0,257.0
Y,R,"[1, 3]",1.0,6.0,0.1766371726989746,1.5156300067901611,0.33520470584114503,42.0,258.0
,,"(3, 3)",,,,,,42.0,
B,L,"[3, 2]",1.0,1.0,0.3958089351654053,2.5333731174468994,0.7182512812816286,,259.0
B,L,"[3, 1]",1.0,2.0,0.8137760162353516,2.438662052154541,0.6235185143775235,43.0,260.0
R,U,"[2, 1]",1.0,3.0,0.24480581283569336,1.7411279678344727,0.4981288867263976,43.0,261.0
Y,R,"[2, 2]",1.0,4.0,0.2455899715423584,1.6410789489746094,0.38944697765235087,43.0,262.0
R,U,"[1, 2]",1.0,5.0,0.18033409118652344,1.7933900356292725,0.615987342199263,43.0,263.0
Y,R,"[1, 3]",1.0,6.0,0.22844219207763672,1.9831430912017822,0.7491368076957359,43.0,264.0
,,"(3, 3)",,,,,,43.0,
R,U,"[2, 3]",-1.0,-1.0,0.409559965133667,2.5291779041290283,0.2788084919205925,,265.0
B,L,"[2, 2]",1.0,0.0,0.284498929977417,1.835479974746704,0.5472046552732768,44.0,266.0
B,L,"[2, 1]",1.0,1.0,0.20057106018066406,1.5215470790863037,0.3023570899358339,44.0,267.0
R,U,"[1, 1]",-1.0,0.0,0.19003510475158691,1.5619571208953857,0.3643520912065032,44.0,268.0
Y,R,"[1, 2]",1.0,1.0,0.11244702339172363,1.8203458786010742,0.684369172412169,44.0,269.0
R,U,"[0, 2]",0.0,1.0,0.7537188529968262,2.4217090606689453,0.6727767942264948,44.0,270.0
,,"(3, 3)",,,,,,44.0,
B,L,"[3, 2]",1.0,1.0,0.559319019317627,3.090424060821533,0.39689774382319043,,271.0
B,L,"[3, 1]",1.0,2.0,0.231611967086792,1.9035711288452148,0.6670388540796194,45.0,272.0
R,U,"[2, 1]",1.0,3.0,0.2404499053955078,1.794084072113037,0.5444888685155757,45.0,273.0
Y,R,"[2, 2]",1.0,4.0,0.2051229476928711,1.8399240970611572,0.6344180621171156,45.0,274.0
R,U,"[1, 2]",1.0,5.0,0.19321608543395996,1.4626729488372803,0.26424990329690967,45.0,275.0
Y,R,"[1, 3]",1.0,6.0,0.19234204292297363,1.692483901977539,0.48968447517638924,45.0,276.0
,,"(3, 3)",,,,,,45.0,
B,L,"[3, 2]",1.0,1.0,0.43501996994018555,5.664017915725708,0.2707307376089367,,277.0
B,L,"[3, 1]",1.0,2.0,0.33595800399780273,1.6080551147460938,0.26228237074706695,46.0,278.0
R,U,"[2, 1]",1.0,3.0,0.2448110580444336,1.6230239868164062,0.38502982012181086,46.0,279.0
Y,R,"[2, 2]",1.0,4.0,0.1724240779876709,1.9079689979553223,0.7260272577987859,46.0,280.0
R,U,"[1, 2]",1.0,5.0,0.18047189712524414,1.4278080463409424,0.2543356536372864,46.0,281.0
Y,R,"[1, 3]",1.0,6.0,0.20118498802185059,1.5684800148010254,0.3561824371604822,46.0,282.0
,,"(3, 3)",,,,,,46.0,
B,L,"[3, 2]",1.0,1.0,0.467742919921875,3.303079128265381,0.3593651928359467,,283.0
B,L,"[3, 1]",1.0,2.0,0.3537628650665283,1.6286189556121826,0.2713097055884593,47.0,284.0
Y,R,"[3, 2]",-2.0,2.0,2.0867269039154053,3.5994248390197754,0.48665324148139816,47.0,285.0
R,U,"[2, 2]",1.0,3.0,0.295518159866333,1.9429140090942383,0.6466409259365274,47.0,286.0
Y,R,"[2, 3]",-1.0,2.0,0.17865610122680664,1.484480857849121,0.28159946748057024,47.0,287.0
Y,R,"[2, 4]",-1.0,1.0,0.27420997619628906,1.8185689449310303,0.533335637654273,47.0,288.0
,,"(3, 3)",,,,,,47.0,
B,L,"[3, 2]",1.0,1.0,0.5233850479125977,3.617166042327881,0.683708453486054,,289.0
B,L,"[3, 1]",1.0,2.0,0.3945438861846924,2.1325418949127197,0.7329245716353618,48.0,290.0
R,U,"[2, 1]",-1.0,2.0,0.08687615394592285,5.6517651081085205,0.43443116368126866,48.0,291.0
R,U,"[1, 1]",-1.0,1.0,0.28704404830932617,1.7201709747314453,0.43845036700858053,48.0,292.0
B,L,"[1, 0]",0.0,1.0,0.9444539546966553,2.453000068664551,0.5080099935495148,48.0,293.0
Y,R,"[1, 1]",0.0,1.0,0.22352910041809082,1.579909086227417,0.3548069119939941,48.0,294.0
,,"(3, 3)",,,,,,48.0,
B,L,"[3, 2]",1.0,1.0,0.36425089836120605,2.858447790145874,0.4964841102573622,,295.0
B,L,"[3, 1]",1.0,2.0,0.20947909355163574,1.8715410232543945,0.6512976691709431,49.0,296.0
R,U,"[2, 1]",-1.0,2.0,0.023211002349853516,5.887045860290527,0.7378830848641105,49.0,297.0
B,L,"[2, 0]",0.0,2.0,0.4978640079498291,1.9082670211791992,0.3968760923076827,49.0,298.0
Y,R,"[2, 1]",0.0,2.0,0.19650793075561523,1.5289950370788574,0.3259334907673821,49.0,299.0
B,L,"[2, 0]",0.0,2.0,0.22774291038513184,1.52071213722229,0.29677475157730165,49.0,300.0
,,"(3, 3)",,,,,,49.0,
B,L,"[3, 2]",1.0,1.0,0.31195497512817383,2.3924970626831055,0.30603357478227405,,301.0
B,L,"[3, 1]",1.0,2.0,0.8122158050537109,2.203317165374756,0.3925946049418898,50.0,302.0
R,U,"[2, 1]",1.0,3.0,0.6713199615478516,2.0002520084381104,0.32630009316609365,50.0,303.0
Y,R,"[2, 2]",1.0,4.0,0.27039122581481934,1.5661370754241943,0.29241110511422086,50.0,304.0
R,U,"[1, 2]",1.0,5.0,0.3409571647644043,1.6766409873962402,0.3356591535397179,50.0,305.0
Y,R,"[1, 3]",1.0,6.0,0.19545197486877441,1.750256061553955,0.5524910629479014,50.0,306.0
,,"(3, 3)",,,,,,50.0,
B,L,"[3, 2]",1.0,1.0,0.3309590816497803,2.3725571632385254,0.2754278154487902,,307.0
B,L,"[3, 1]",-2.0,1.0,1.0278820991516113,2.6506009101867676,0.5752086995427244,51.0,308.0
B,L,"[3, 0]",0.0,1.0,0.3273460865020752,1.7083380222320557,0.3842772374433816,51.0,309.0
G,D,"[4, 0]",0.0,1.0,0.5436849594116211,1.994847059249878,0.44583467969517193,51.0,310.0
Y,R,"[4, 1]",-1.0,0.0,0.13938498497009277,1.399751901626587,0.26239487113275656,51.0,311.0
B,L,"[4, 0]",0.0,0.0,0.2251908779144287,1.8636178970336914,0.6422892032543366,51.0,312.0
,,"(3, 3)",,,,,,51.0,
B,L,"[3, 2]",1.0,1.0,0.3471500873565674,2.2066149711608887,0.29923842102103804,,313.0
B,L,"[3, 1]",1.0,2.0,0.8519959449768066,2.1418330669403076,0.27446544410407836,52.0,314.0
R,U,"[2, 1]",1.0,3.0,0.2528829574584961,1.5852549076080322,0.32638185324799057,52.0,315.0
Y,R,"[2, 2]",1.0,4.0,0.46441102027893066,1.9065589904785156,0.4328742617366223,52.0,316.0
R,U,"[1, 2]",1.0,5.0,0.20381498336791992,1.5695979595184326,0.35259097300838566,52.0,317.0
Y,R,"[1, 3]",1.0,6.0,0.2051551342010498,1.8167939186096191,0.6025420516180033,52.0,318.0
,,"(3, 3)",,,,,,52.0,
B,L,"[3, 2]",1.0,1.0,0.3896470069885254,2.31170916557312,0.2646355583642011,,319.0
B,L,"[3, 1]",1.0,2.0,0.30098581314086914,1.5745790004730225,0.2559422569895183,53.0,320.0
R,U,"[2, 1]",1.0,3.0,0.22740721702575684,1.8416199684143066,0.6139301750861363,53.0,321.0
Y,R,"[2, 2]",-1.0,3.0,0.005526065826416016,5.836105823516846,0.6994928855997935,53.0,322.0
B,L,"[2, 1]",0.0,3.0,0.4317450523376465,2.034255027770996,0.5843134759179582,53.0,323.0
Y,R,"[2, 2]",0.0,3.0,0.2386760711669922,1.920785903930664,0.6717675127976483,53.0,324.0
,,"(3, 3)",,,,,,53.0,
B,L,"[3, 2]",1.0,1.0,0.27469491958618164,2.879055976867676,0.2680764589577585,,325.0
B,L,"[3, 1]",1.0,2.0,0.7225110530853271,2.4531350135803223,0.7206461046429466,54.0,326.0
R,U,"[2, 1]",1.0,3.0,0.9638450145721436,2.470367908477783,0.5078551609632975,54.0,327.0
Y,R,"[2, 2]",1.0,4.0,0.7681009769439697,2.3302161693573,0.5713754036848437,54.0,328.0
R,U,"[1, 2]",1.0,5.0,0.4767310619354248,1.9349329471588135,0.4565720850811165,54.0,329.0
Y,R,"[1, 3]",1.0,6.0,0.40792298316955566,1.9802260398864746,0.5700246362625182,54.0,330.0
,,"(3, 3)",,,,,,54.0,
B,L,"[3, 2]",-2.0,0.0,1.6662590503692627,4.594584941864014,0.4309346303990266,,331.0
B,L,"[3, 1]",1.0,1.0,0.2610490322113037,1.5987300872802734,0.3302089923711361,55.0,332.0
B,L,"[3, 0]",0.0,1.0,0.2722508907318115,2.028538942337036,0.7417068583565033,55.0,333.0
R,U,"[2, 0]",0.0,1.0,0.2178361415863037,1.4659199714660645,0.2581322029396714,55.0,334.0
Y,R,"[2, 1]",1.0,2.0,0.21393084526062012,1.5147881507873535,0.289750592371861,55.0,335.0
R,U,"[1, 1]",-1.0,1.0,0.22031307220458984,1.7018511295318604,0.47473770421581424,55.0,336.0
,,"(3, 3)",,,,,,55.0,
B,L,"[3, 2]",1.0,1.0,0.4251279830932617,2.5259299278259277,0.5007547431828782,,337.0
B,L,"[3, 1]",1.0,2.0,0.835129976272583,2.146984815597534,0.29811079830988746,56.0,338.0
R,U,"[2, 1]",1.0,3.0,0.779339075088501,2.321367025375366,0.5357920362766093,56.0,339.0
Y,R,"[2, 2]",1.0,4.0,0.6116518974304199,1.8901309967041016,0.2761658884926478,56.0,340.0
R,U,"[1, 2]",1.0,5.0,0.44418907165527344,2.0887441635131836,0.6478338831317285,56.0,341.0
Y,R,"[1, 3]",1.0,6.0,0.4444129467010498,1.9774560928344727,0.525530143583296,56.0,342.0
,,"(3, 3)",,,,,,56.0,
B,L,"[3, 2]",1.0,1.0,0.4864468574523926,2.5746419429779053,0.5836579263033772,,343.0
B,L,"[3, 1]",1.0,2.0,0.864753007888794,2.1798369884490967,0.2969031980290851,57.0,344.0
R,U,"[2, 1]",1.0,3.0,0.4094429016113281,1.7618908882141113,0.3421058256305443,57.0,345.0
Y,R,"[2, 2]",1.0,4.0,0.509315013885498,1.980586051940918,0.4726498072115666,57.0,346.0
R,U,"[1, 2]",1.0,5.0,0.2921011447906494,1.552145004272461,0.2583664523837647,57.0,347.0
Y,R,"[1, 3]",1.0,6.0,0.3061239719390869,1.8387279510498047,0.5301892566238393,57.0,348.0
,,"(3, 3)",,,,,,57.0,
B,L,"[3, 2]",1.0,1.0,0.38298988342285156,2.6546878814697266,0.2850616376512611,,349.0
B,L,"[3, 1]",1.0,2.0,0.4115591049194336,1.921003818511963,0.5059036151452289,58.0,350.0
R,U,"[2, 1]",-1.0,2.0,0.0328221321105957,5.782992839813232,0.6219099793569093,58.0,351.0
G,D,"[3, 1]",0.0,2.0,0.4645371437072754,2.0142648220062256,0.5532209506036312,58.0,352.0
Y,R,"[3, 2]",0.0,2.0,0.4839208126068115,1.9006319046020508,0.4205927403716731,58.0,353.0
B,L,"[3, 1]",0.0,2.0,0.22301697731018066,1.9274301528930664,0.6978538756410138,58.0,354.0
,,"(3, 3)",,,,,,58.0,
B,L,"[3, 2]",-2.0,0.0,1.0955440998077393,3.508568048477173,0.2898268110150467,,355.0
B,L,"[3, 1]",1.0,1.0,0.47379088401794434,1.9825420379638672,0.5060645216679134,59.0,356.0
R,U,"[2, 1]",1.0,2.0,0.21483397483825684,1.7816221714019775,0.5543101976697864,59.0,357.0
Y,R,"[2, 2]",1.0,3.0,0.1932830810546875,1.9363059997558594,0.7404352010058461,59.0,358.0
R,U,"[1, 2]",1.0,4.0,0.17516398429870605,1.5133850574493408,0.3374899006994498,59.0,359.0
Y,R,"[1, 3]",1.0,5.0,0.18053007125854492,1.815373182296753,0.6359525386155628,59.0,360.0
,,"(3, 3)",,,,,,59.0,
B,L,"[3, 2]",1.0,1.0,0.34317922592163086,2.444164991378784,0.6302926101501256,,361.0
R,U,"[2, 2]",1.0,2.0,0.33287692070007324,1.6372201442718506,0.28444387830180723,60.0,362.0
Y,R,"[2, 3]",-1.0,1.0,0.19759607315063477,1.4906690120697021,0.29178189287009987,60.0,363.0
R,U,"[1, 3]",1.0,2.0,0.20276594161987305,1.8107609748840332,0.6022277526610358,60.0,364.0
Y,R,"[1, 4]",-1.0,1.0,0.29892396926879883,1.8425037860870361,0.5281553822079668,60.0,365.0
B,L,"[1, 3]",0.0,1.0,0.6084129810333252,2.3335940837860107,0.7282361119132985,60.0,366.0
,,"(3, 3)",,,,,,60.0,
B,L,"[3, 2]",1.0,1.0,0.4020111560821533,2.430999994277954,0.7093739268857449,,367.0
B,L,"[3, 1]",1.0,2.0,0.20144200325012207,1.8863239288330078,0.679158224338108,61.0,368.0
R,U,"[2, 1]",1.0,3.0,0.1992330551147461,1.6749889850616455,0.45441564083309915,61.0,369.0
Y,R,"[2, 2]",1.0,4.0,0.39236998558044434,1.6900670528411865,0.2945376789854379,61.0,370.0
R,U,"[1, 2]",1.0,5.0,0.3092639446258545,1.719088077545166,0.4136299008003539,61.0,371.0
B,L,"[1, 1]",-1.0,4.0,0.29181909561157227,1.9079890251159668,0.6048074166512494,61.0,372.0
,,"(3, 3)",,,,,,61.0,
B,L,"[3, 2]",1.0,1.0,0.3090980052947998,2.3683319091796875,0.33999575937586535,,373.0
B,L,"[3, 1]",1.0,2.0,0.2314910888671875,1.7840359210968018,0.5405212220735449,62.0,374.0
R,U,"[2, 1]",1.0,3.0,0.20816588401794434,1.5937719345092773,0.38445073472805297,62.0,375.0
Y,R,"[2, 2]",1.0,4.0,0.20808196067810059,1.561974048614502,0.34648248152511496,62.0,376.0
R,U,"[1, 2]",1.0,5.0,0.174454927444458,1.496377944946289,0.3096116397759494,62.0,377.0
Y,R,"[1, 3]",1.0,6.0,0.19815897941589355,1.7917380332946777,0.6011069749591632,62.0,378.0
,,"(3, 3)",,,,,,62.0,
B,L,"[3, 2]",1.0,1.0,0.40576601028442383,2.2887561321258545,0.47348143673650667,,379.0
B,L,"[3, 1]",-1.0,1.0,0.09894204139709473,5.862633943557739,0.6188552624141299,63.0,380.0
R,U,"[2, 1]",1.0,2.0,0.19774818420410156,1.6980791091918945,0.5009050415082855,63.0,381.0
R,U,"[1, 1]",-1.0,1.0,0.24276113510131836,1.7656259536743164,0.5164470178269995,63.0,382.0
Y,R,"[1, 2]",1.0,2.0,0.19298005104064941,1.8916699886322021,0.691499232400785,63.0,383.0
R,U,"[0, 2]",0.0,2.0,0.20301604270935059,1.7545409202575684,0.5627002946051971,63.0,384.0
,,"(3, 3)",,,,,,63.0,
B,L,"[3, 2]",1.0,1.0,0.30493783950805664,3.7415459156036377,0.27139965802436455,,385.0
B,L,"[3, 1]",1.0,2.0,0.2758800983428955,1.7688648700714111,0.4900832350823674,64.0,386.0
R,U,"[2, 1]",1.0,3.0,0.17972397804260254,1.8903119564056396,0.6967541999549439,64.0,387.0
Y,R,"[2, 2]",1.0,4.0,0.2544689178466797,1.804786205291748,0.535146518942339,64.0,388.0
R,U,"[1, 2]",1.0,5.0,0.22051000595092773,1.8180758953094482,0.6030583895981894,64.0,389.0
Y,R,"[1, 3]",1.0,6.0,0.19089317321777344,1.7934348583221436,0.5965157522031188,64.0,390.0
,,"(3, 3)",,,,,,64.0,
B,L,"[3, 2]",1.0,1.0,0.5266709327697754,6.533638000488281,0.730402609353819,,391.0
B,L,"[3, 1]",1.0,2.0,0.4067199230194092,2.1397769451141357,0.7199100034260502,65.0,392.0
R,U,"[2, 1]",1.0,3.0,0.5795168876647949,2.1234028339385986,0.5436760708042137,65.0,393.0
Y,R,"[2, 2]",1.0,4.0,0.24482083320617676,1.7438859939575195,0.503942473469247,65.0,394.0
R,U,"[1, 2]",1.0,5.0,0.24800395965576172,1.6978089809417725,0.45206815368457437,65.0,395.0
Y,R,"[1, 3]",1.0,6.0,0.18203496932983398,1.5542011260986328,0.3729955518842121,65.0,396.0
,,"(3, 3)",,,,,,65.0,
B,L,"[3, 2]",1.0,1.0,0.36484599113464355,2.0321431159973145,0.33866930498651454,,397.0
B,L,"[3, 1]",1.0,2.0,0.4397099018096924,1.947587013244629,0.5028364993531895,66.0,398.0
R,U,"[2, 1]",1.0,3.0,0.17585515975952148,1.618013858795166,0.43745131063606796,66.0,399.0
Y,R,"[2, 2]",1.0,4.0,0.2812480926513672,1.9313929080963135,0.6353397679461507,66.0,400.0
R,U,"[1, 2]",1.0,5.0,0.23620390892028809,1.9566340446472168,0.7086624244398145,66.0,401.0
Y,R,"[1, 3]",1.0,6.0,0.15915799140930176,1.8975939750671387,0.7398369136745807,66.0,402.0
,,"(3, 3)",,,,,,66.0,
B,L,"[3, 2]",-1.0,-1.0,0.7560198307037354,2.9524619579315186,0.4591814808246088,,403.0
R,U,"[2, 2]",-1.0,-2.0,0.251115083694458,1.8565778732299805,0.5989879382809705,67.0,404.0
B,L,"[2, 1]",-1.0,-3.0,0.25065112113952637,1.945897102355957,0.6781285221673229,67.0,405.0
Y,R,"[2, 2]",-1.0,-4.0,0.24654603004455566,1.5694050788879395,0.3311890767876033,67.0,406.0
G,D,"[3, 2]",-1.0,-5.0,0.2541987895965576,1.8483929634094238,0.5794423505795625,67.0,407.0
B,L,"[3, 1]",1.0,-4.0,0.2421889305114746,1.562039852142334,0.3084700984039331,67.0,408.0
,,"(3, 3)",,,,,,67.0,
B,L,"[3, 2]",-1.0,-1.0,0.36798787117004395,2.3943259716033936,0.452625456795606,,409.0
Y,R,"[3, 3]",-2.0,-3.0,0.33220577239990234,1.9116668701171875,0.5641860821927218,68.0,410.0
Y,R,"[3, 4]",-1.0,-4.0,0.3586618900299072,1.8040258884429932,0.43497340958965097,68.0,411.0
Y,R,"[3, 5]",-1.0,-5.0,0.20994186401367188,1.5871639251708984,0.37227618484433633,68.0,412.0
G,D,"[4, 5]",-1.0,-6.0,0.41541099548339844,1.6636831760406494,0.252654707755279,68.0,413.0
G,D,"[5, 5]",-2.0,-6.0,1.203613042831421,2.7450919151306152,0.4971925008214394,68.0,414.0
,,"(3, 3)",,,,,,68.0,
G,D,"[4, 3]",1.0,1.0,0.25603604316711426,2.9710299968719482,0.7351631165912762,,415.0
G,D,"[5, 3]",1.0,2.0,0.34275197982788086,1.6381011009216309,0.29041017836748706,69.0,416.0
Y,R,"[5, 4]",-1.0,1.0,0.2879810333251953,1.76993989944458,0.4767504141080055,69.0,417.0
G,D,"[6, 4]",0.0,1.0,0.19549298286437988,1.510071039199829,0.3203171930041594,69.0,418.0
B,L,"[6, 3]",0.0,1.0,0.23300600051879883,1.9491450786590576,0.7192155176855461,69.0,419.0
R,U,"[5, 3]",1.0,2.0,0.3361530303955078,1.7317640781402588,0.38464140095918464,69.0,420.0
,,"(3, 3)",,,,,,69.0,
G,D,"[4, 3]",1.0,1.0,0.22375106811523438,2.3290340900421143,0.5634964526821599,,421.0
G,D,"[5, 3]",1.0,2.0,0.19728493690490723,1.682955026626587,0.46330903766034454,70.0,422.0
R,U,"[4, 3]",1.0,3.0,0.20972895622253418,1.6601669788360596,0.440143015323759,70.0,423.0
R,U,"[3, 3]",-2.0,1.0,0.19338512420654297,1.8428819179534912,0.6329651619208838,70.0,424.0
G,D,"[4, 3]",1.0,2.0,0.23716998100280762,1.7298848628997803,0.4797236116820406,70.0,425.0
G,D,"[5, 3]",1.0,3.0,0.2908351421356201,1.748047113418579,0.44438267144470917,70.0,426.0
,,"(3, 3)",,,,,,70.0,
G,D,"[4, 3]",1.0,1.0,0.27602505683898926,2.8950600624084473,0.672571029798703,,427.0
G,D,"[5, 3]",1.0,2.0,0.2109830379486084,1.8897249698638916,0.6789522665820327,71.0,428.0
R,U,"[4, 3]",1.0,3.0,0.20355510711669922,1.619420051574707,0.41547335816462067,71.0,429.0
G,D,"[5, 3]",1.0,4.0,0.17826485633850098,1.9031169414520264,0.7181843223857254,71.0,430.0
G,D,"[6, 3]",-1.0,4.0,0.024136066436767578,5.52897310256958,0.3637850198750095,71.0,431.0
B,L,"[6, 2]",0.0,4.0,0.20708394050598145,1.8179361820220947,0.5986385107786879,71.0,432.0
,,"(3, 3)",,,,,,71.0,
G,D,"[4, 3]",1.0,1.0,0.31770801544189453,2.543215036392212,0.3255914244991111,,433.0
G,D,"[5, 3]",1.0,2.0,0.4022397994995117,1.9360120296478271,0.5281944861837299,72.0,434.0
R,U,"[4, 3]",1.0,3.0,0.4029419422149658,1.8607690334320068,0.4557076985812679,72.0,435.0
G,D,"[5, 3]",1.0,4.0,0.40532708168029785,2.154458999633789,0.7431502696827854,72.0,436.0
G,D,"[6, 3]",0.0,4.0,0.23938703536987305,1.8099768161773682,0.5699200018064754,72.0,437.0
B,L,"[6, 2]",0.0,4.0,0.21610593795776367,1.9173288345336914,0.703922454635463,72.0,438.0
,,"(3, 3)",,,,,,72.0,
G,D,"[4, 3]",1.0,1.0,0.4921090602874756,2.5967559814453125,0.6841249206472282,,439.0
G,D,"[5, 3]",1.0,2.0,0.29353904724121094,1.9346911907196045,0.6354437730081761,73.0,440.0
R,U,"[4, 3]",1.0,3.0,0.26906394958496094,1.9677410125732422,0.6865359612419543,73.0,441.0
G,D,"[5, 3]",1.0,4.0,0.20919013023376465,1.7720680236816406,0.558716340648942,73.0,442.0
G,D,"[6, 3]",0.0,4.0,0.38890600204467773,1.9473679065704346,0.5560656807907267,73.0,443.0
R,U,"[5, 3]",1.0,5.0,0.48505687713623047,2.1578450202941895,0.6638789898505906,73.0,444.0
,,"(3, 3)",,,,,,73.0,
G,D,"[4, 3]",1.0,1.0,0.9190120697021484,3.1099660396575928,0.37416293509467313,,445.0
G,D,"[5, 3]",1.0,2.0,0.4673938751220703,1.8191680908203125,0.34341581525187065,74.0,446.0
R,U,"[4, 3]",1.0,3.0,0.37906312942504883,1.980809211730957,0.6074038972364705,74.0,447.0
G,D,"[5, 3]",1.0,4.0,0.19559192657470703,1.5701580047607422,0.37774101868194593,74.0,448.0
R,U,"[4, 3]",1.0,5.0,0.1869339942932129,1.631795883178711,0.4428247409537016,74.0,449.0
G,D,"[5, 3]",1.0,6.0,0.26064300537109375,1.6310641765594482,0.3740003089674247,74.0,450.0
,,"(3, 3)",,,,,,74.0,
G,D,"[4, 3]",1.0,1.0,0.17962312698364258,2.1481680870056152,0.6054376810472141,,451.0
G,D,"[5, 3]",1.0,2.0,0.3475339412689209,1.8387091159820557,0.4775713217906667,75.0,452.0
R,U,"[4, 3]",1.0,3.0,0.2774500846862793,1.590580940246582,0.3184171457830548,75.0,453.0
G,D,"[5, 3]",1.0,4.0,0.373445987701416,2.0899770259857178,0.7080401855353773,75.0,454.0
R,U,"[4, 3]",-1.0,4.0,0.035948991775512695,5.493265867233276,0.3345739679573382,75.0,455.0
G,D,"[5, 3]",1.0,5.0,0.4734480381011963,1.8317949771881104,0.35025080730053326,75.0,456.0
,,"(3, 3)",,,,,,75.0,
G,D,"[4, 3]",1.0,1.0,0.18801498413085938,3.032222032546997,0.28261310854669397,,457.0
G,D,"[5, 3]",1.0,2.0,0.418748140335083,2.0784900188446045,0.6439102241330099,76.0,458.0
R,U,"[4, 3]",1.0,3.0,0.41610193252563477,1.842555046081543,0.4200691156538974,76.0,459.0
G,D,"[5, 3]",1.0,4.0,0.4621870517730713,1.9054481983184814,0.4422423162790967,76.0,460.0
R,U,"[4, 3]",1.0,5.0,0.3202509880065918,2.0002858638763428,0.675713541817945,76.0,461.0
G,D,"[5, 3]",1.0,6.0,0.28850388526916504,1.7549769878387451,0.46431062740075474,76.0,462.0
,,"(3, 3)",,,,,,76.0,
G,D,"[4, 3]",1.0,1.0,0.3748478889465332,2.4765050411224365,0.6572273484332583,,463.0
G,D,"[5, 3]",1.0,2.0,0.28108906745910645,1.6365630626678467,0.3609294132334633,77.0,464.0
R,U,"[4, 3]",1.0,3.0,0.7659142017364502,2.363682985305786,0.591086113666246,77.0,465.0
G,D,"[5, 3]",1.0,4.0,0.4414181709289551,2.0768110752105713,0.6344394774723157,77.0,466.0
R,U,"[4, 3]",1.0,5.0,0.5719699859619141,2.16058087348938,0.5783646672680436,77.0,467.0
G,D,"[5, 3]",1.0,6.0,0.19411015510559082,1.7041280269622803,0.5158815314774763,77.0,468.0
,,"(3, 3)",,,,,,77.0,
G,D,"[4, 3]",1.0,1.0,0.6925308704376221,4.786439895629883,0.5025039871731465,,469.0
G,D,"[5, 3]",1.0,2.0,0.20812201499938965,1.648494005203247,0.4343873877038408,78.0,470.0
R,U,"[4, 3]",1.0,3.0,0.4183650016784668,1.9736859798431396,0.5414292140080674,78.0,471.0
G,D,"[5, 3]",1.0,4.0,0.4197721481323242,1.846325159072876,0.4211471132937974,78.0,472.0
R,U,"[4, 3]",1.0,5.0,0.26493406295776367,1.9169039726257324,0.6378455706418452,78.0,473.0
G,D,"[5, 3]",1.0,6.0,0.22406387329101562,1.6657450199127197,0.4372644524950725,78.0,474.0
,,"(3, 3)",,,,,,78.0,
G,D,"[4, 3]",1.0,1.0,0.3829030990600586,2.357071876525879,0.627885775314315,,475.0
G,D,"[5, 3]",1.0,2.0,0.4247100353240967,1.9007890224456787,0.4783226513959226,79.0,476.0
R,U,"[4, 3]",1.0,3.0,0.3607618808746338,1.8966012001037598,0.5416602818555096,79.0,477.0
G,D,"[5, 3]",1.0,4.0,0.2546579837799072,1.7535710334777832,0.4952542052943837,79.0,478.0
R,U,"[4, 3]",1.0,5.0,0.29882097244262695,1.8660469055175781,0.5613722050358161,79.0,479.0
G,D,"[5, 3]",1.0,6.0,0.38304591178894043,2.0121798515319824,0.6234261009548172,79.0,480.0
,,"(3, 3)",,,,,,79.0,
G,D,"[4, 3]",1.0,1.0,0.8730020523071289,3.0250980854034424,0.6319066880113606,,481.0
G,D,"[5, 3]",1.0,2.0,0.1563119888305664,1.8981590270996094,0.7300222952272595,80.0,482.0
R,U,"[4, 3]",1.0,3.0,0.1925489902496338,1.5938749313354492,0.39095345027346573,80.0,483.0
G,D,"[5, 3]",1.0,4.0,0.6061971187591553,2.2879931926727295,0.6785600876950073,80.0,484.0
R,U,"[4, 3]",1.0,5.0,0.1988811492919922,1.7348809242248535,0.5303454818572304,80.0,485.0
G,D,"[5, 3]",1.0,6.0,0.223067045211792,1.925544023513794,0.6890544171712214,80.0,486.0
,,"(3, 3)",,,,,,80.0,
G,D,"[4, 3]",1.0,1.0,0.44342684745788574,2.3577840328216553,0.3306668384946511,,487.0
G,D,"[5, 3]",1.0,2.0,0.17009902000427246,1.7710270881652832,0.5846917549598237,81.0,488.0
R,U,"[4, 3]",1.0,3.0,0.17474102973937988,1.6309900283813477,0.44918913244453373,81.0,489.0
G,D,"[5, 3]",1.0,4.0,0.16010499000549316,1.5936529636383057,0.42633880532364293,81.0,490.0
R,U,"[4, 3]",1.0,5.0,0.1768040657043457,1.8228888511657715,0.6491605906471565,81.0,491.0
G,D,"[5, 3]",1.0,6.0,0.2605290412902832,1.687412977218628,0.4201475809579569,81.0,492.0
,,"(3, 3)",,,,,,81.0,
G,D,"[4, 3]",1.0,1.0,0.39645886421203613,2.8247640132904053,0.3117143010731051,,493.0
G,D,"[5, 3]",1.0,2.0,0.26648592948913574,1.6758861541748047,0.4042094913645105,82.0,494.0
R,U,"[4, 3]",-2.0,2.0,1.1164288520812988,2.494590997695923,0.3483106948253061,82.0,495.0
G,D,"[5, 3]",1.0,3.0,0.410336971282959,1.7349040508270264,0.31711701907017514,82.0,496.0
R,U,"[4, 3]",1.0,4.0,0.2198200225830078,1.7110869884490967,0.47810411040600514,82.0,497.0
R,U,"[3, 3]",-2.0,2.0,0.5931649208068848,2.0149898529052734,0.4098927536364636,82.0,498.0
,,"(3, 3)",,,,,,82.0,
G,D,"[4, 3]",1.0,1.0,0.3815889358520508,2.1902530193328857,0.3666857171535635,,499.0
G,D,"[5, 3]",1.0,2.0,0.2610189914703369,1.5855259895324707,0.31893125663728106,83.0,500.0
R,U,"[4, 3]",1.0,3.0,0.2272500991821289,1.8638877868652344,0.6325714592642835,83.0,501.0
G,D,"[5, 3]",1.0,4.0,0.33193397521972656,1.7962758541107178,0.4624585345792665,83.0,502.0
R,U,"[4, 3]",1.0,5.0,0.5044338703155518,1.9430568218231201,0.43887362893152415,83.0,503.0
G,D,"[5, 3]",1.0,6.0,0.30232882499694824,1.6181988716125488,0.30721850709164356,83.0,504.0
,,"(3, 3)",,,,,,83.0,
G,D,"[4, 3]",1.0,1.0,0.4254179000854492,2.603470802307129,0.6272520805047227,,505.0
G,D,"[5, 3]",1.0,2.0,0.25098109245300293,1.6405689716339111,0.38478301159867645,84.0,506.0
R,U,"[4, 3]",1.0,3.0,0.2669229507446289,1.9825091361999512,0.7002343815112957,84.0,507.0
G,D,"[5, 3]",1.0,4.0,0.12089085578918457,1.3849809169769287,0.2523861070725547,84.0,508.0
R,U,"[4, 3]",1.0,5.0,0.4213700294494629,1.795064926147461,0.38069283828469236,84.0,509.0
G,D,"[5, 3]",1.0,6.0,0.3654308319091797,1.8691580295562744,0.4830983867260622,84.0,510.0
,,"(3, 3)",,,,,,84.0,
G,D,"[4, 3]",1.0,1.0,0.3580899238586426,3.7083940505981445,0.27505116980224703,,511.0
G,D,"[5, 3]",1.0,2.0,0.3849620819091797,1.9676730632781982,0.5756737781236736,85.0,512.0
R,U,"[4, 3]",1.0,3.0,0.2588369846343994,1.7057690620422363,0.4482943556936344,85.0,513.0
G,D,"[5, 3]",1.0,4.0,0.33494114875793457,2.084476947784424,0.7324741903452441,85.0,514.0
R,U,"[4, 3]",1.0,5.0,0.26999592781066895,1.9887070655822754,0.7045855712858615,85.0,515.0
G,D,"[5, 3]",1.0,6.0,0.2441411018371582,1.540480136871338,0.29564702601376847,85.0,516.0
,,"(3, 3)",,,,,,85.0,
G,D,"[4, 3]",1.0,1.0,0.4442410469055176,2.3947269916534424,0.5567387269319168,,517.0
G,D,"[5, 3]",1.0,2.0,0.7089579105377197,2.2003819942474365,0.49050870756693343,86.0,518.0
R,U,"[4, 3]",1.0,3.0,0.24714994430541992,1.6562838554382324,0.41355422535933967,86.0,519.0
G,D,"[5, 3]",1.0,4.0,0.21129822731018066,1.8468101024627686,0.6269292396231507,86.0,520.0
R,U,"[4, 3]",1.0,5.0,0.38904905319213867,1.929286003112793,0.5396460552666631,86.0,521.0
G,D,"[5, 3]",1.0,6.0,0.26194000244140625,1.5560550689697266,0.29588412103288564,86.0,522.0
,,"(3, 3)",,,,,,86.0,
G,D,"[4, 3]",1.0,1.0,0.36055707931518555,2.611111879348755,0.35708024039276764,,523.0
G,D,"[5, 3]",1.0,2.0,0.34354686737060547,1.9694011211395264,0.6261663039809116,87.0,524.0
R,U,"[4, 3]",1.0,3.0,0.3368251323699951,1.6163330078125,0.2761195395938375,87.0,525.0
G,D,"[5, 3]",1.0,4.0,0.48720312118530273,1.7762260437011719,0.2857421460208152,87.0,526.0
R,U,"[4, 3]",1.0,5.0,0.40389204025268555,2.055461883544922,0.6412147584542084,87.0,527.0
G,D,"[5, 3]",1.0,6.0,0.41006898880004883,1.7227849960327148,0.31413369841249006,87.0,528.0
,,"(3, 3)",,,,,,87.0,
G,D,"[4, 3]",1.0,1.0,0.39438295364379883,3.008013963699341,0.4054280144577956,,529.0
G,D,"[5, 3]",1.0,2.0,0.28385496139526367,1.695835828781128,0.4012477353523943,88.0,530.0
R,U,"[4, 3]",1.0,3.0,0.41017699241638184,1.9981560707092285,0.582652222380333,88.0,531.0
G,D,"[5, 3]",1.0,4.0,0.2651479244232178,1.8061628341674805,0.5223016423193916,88.0,532.0
R,U,"[4, 3]",1.0,5.0,0.5421068668365479,2.2215068340301514,0.6768974774748606,88.0,533.0
G,D,"[5, 3]",1.0,6.0,0.24975991249084473,1.797194004058838,0.5409760342868597,88.0,534.0
,,"(3, 3)",,,,,,88.0,
G,D,"[4, 3]",1.0,1.0,0.7811050415039062,2.9912240505218506,0.3990749438851536,,535.0
G,D,"[5, 3]",1.0,2.0,0.33768200874328613,1.8480110168457031,0.49697175990434783,89.0,536.0
R,U,"[4, 3]",1.0,3.0,0.23764491081237793,1.6301031112670898,0.3772143520278073,89.0,537.0
G,D,"[5, 3]",1.0,4.0,0.2564091682434082,1.9586069583892822,0.7021905108029509,89.0,538.0
R,U,"[4, 3]",1.0,5.0,0.285477876663208,1.5990748405456543,0.30178304340013656,89.0,539.0
G,D,"[5, 3]",1.0,6.0,0.3087289333343506,1.869886875152588,0.554685417690616,89.0,540.0
,,"(3, 3)",,,,,,89.0,
G,D,"[4, 3]",1.0,1.0,0.20671486854553223,2.448969841003418,0.4204168757354715,,541.0
G,D,"[5, 3]",1.0,2.0,0.4378669261932373,2.066584825515747,0.6202137398980156,90.0,542.0
R,U,"[4, 3]",1.0,3.0,0.23027801513671875,1.6616840362548828,0.43212795749509003,90.0,543.0
G,D,"[5, 3]",1.0,4.0,0.35678696632385254,2.0023880004882812,0.6342396177086511,90.0,544.0
R,U,"[4, 3]",1.0,5.0,0.41166114807128906,2.0788509845733643,0.6632647159988585,90.0,545.0
G,D,"[5, 3]",1.0,6.0,0.19895100593566895,1.6049201488494873,0.3850402185114372,90.0,546.0
,,"(3, 3)",,,,,,90.0,
G,D,"[4, 3]",1.0,1.0,0.5900669097900391,2.7154619693756104,0.7335213468618833,,547.0
G,D,"[5, 3]",1.0,2.0,0.302933931350708,1.6248681545257568,0.308805832929059,91.0,548.0
R,U,"[4, 3]",1.0,3.0,0.20332717895507812,1.505798101425171,0.29802654170634624,91.0,549.0
G,D,"[5, 3]",1.0,4.0,0.32711291313171387,2.0533289909362793,0.7178229088352239,91.0,550.0
R,U,"[4, 3]",1.0,5.0,0.6542201042175293,2.35695219039917,0.6914803700636503,91.0,551.0
G,D,"[5, 3]",1.0,6.0,0.48520588874816895,2.207706928253174,0.7156943531202229,91.0,552.0
,,"(3, 3)",,,,,,91.0,
G,D,"[4, 3]",1.0,1.0,0.28746986389160156,2.9317870140075684,0.697497265194682,,553.0
G,D,"[5, 3]",1.0,2.0,0.2701869010925293,1.7387480735778809,0.4532190095236944,92.0,554.0
R,U,"[4, 3]",1.0,3.0,0.41877293586730957,1.9930799007415771,0.5629302638810958,92.0,555.0
G,D,"[5, 3]",1.0,4.0,0.43186283111572266,1.7943670749664307,0.34084562892405634,92.0,556.0
R,U,"[4, 3]",1.0,5.0,0.33260583877563477,1.961742877960205,0.6189938445395682,92.0,557.0
G,D,"[5, 3]",1.0,6.0,0.3031501770019531,1.8654060363769531,0.5511786129059832,92.0,558.0
,,"(3, 3)",,,,,,92.0,
G,D,"[4, 3]",1.0,1.0,0.40476012229919434,2.0599169731140137,0.36134861551018727,,559.0
G,D,"[5, 3]",1.0,2.0,0.3056039810180664,1.6825358867645264,0.37728683246415307,93.0,560.0
R,U,"[4, 3]",1.0,3.0,0.40714097023010254,2.0311150550842285,0.6248457149796433,93.0,561.0
G,D,"[5, 3]",1.0,4.0,0.2518930435180664,1.9687108993530273,0.7101967837607697,93.0,562.0
R,U,"[4, 3]",1.0,5.0,0.18951201438903809,1.5543560981750488,0.3649893194417525,93.0,563.0
G,D,"[5, 3]",1.0,6.0,0.2566349506378174,1.6356840133666992,0.36727751462149094,93.0,564.0
,,"(3, 3)",,,,,,93.0,
G,D,"[4, 3]",1.0,1.0,0.4370300769805908,2.4523189067840576,0.31968624584827565,,565.0
G,D,"[5, 3]",1.0,2.0,0.45845794677734375,1.8118820190429688,0.34811231274514254,94.0,566.0
R,U,"[4, 3]",1.0,3.0,0.22989892959594727,1.737774133682251,0.5024910370436653,94.0,567.0
G,D,"[5, 3]",1.0,4.0,0.20284795761108398,1.8679780960083008,0.6537302448349936,94.0,568.0
R,U,"[4, 3]",1.0,5.0,0.25812697410583496,1.6509411334991455,0.38847342110184,94.0,569.0
G,D,"[5, 3]",1.0,6.0,0.35512399673461914,2.08617901802063,0.7241667578650797,94.0,570.0
,,"(3, 3)",,,,,,94.0,
G,D,"[4, 3]",1.0,1.0,0.5817890167236328,2.6969900131225586,0.7213286963104938,,571.0
G,D,"[5, 3]",1.0,2.0,0.19491910934448242,1.470073938369751,0.27512966334320055,95.0,572.0
R,U,"[4, 3]",1.0,3.0,0.22161412239074707,1.7543370723724365,0.5293204325551657,95.0,573.0
G,D,"[5, 3]",1.0,4.0,0.2294139862060547,1.8655550479888916,0.644745159523676,95.0,574.0
R,U,"[4, 3]",1.0,5.0,0.19694304466247559,1.486746072769165,0.29852374907386664,95.0,575.0
G,D,"[5, 3]",1.0,6.0,0.24995899200439453,1.5549631118774414,0.28693300882510475,95.0,576.0
,,"(3, 3)",,,,,,95.0,
G,D,"[4, 3]",1.0,1.0,0.2292780876159668,2.593614101409912,0.713304514488428,,577.0
G,D,"[5, 3]",1.0,2.0,0.2090468406677246,1.685624122619629,0.46601449391611327,96.0,578.0
R,U,"[4, 3]",1.0,3.0,0.27090001106262207,1.915215015411377,0.6310114048047823,96.0,579.0
G,D,"[5, 3]",1.0,4.0,0.30010199546813965,1.8227930068969727,0.5039445747689698,96.0,580.0
R,U,"[4, 3]",1.0,5.0,0.583388090133667,1.9571969509124756,0.3613132902796054,96.0,581.0
G,D,"[5, 3]",1.0,6.0,0.4224979877471924,1.723905086517334,0.3020048019445781,96.0,582.0
,,"(3, 3)",,,,,,96.0,
G,D,"[4, 3]",1.0,1.0,0.4509928226470947,2.379225015640259,0.6141571387065589,,583.0
G,D,"[5, 3]",1.0,2.0,0.28094911575317383,2.0070571899414062,0.7211827427760658,97.0,584.0
R,U,"[4, 3]",1.0,3.0,0.24830389022827148,1.5721631050109863,0.3105908767521241,97.0,585.0
G,D,"[5, 3]",1.0,4.0,0.2116990089416504,1.5208160877227783,0.3146049858441123,97.0,586.0
R,U,"[4, 3]",1.0,5.0,0.4571499824523926,1.899980068206787,0.43136563384388454,97.0,587.0
G,D,"[5, 3]",1.0,6.0,0.31241297721862793,1.7245819568634033,0.4058088423592732,97.0,588.0
,,"(3, 3)",,,,,,97.0,
G,D,"[4, 3]",1.0,1.0,0.2335500717163086,2.824061870574951,0.2633609669755247,,589.0
G,D,"[5, 3]",1.0,2.0,0.5603148937225342,2.1385228633880615,0.5683951506182231,98.0,590.0
R,U,"[4, 3]",1.0,3.0,0.45920610427856445,1.9196999073028564,0.45488089218012995,98.0,591.0
G,D,"[5, 3]",1.0,4.0,0.2414700984954834,1.6454591751098633,0.40042831775020166,98.0,592.0
R,U,"[4, 3]",1.0,5.0,0.28560304641723633,2.008852958679199,0.7089269893917425,98.0,593.0
G,D,"[5, 3]",1.0,6.0,0.30260801315307617,1.5912978649139404,0.2840066174007167,98.0,594.0
,,"(3, 3)",,,,,,98.0,
G,D,"[4, 3]",1.0,1.0,0.2927968502044678,2.705044984817505,0.7225417352506994,,595.0
G,D,"[5, 3]",1.0,2.0,0.2177410125732422,1.6977119445800781,0.47006498507279043,99.0,596.0
R,U,"[4, 3]",1.0,3.0,0.20176911354064941,1.8725008964538574,0.6589610816817674,99.0,597.0
G,D,"[5, 3]",1.0,4.0,0.20029592514038086,1.7525651454925537,0.5449970324441049,99.0,598.0
R,U,"[4, 3]",1.0,5.0,0.15935015678405762,1.603870153427124,0.44902809779524183,99.0,599.0
G,D,"[5, 3]",1.0,6.0,0.23252391815185547,1.9953439235687256,0.7440857360064715,99.0,600.0
,,"(3, 3)",,,,,,99.0,
G,D,"[4, 3]",1.0,1.0,0.33829784393310547,2.6888909339904785,0.6665706741667141,,601.0
G,D,"[5, 3]",1.0,2.0,0.30054783821105957,1.6346101760864258,0.3182149897458927,100.0,602.0
R,U,"[4, 3]",1.0,3.0,0.3582570552825928,1.8532350063323975,0.48801304250560684,100.0,603.0
G,D,"[5, 3]",1.0,4.0,0.2403550148010254,1.791430950164795,0.5460067693130498,100.0,604.0
R,U,"[4, 3]",1.0,5.0,0.24058890342712402,1.5353047847747803,0.281579606155189,100.0,605.0
G,D,"[5, 3]",1.0,6.0,0.316007137298584,2.0232088565826416,0.68777135512402,100.0,606.0
,,"(3, 3)",,,,,,100.0,
G,D,"[4, 3]",1.0,1.0,0.27854013442993164,2.1816859245300293,0.5196756139909444,,607.0
G,D,"[5, 3]",1.0,2.0,0.2461550235748291,1.6654448509216309,0.41857894904385823,101.0,608.0
R,U,"[4, 3]",1.0,3.0,0.2667350769042969,2.0318210124969482,0.7499871069830528,101.0,609.0
G,D,"[5, 3]",1.0,4.0,0.28421711921691895,1.9292290210723877,0.6293807651620892,101.0,610.0
R,U,"[4, 3]",1.0,5.0,0.4432539939880371,1.9620230197906494,0.5082232966516504,101.0,611.0
G,D,"[5, 3]",1.0,6.0,0.20106911659240723,1.8367609977722168,0.6282733271623596,101.0,612.0
,,"(3, 3)",,,,,,101.0,
G,D,"[4, 3]",1.0,1.0,0.27833008766174316,2.97821307182312,0.7068634102100748,,613.0
G,D,"[5, 3]",1.0,2.0,0.595703125,1.9188930988311768,0.3256988589194136,102.0,614.0
R,U,"[4, 3]",1.0,3.0,0.23308801651000977,1.6293120384216309,0.38835302374890746,102.0,615.0
G,D,"[5, 3]",1.0,4.0,0.28466105461120605,1.7832789421081543,0.4881409983626593,102.0,616.0
R,U,"[4, 3]",1.0,5.0,0.3047060966491699,1.7176470756530762,0.40590683965923285,102.0,617.0
G,D,"[5, 3]",1.0,6.0,0.20488309860229492,1.754565954208374,0.5604193014358159,102.0,618.0
,,"(3, 3)",,,,,,102.0,
G,D,"[4, 3]",1.0,1.0,0.5095980167388916,2.7670528888702393,0.44450196307317796,,619.0
G,D,"[5, 3]",1.0,2.0,0.3745250701904297,1.8659448623657227,0.49363056870051886,103.0,620.0
R,U,"[4, 3]",1.0,3.0,0.20896601676940918,1.6571910381317139,0.45099102347388226,103.0,621.0
G,D,"[5, 3]",1.0,4.0,0.21790504455566406,1.530724048614502,0.298566148512928,103.0,622.0
R,U,"[4, 3]",1.0,5.0,0.5909988880157471,2.1601269245147705,0.5584612883014368,103.0,623.0
G,D,"[5, 3]",1.0,6.0,0.20102405548095703,1.5155611038208008,0.3075063274184907,103.0,624.0
,,"(3, 3)",,,,,,103.0,
G,D,"[4, 3]",1.0,1.0,0.8384609222412109,3.1469411849975586,0.6876421122365959,,625.0
R,U,"[3, 3]",-2.0,-1.0,0.3413121700286865,2.0469748973846436,0.7010934091336516,104.0,626.0
B,L,"[3, 2]",-2.0,-1.0,1.6415719985961914,3.0993380546569824,0.4170437706105713,104.0,627.0
B,L,"[3, 1]",1.0,0.0,0.2906060218811035,1.9709618091583252,0.671516482680786,104.0,628.0
B,L,"[3, 0]",0.0,0.0,0.3218679428100586,1.7030348777770996,0.37472391336442157,104.0,629.0
Y,R,"[3, 1]",1.0,1.0,0.7219369411468506,2.309015989303589,0.583720575471313,104.0,630.0
,,"(3, 3)",,,,,,104.0,
G,D,"[4, 3]",1.0,1.0,0.6603519916534424,2.8363280296325684,0.4536621219947854,,631.0
G,D,"[5, 3]",1.0,2.0,0.49215006828308105,2.1624228954315186,0.6659269548529145,105.0,632.0
Y,R,"[5, 4]",-1.0,1.0,0.2175140380859375,1.9067699909210205,0.6725959241514646,105.0,633.0
B,L,"[5, 3]",1.0,2.0,0.23367905616760254,1.8049860000610352,0.5610419595147976,105.0,634.0
B,L,"[5, 2]",1.0,3.0,0.371182918548584,1.9798951148986816,0.6075109386051294,105.0,635.0
B,L,"[5, 1]",-1.0,2.0,0.6733779907226562,2.0998289585113525,0.4242376139081856,105.0,636.0
,,"(3, 3)",,,,,,105.0,
G,D,"[4, 3]",1.0,1.0,0.29239702224731445,2.6185948848724365,0.5429650599782958,,637.0
G,D,"[5, 3]",-1.0,1.0,0.02854299545288086,5.560266971588135,0.40288583860782917,106.0,638.0
B,L,"[5, 2]",1.0,2.0,0.25449085235595703,1.5978739261627197,0.3346301209902729,106.0,639.0
B,L,"[5, 1]",-1.0,1.0,0.2605149745941162,1.9900429248809814,0.7076683643349735,106.0,640.0
Y,R,"[5, 2]",1.0,2.0,0.20023298263549805,1.5424652099609375,0.33386592470453735,106.0,641.0
G,D,"[6, 2]",0.0,2.0,0.40360593795776367,1.9401359558105469,0.5237278761300262,106.0,642.0
,,"(3, 3)",,,,,,106.0,
G,D,"[4, 3]",1.0,1.0,0.24519705772399902,3.0219058990478516,0.5624956219315,,643.0
G,D,"[5, 3]",1.0,2.0,0.1774590015411377,1.63739013671875,0.4667001251232854,107.0,644.0
B,L,"[5, 2]",1.0,3.0,0.2625410556793213,1.9058198928833008,0.6390009406720834,107.0,645.0
Y,R,"[5, 3]",1.0,4.0,0.19794511795043945,1.9373488426208496,0.726221429111439,107.0,646.0
B,L,"[5, 2]",1.0,5.0,0.35434699058532715,1.9360690116882324,0.5792756913098942,107.0,647.0
Y,R,"[5, 3]",1.0,6.0,0.20407485961914062,1.5191431045532227,0.3153165227553106,107.0,648.0
,,"(3, 3)",,,,,,107.0,
G,D,"[4, 3]",1.0,1.0,0.20743989944458008,2.116441011428833,0.38168628616962436,,649.0
G,D,"[5, 3]",1.0,2.0,0.16928887367248535,1.7042810916900635,0.5190669242492865,108.0,650.0
Y,R,"[5, 4]",-1.0,1.0,0.1752018928527832,1.851452112197876,0.670444286125775,108.0,651.0
Y,R,"[5, 5]",-1.0,0.0,0.2580859661102295,1.8492200374603271,0.586400618924431,108.0,652.0
B,L,"[5, 4]",-1.0,-1.0,0.18637299537658691,1.59539794921875,0.3987566930477084,108.0,653.0
G,D,"[6, 4]",0.0,-1.0,0.11532878875732422,1.5385198593139648,0.40378572791863,108.0,654.0
,,"(3, 3)",,,,,,108.0,
G,D,"[4, 3]",1.0,1.0,0.21545886993408203,2.3019490242004395,0.7055057604547724,,655.0
G,D,"[5, 3]",1.0,2.0,0.2061319351196289,1.845782995223999,0.634833656250901,109.0,656.0
Y,R,"[5, 4]",-1.0,1.0,0.3961038589477539,2.062842845916748,0.6476463039348995,109.0,657.0
G,D,"[6, 4]",0.0,1.0,0.21949195861816406,1.5458149909973145,0.3105021823939665,109.0,658.0
G,D,"[6, 4]",0.0,1.0,0.2672460079193115,1.6856410503387451,0.42935896606403434,109.0,659.0
B,L,"[6, 3]",0.0,1.0,0.3092350959777832,2.01348614692688,0.6925633426581885,109.0,660.0
,,"(3, 3)",,,,,,109.0,
G,D,"[4, 3]",1.0,1.0,0.23688578605651855,2.424278974533081,0.6170085675122399,,661.0
G,D,"[5, 3]",1.0,2.0,0.17104792594909668,1.799990177154541,0.6171088886939543,110.0,662.0
B,L,"[5, 2]",1.0,3.0,0.1601550579071045,1.4248771667480469,0.2590621933037233,110.0,663.0
Y,R,"[5, 3]",1.0,4.0,0.18349099159240723,1.6724059581756592,0.48112565433400645,110.0,664.0
B,L,"[5, 2]",1.0,5.0,0.18952107429504395,1.778318166732788,0.5761585528252618,110.0,665.0
Y,R,"[5, 3]",1.0,6.0,0.20171403884887695,1.8998119831085205,0.6930987152102782,110.0,666.0
,,"(3, 3)",,,,,,110.0,
G,D,"[4, 3]",1.0,1.0,0.17417311668395996,1.8216509819030762,0.29795825451917013,,667.0
G,D,"[5, 3]",1.0,2.0,0.20050787925720215,1.939544916152954,0.720359598540499,111.0,668.0
B,L,"[5, 2]",1.0,3.0,0.17850613594055176,1.888847827911377,0.7093605129594158,111.0,669.0
Y,R,"[5, 3]",1.0,4.0,0.1849830150604248,1.763808012008667,0.5734480348826483,111.0,670.0
B,L,"[5, 2]",1.0,5.0,0.20618796348571777,1.6540250778198242,0.4442906887542468,111.0,671.0
Y,R,"[5, 3]",-1.0,5.0,0.033663034439086914,5.629512071609497,0.4732480110392154,111.0,672.0
,,"(3, 3)",,,,,,111.0,
G,D,"[4, 3]",1.0,1.0,0.6317520141601562,4.681877136230469,0.5890285365785403,,673.0
G,D,"[5, 3]",1.0,2.0,0.19018006324768066,1.7754359245300293,0.5810593492519072,112.0,674.0
B,L,"[5, 2]",1.0,3.0,0.2019040584564209,1.7800359725952148,0.5612509287890289,112.0,675.0
Y,R,"[5, 3]",1.0,4.0,0.2303001880645752,1.7252461910247803,0.5032528305439449,112.0,676.0
B,L,"[5, 2]",1.0,5.0,0.20503997802734375,1.9362740516662598,0.7225675668148197,112.0,677.0
Y,R,"[5, 3]",1.0,6.0,0.2507450580596924,1.9154689311981201,0.6552154863911087,112.0,678.0
,,"(3, 3)",,,,,,112.0,
B,L,"[3, 2]",-1.0,-1.0,0.40907788276672363,2.106407880783081,0.278253656014131,,679.0
G,D,"[4, 2]",1.0,0.0,0.2243180274963379,1.933039903640747,0.710974419216378,113.0,680.0
G,D,"[5, 2]",1.0,1.0,0.20213603973388672,1.6466810703277588,0.44121044413469457,113.0,681.0
B,L,"[5, 1]",-1.0,0.0,0.2039809226989746,1.5891139507293701,0.3805266962731533,113.0,682.0
Y,R,"[5, 2]",1.0,1.0,0.20408916473388672,1.7917449474334717,0.5719947766935136,113.0,683.0
Y,R,"[5, 3]",1.0,2.0,0.627795934677124,2.3297250270843506,0.7017238406612326,113.0,684.0
,,"(3, 3)",,,,,,113.0,
G,D,"[4, 3]",1.0,1.0,0.9493708610534668,2.9949140548706055,0.41365560873846435,,685.0
G,D,"[5, 3]",1.0,2.0,0.5624701976776123,1.8710708618164062,0.30147277219669905,114.0,686.0
B,L,"[5, 2]",1.0,3.0,0.507227897644043,1.9618158340454102,0.4464719123286476,114.0,687.0
Y,R,"[5, 3]",1.0,4.0,0.2967061996459961,2.041213035583496,0.7374207784426946,114.0,688.0
B,L,"[5, 2]",1.0,5.0,0.19927978515625,1.6341650485992432,0.42192074752348974,114.0,689.0
Y,R,"[5, 3]",1.0,6.0,0.20424604415893555,1.9502980709075928,0.7386133756529675,114.0,690.0
,,"(3, 3)",,,,,,114.0,
B,L,"[3, 2]",-1.0,-1.0,0.4695889949798584,2.594609022140503,0.7499576139403126,,691.0
G,D,"[4, 2]",1.0,0.0,0.2060079574584961,1.6483001708984375,0.4320203646765085,115.0,692.0
G,D,"[5, 2]",1.0,1.0,0.26810407638549805,1.572037935256958,0.2874885607611871,115.0,693.0
B,L,"[5, 1]",-1.0,0.0,0.3365650177001953,1.9011030197143555,0.5549214822965706,115.0,694.0
Y,R,"[5, 2]",1.0,1.0,0.4175679683685303,2.0105140209198,0.5822558243454249,115.0,695.0
Y,R,"[5, 3]",1.0,2.0,0.7009871006011963,2.323354959487915,0.6055798612871446,115.0,696.0
,,"(3, 3)",,,,,,115.0,
G,D,"[4, 3]",1.0,1.0,0.604794979095459,2.6408159732818604,0.463071274320335,,697.0
G,D,"[5, 3]",1.0,2.0,0.4973940849304199,1.9601609706878662,0.4566718543569852,116.0,698.0
B,L,"[5, 2]",1.0,3.0,0.5434350967407227,2.144059896469116,0.6006482210508978,116.0,699.0
Y,R,"[5, 3]",1.0,4.0,0.4175550937652588,1.988569974899292,0.5557795761320214,116.0,700.0
B,L,"[5, 2]",1.0,5.0,0.25925302505493164,1.561697006225586,0.3011725026894831,116.0,701.0
Y,R,"[5, 3]",1.0,6.0,0.3305809497833252,1.9251620769500732,0.5928012180611284,116.0,702.0
,,"(3, 3)",,,,,,116.0,
G,D,"[4, 3]",1.0,1.0,0.2444448471069336,3.5527639389038086,0.6955219443160698,,703.0
G,D,"[5, 3]",1.0,2.0,0.46021103858947754,2.067016839981079,0.6126989898037016,117.0,704.0
B,L,"[5, 2]",1.0,3.0,0.5128500461578369,2.1160659790039062,0.595371190612817,117.0,705.0
Y,R,"[5, 3]",1.0,4.0,0.42615413665771484,2.056680917739868,0.6353685654310833,117.0,706.0
B,L,"[5, 2]",1.0,5.0,0.2884500026702881,1.7520759105682373,0.4542649566139874,117.0,707.0
Y,R,"[5, 3]",1.0,6.0,0.2293410301208496,1.497176170349121,0.26844383167630936,117.0,708.0
,,"(3, 3)",,,,,,117.0,
G,D,"[4, 3]",-2.0,0.0,1.2742249965667725,4.308901071548462,0.32689536525004154,,709.0
G,D,"[5, 3]",1.0,1.0,0.2040691375732422,1.6396191120147705,0.4336300366203863,118.0,710.0
G,D,"[6, 3]",0.0,1.0,0.29671192169189453,1.6563091278076172,0.3566091751365343,118.0,711.0
B,L,"[6, 2]",0.0,1.0,0.25357604026794434,1.6985909938812256,0.4383655518801252,118.0,712.0
Y,R,"[6, 3]",0.0,1.0,0.1929609775543213,1.4783480167388916,0.28361474253002733,118.0,713.0
Y,R,"[6, 4]",0.0,1.0,0.20546388626098633,1.5587410926818848,0.3424490302558263,118.0,714.0
,,"(3, 3)",,,,,,118.0,
B,L,"[3, 2]",-1.0,-1.0,0.4782400131225586,3.967363119125366,0.393227974399996,,715.0
G,D,"[4, 2]",1.0,0.0,0.18410801887512207,1.5509510040283203,0.3607282027531775,119.0,716.0
G,D,"[5, 2]",1.0,1.0,0.2015550136566162,1.6964209079742432,0.4903936791872446,119.0,717.0
G,D,"[6, 2]",0.0,1.0,0.23039889335632324,1.7454719543457031,0.5191997201070682,119.0,718.0
R,U,"[5, 2]",1.0,2.0,0.20716404914855957,1.6893680095672607,0.47531379889273334,119.0,719.0
R,U,"[4, 2]",1.0,3.0,0.24779295921325684,1.5674340724945068,0.3095803829983145,119.0,720.0
,,"(3, 3)",,,,,,119.0,
G,D,"[4, 3]",1.0,1.0,0.5236179828643799,2.6333529949188232,0.42614958171441475,,721.0
G,D,"[5, 3]",1.0,2.0,0.2862071990966797,1.6300849914550781,0.3397959350050508,120.0,722.0
B,L,"[5, 2]",1.0,3.0,0.2119431495666504,1.5111229419708252,0.3008667741124046,120.0,723.0
Y,R,"[5, 3]",1.0,4.0,0.18550801277160645,1.6084129810333252,0.40930951349538763,120.0,724.0
B,L,"[5, 2]",1.0,5.0,0.19126605987548828,1.4709057807922363,0.2802433494542185,120.0,725.0
Y,R,"[5, 3]",1.0,6.0,0.21091389656066895,1.7867560386657715,0.5668649393591833,120.0,726.0
,,"(3, 3)",,,,,,120.0,
G,D,"[4, 3]",1.0,1.0,0.7370362281799316,2.734908103942871,0.43520518419348286,,727.0
G,D,"[5, 3]",1.0,2.0,0.20139503479003906,1.5765960216522217,0.3619996057808095,121.0,728.0
B,L,"[5, 2]",1.0,3.0,0.20894885063171387,1.5029051303863525,0.29829873459374745,121.0,729.0
Y,R,"[5, 3]",1.0,4.0,0.22326993942260742,1.7379729747772217,0.5026779129157375,121.0,730.0
B,L,"[5, 2]",1.0,5.0,0.14110994338989258,1.6021080017089844,0.4549534965155681,121.0,731.0
Y,R,"[5, 3]",1.0,6.0,0.22690796852111816,1.822497844696045,0.5938494137039445,121.0,732.0
,,"(3, 3)",,,,,,121.0,
G,D,"[4, 3]",1.0,1.0,0.493621826171875,3.516786813735962,0.47750343285427527,,733.0
G,D,"[5, 3]",-1.0,1.0,0.07381796836853027,5.491981029510498,0.30259407612723316,122.0,734.0
G,D,"[6, 3]",0.0,1.0,0.26316285133361816,1.570106029510498,0.3065098789320422,122.0,735.0
B,L,"[6, 2]",0.0,1.0,0.18085503578186035,1.6522750854492188,0.47531096463242045,122.0,736.0
R,U,"[5, 2]",1.0,2.0,0.13161206245422363,1.7213120460510254,0.5798520808312724,122.0,737.0
R,U,"[4, 2]",1.0,3.0,0.22708392143249512,1.8586680889129639,0.6218781982763552,122.0,738.0
,,"(3, 3)",,,,,,122.0,
G,D,"[4, 3]",1.0,1.0,0.40586185455322266,3.100872039794922,0.43969206368443453,,739.0
G,D,"[5, 3]",1.0,2.0,0.20789408683776855,1.7578468322753906,0.5476003593374934,123.0,740.0
B,L,"[5, 2]",1.0,3.0,0.29875898361206055,1.7203388214111328,0.4014196977052533,123.0,741.0
Y,R,"[5, 3]",1.0,4.0,0.41003894805908203,1.870689868927002,0.4554543799705703,123.0,742.0
B,L,"[5, 2]",1.0,5.0,0.2913949489593506,1.8758468627929688,0.581066964107984,123.0,743.0
Y,R,"[5, 3]",1.0,6.0,0.17340707778930664,1.9182689189910889,0.7326453775902674,123.0,744.0
,,"(3, 3)",,,,,,123.0,
G,D,"[4, 3]",1.0,1.0,0.8238999843597412,2.874207019805908,0.5904917641995249,,745.0
G,D,"[5, 3]",1.0,2.0,0.19289183616638184,1.843541145324707,0.650575654278331,124.0,746.0
B,L,"[5, 2]",1.0,3.0,0.21620798110961914,1.7281720638275146,0.49548197898149965,124.0,747.0
Y,R,"[5, 3]",1.0,4.0,0.2644338607788086,1.708376169204712,0.45404868535271664,124.0,748.0
B,L,"[5, 2]",1.0,5.0,0.2226710319519043,1.6899430751800537,0.4606615452234924,124.0,749.0
Y,R,"[5, 3]",1.0,6.0,0.32244300842285156,1.960576057434082,0.6378659548765537,124.0,750.0
,,"(3, 3)",,,,,,124.0,
G,D,"[4, 3]",-2.0,0.0,1.2284200191497803,6.1978960037231445,0.2856930518521946,,751.0
G,D,"[5, 3]",1.0,1.0,0.21126294136047363,1.4733400344848633,0.2594618639133702,125.0,752.0
B,L,"[5, 2]",1.0,2.0,0.24686312675476074,1.7926640510559082,0.5518618079068056,125.0,753.0
Y,R,"[5, 3]",-1.0,2.0,0.03601503372192383,5.881439208984375,0.7160541425656912,125.0,754.0
R,U,"[4, 3]",1.0,3.0,0.29581499099731445,1.6903059482574463,0.3905937567482104,125.0,755.0
R,U,"[3, 3]",-2.0,1.0,0.26326489448547363,1.8718338012695312,0.595526938132831,125.0,756.0
,,"(3, 3)",,,,,,125.0,
G,D,"[4, 3]",1.0,1.0,0.28220701217651367,2.7678329944610596,0.6634138355087147,,757.0
G,D,"[5, 3]",1.0,2.0,0.2575509548187256,1.9053080081939697,0.6352828614722269,126.0,758.0
B,L,"[5, 2]",1.0,3.0,0.43343019485473633,1.9688231945037842,0.5210951583966134,126.0,759.0
Y,R,"[5, 3]",1.0,4.0,0.4159841537475586,1.7431678771972656,0.3145727002191719,126.0,760.0
B,L,"[5, 2]",1.0,5.0,0.2652010917663574,1.5681700706481934,0.2827634800883913,126.0,761.0
Y,R,"[5, 3]",1.0,6.0,0.27823805809020996,2.0019640922546387,0.7176807508104492,126.0,762.0
,,"(3, 3)",,,,,,126.0,
G,D,"[4, 3]",1.0,1.0,0.735605001449585,3.0817229747772217,0.6161083181292121,,763.0
G,D,"[5, 3]",1.0,2.0,0.37763381004333496,1.7734520435333252,0.38973343584925446,127.0,764.0
B,L,"[5, 2]",1.0,3.0,0.2394850254058838,1.5303120613098145,0.2868883804565877,127.0,765.0
Y,R,"[5, 3]",1.0,4.0,0.24329209327697754,1.5638880729675293,0.3173794097849043,127.0,766.0
B,L,"[5, 2]",1.0,5.0,0.21656417846679688,1.9009661674499512,0.6679912107074983,127.0,767.0
Y,R,"[5, 3]",1.0,6.0,0.19059109687805176,1.8434739112854004,0.6448485968845896,127.0,768.0
,,"(3, 3)",,,,,,127.0,
G,D,"[4, 3]",-2.0,0.0,1.1008498668670654,3.192066192626953,0.6697662031444398,,769.0
G,D,"[5, 3]",1.0,1.0,0.6305267810821533,2.178972005844116,0.5327647406749425,128.0,770.0
B,L,"[5, 2]",-1.0,1.0,0.05923104286193848,5.831964015960693,0.6308748921821203,128.0,771.0
Y,R,"[5, 3]",1.0,2.0,0.23104095458984375,1.6441268920898438,0.4090603540095388,128.0,772.0
B,L,"[5, 2]",1.0,3.0,0.2227489948272705,1.8924939632415771,0.668035934938114,128.0,773.0
Y,R,"[5, 3]",1.0,4.0,0.3351171016693115,1.8705110549926758,0.5220199770264841,128.0,774.0
,,"(3, 3)",,,,,,128.0,
G,D,"[4, 3]",1.0,1.0,0.9073669910430908,2.702316999435425,0.30801750970794717,,775.0
G,D,"[5, 3]",1.0,2.0,0.21242284774780273,1.9276440143585205,0.7184830089037881,129.0,776.0
B,L,"[5, 2]",1.0,3.0,0.21732091903686523,1.60599684715271,0.37495648691737327,129.0,777.0
Y,R,"[5, 3]",1.0,4.0,0.45812296867370605,1.9320118427276611,0.47358210618803603,129.0,778.0
B,L,"[5, 2]",1.0,5.0,0.20983409881591797,1.7981789112091064,0.5882394729752456,129.0,779.0
Y,R,"[5, 3]",1.0,6.0,0.25197577476501465,1.8199000358581543,0.5583042827545766,129.0,780.0
,,"(3, 3)",,,,,,129.0,
G,D,"[4, 3]",1.0,1.0,0.4324188232421875,2.728471040725708,0.636793923598151,,781.0
G,D,"[5, 3]",1.0,2.0,0.3801581859588623,1.9722590446472168,0.5923240614177816,130.0,782.0
B,L,"[5, 2]",1.0,3.0,0.24068188667297363,1.5445170402526855,0.30395761892731865,130.0,783.0
Y,R,"[5, 3]",1.0,4.0,0.24450898170471191,1.811617136001587,0.5652443625202273,130.0,784.0
B,L,"[5, 2]",1.0,5.0,0.22416996955871582,1.805643081665039,0.5710322761843487,130.0,785.0
Y,R,"[5, 3]",1.0,6.0,0.16517400741577148,1.825139045715332,0.6459722873920679,130.0,786.0
,,"(3, 3)",,,,,,130.0,
G,D,"[4, 3]",1.0,1.0,0.5043869018554688,2.2838189601898193,0.36343484857930747,,787.0
G,D,"[5, 3]",1.0,2.0,0.24855494499206543,1.9463329315185547,0.6763051437182268,131.0,788.0
B,L,"[5, 2]",1.0,3.0,0.22516608238220215,1.830099105834961,0.6064783325986383,131.0,789.0
Y,R,"[5, 3]",1.0,4.0,0.23673486709594727,1.606490135192871,0.3630917546714433,131.0,790.0
B,L,"[5, 2]",1.0,5.0,0.2602691650390625,1.8696019649505615,0.5993880722034521,131.0,791.0
Y,R,"[5, 3]",1.0,6.0,0.19674181938171387,1.5955967903137207,0.39526326924399435,131.0,792.0
,,"(3, 3)",,,,,,131.0,
G,D,"[4, 3]",1.0,1.0,0.29538416862487793,2.3221569061279297,0.5340426613353482,,793.0
B,L,"[4, 2]",1.0,2.0,0.19730210304260254,1.7888920307159424,0.5893015781774,132.0,794.0
Y,R,"[4, 3]",1.0,3.0,0.1787118911743164,1.731971025466919,0.5550950315233241,132.0,795.0
B,L,"[4, 2]",1.0,4.0,0.2235879898071289,1.5739970207214355,0.3455555676433786,132.0,796.0
Y,R,"[4, 3]",1.0,5.0,0.24083685874938965,1.8676111698150635,0.6295853761725481,132.0,797.0
B,L,"[4, 2]",1.0,6.0,0.3817000389099121,1.668489933013916,0.2652706199093884,132.0,798.0
,,"(3, 3)",,,,,,132.0,
G,D,"[4, 3]",1.0,1.0,0.83707594871521,3.000669002532959,0.39922106094817256,,799.0
G,D,"[5, 3]",1.0,2.0,0.2132568359375,1.950364112854004,0.7324029312255418,133.0,800.0
B,L,"[5, 2]",1.0,3.0,0.2262418270111084,1.6191120147705078,0.38523156059207103,133.0,801.0
Y,R,"[5, 3]",1.0,4.0,0.3439950942993164,1.6067049503326416,0.25878352097606827,133.0,802.0
B,L,"[5, 2]",1.0,5.0,0.2986600399017334,1.9773938655853271,0.6858565230166035,133.0,803.0
Y,R,"[5, 3]",1.0,6.0,0.23243999481201172,1.7722070217132568,0.524819546362351,133.0,804.0
,,"(3, 3)",,,,,,133.0,
G,D,"[4, 3]",-1.0,-1.0,0.6253011226654053,3.4439659118652344,0.5022222730536734,,805.0
B,L,"[4, 2]",-1.0,-2.0,0.33899688720703125,1.9015018939971924,0.5537304825104328,134.0,806.0
R,U,"[3, 2]",-2.0,-2.0,1.176077127456665,2.7257091999053955,0.49568156927913204,134.0,807.0
R,U,"[2, 2]",1.0,-1.0,0.22295093536376953,1.5031509399414062,0.26629790795416197,134.0,808.0
R,U,"[1, 2]",1.0,0.0,0.29892492294311523,1.8414649963378906,0.5241831232023587,134.0,809.0
Y,R,"[1, 3]",-1.0,-1.0,0.32658982276916504,1.9906890392303467,0.6648375011067409,134.0,810.0
,,"(3, 3)",,,,,,134.0,
R,U,"[2, 3]",1.0,1.0,0.27495789527893066,2.2787771224975586,0.5604151833342036,,811.0
R,U,"[1, 3]",-1.0,0.0,0.1900489330291748,1.464500904083252,0.2751820499439758,135.0,812.0
B,L,"[1, 2]",1.0,1.0,0.262343168258667,1.9601099491119385,0.6849671104344421,135.0,813.0
Y,R,"[1, 3]",-1.0,0.0,0.3527710437774658,1.6550910472869873,0.2903852211955518,135.0,814.0
G,D,"[2, 3]",1.0,1.0,0.21192288398742676,1.7577581405639648,0.5312530277577251,135.0,815.0
B,L,"[2, 2]",1.0,2.0,0.4084510803222656,1.8868911266326904,0.46826028213520643,135.0,816.0
,,"(3, 3)",,,,,,135.0,
R,U,"[2, 3]",1.0,1.0,0.3392190933227539,2.428678035736084,0.2804819943398596,,817.0
G,D,"[3, 3]",-2.0,-1.0,0.20362305641174316,1.4959919452667236,0.2765761935678895,136.0,818.0
B,L,"[3, 2]",-1.0,-2.0,0.5015130043029785,1.810230016708374,0.3033571935031591,136.0,819.0
Y,R,"[3, 3]",-2.0,-4.0,0.11025118827819824,1.6802539825439453,0.5667686788602844,136.0,820.0
R,U,"[2, 3]",-1.0,-4.0,0.08798694610595703,5.555413007736206,0.30533862421559566,136.0,821.0
R,U,"[1, 3]",-1.0,-5.0,0.21574807167053223,1.5055599212646484,0.27821370094733555,136.0,822.0
,,"(3, 3)",,,,,,136.0,
R,U,"[2, 3]",1.0,1.0,0.24913501739501953,2.921144962310791,0.5491210935961672,,823.0
R,U,"[1, 3]",-1.0,0.0,0.22154688835144043,1.970357894897461,0.7360101982774543,137.0,824.0
B,L,"[1, 2]",1.0,1.0,0.5779459476470947,2.3249409198760986,0.7276577825669388,137.0,825.0
G,D,"[2, 2]",1.0,2.0,0.2172858715057373,1.49794602394104,0.27609572051371467,137.0,826.0
B,L,"[2, 1]",1.0,3.0,0.22443008422851562,1.8644280433654785,0.6401796180993808,137.0,827.0
G,D,"[3, 1]",1.0,4.0,0.2927968502044678,1.9799489974975586,0.686829683168674,137.0,828.0
,,"(3, 3)",,,,,,137.0,
R,U,"[2, 3]",1.0,1.0,0.2532157897949219,2.0173919200897217,0.32133911974454205,,829.0
B,L,"[2, 2]",1.0,2.0,0.20505905151367188,1.5291919708251953,0.3172050501812559,138.0,830.0
G,D,"[3, 2]",-1.0,1.0,0.23065805435180664,1.5152969360351562,0.2658211302367699,138.0,831.0
B,L,"[3, 1]",1.0,2.0,0.3620750904083252,2.1003220081329346,0.715614618642738,138.0,832.0
G,D,"[4, 1]",-1.0,1.0,0.23099493980407715,1.8354308605194092,0.5845910070889561,138.0,833.0
B,L,"[4, 0]",0.0,1.0,0.19478917121887207,1.615994930267334,0.4174239980678925,138.0,834.0
,,"(3, 3)",,,,,,138.0,
R,U,"[2, 3]",1.0,1.0,0.2449641227722168,2.2029621601104736,0.48700256640502015,,835.0
B,L,"[2, 2]",1.0,2.0,0.21175599098205566,1.7045371532440186,0.49164488381236354,139.0,836.0
R,U,"[1, 2]",1.0,3.0,0.2415909767150879,1.543025016784668,0.3015052178475348,139.0,837.0
B,L,"[1, 1]",1.0,4.0,0.2304370403289795,1.5112950801849365,0.27949271340265913,139.0,838.0
R,U,"[0, 1]",0.0,4.0,0.26462292671203613,1.5268940925598145,0.27297246522309143,139.0,839.0
B,L,"[0, 0]",0.0,4.0,0.21759295463562012,1.831960916519165,0.6213119319619074,139.0,840.0
,,"(3, 3)",,,,,,139.0,
R,U,"[2, 3]",1.0,1.0,0.23554515838623047,2.4711358547210693,0.5425775347104469,,841.0
B,L,"[2, 2]",1.0,2.0,0.22428512573242188,1.535888910293579,0.31204224253337964,140.0,842.0
R,U,"[1, 2]",1.0,3.0,0.20719504356384277,1.6268718242645264,0.42229158383864257,140.0,843.0
B,L,"[1, 1]",1.0,4.0,0.2319340705871582,1.8164558410644531,0.5718487444509219,140.0,844.0
G,D,"[2, 1]",1.0,5.0,0.19853806495666504,1.483555793762207,0.27247750983823976,140.0,845.0
B,L,"[2, 0]",0.0,5.0,0.20184612274169922,1.7050769329071045,0.49394347985711345,140.0,846.0
,,"(3, 3)",,,,,,140.0,
R,U,"[2, 3]",1.0,1.0,0.3265540599822998,2.1597981452941895,0.4205539137582142,,847.0
B,L,"[2, 2]",1.0,2.0,0.4885540008544922,1.9732511043548584,0.47705741633590565,141.0,848.0
R,U,"[1, 2]",1.0,3.0,0.23358702659606934,1.5596740245819092,0.3203241265497236,141.0,849.0
B,L,"[1, 1]",1.0,4.0,0.3240809440612793,1.7385268211364746,0.40874492203415597,141.0,850.0
G,D,"[2, 1]",1.0,5.0,0.25490689277648926,1.7517399787902832,0.49370720414113006,141.0,851.0
R,U,"[1, 1]",1.0,6.0,0.23580312728881836,1.8424317836761475,0.6028407293883402,141.0,852.0
,,"(3, 3)",,,,,,141.0,
R,U,"[2, 3]",1.0,1.0,0.26157402992248535,2.4103729724884033,0.629818520218437,,853.0
B,L,"[2, 2]",1.0,2.0,0.2552759647369385,1.5333340167999268,0.2635325135079111,142.0,854.0
G,D,"[3, 2]",-1.0,1.0,0.6470620632171631,2.1723129749298096,0.5022727982720634,142.0,855.0
R,U,"[2, 2]",1.0,2.0,0.437453031539917,1.7708330154418945,0.32343885700545294,142.0,856.0
B,L,"[2, 1]",1.0,3.0,0.27483582496643066,1.9528999328613281,0.6759182880199768,142.0,857.0
R,U,"[1, 1]",1.0,4.0,0.8281991481781006,2.1672980785369873,0.34372673238911783,142.0,858.0
,,"(3, 3)",,,,,,142.0,
R,U,"[2, 3]",1.0,1.0,0.2603020668029785,2.2935760021209717,0.45385866868103825,,859.0
B,L,"[2, 2]",1.0,2.0,0.19640111923217773,1.9425809383392334,0.7294154305786889,143.0,860.0
R,U,"[1, 2]",1.0,3.0,0.18248200416564941,1.9213120937347412,0.7175415970477339,143.0,861.0
B,L,"[1, 1]",1.0,4.0,0.5251319408416748,2.158582925796509,0.6262696089838536,143.0,862.0
G,D,"[2, 1]",1.0,5.0,0.7530670166015625,2.461228847503662,0.7040917586118121,143.0,863.0
R,U,"[1, 1]",1.0,6.0,0.30035996437072754,1.5843489170074463,0.27224204231220356,143.0,864.0
,,"(3, 3)",,,,,,143.0,
R,U,"[2, 3]",1.0,1.0,0.3803877830505371,2.4974451065063477,0.2696832597775918,,865.0
B,L,"[2, 2]",1.0,2.0,0.3082540035247803,1.7614009380340576,0.44753747319299386,144.0,866.0
R,U,"[1, 2]",1.0,3.0,0.3486900329589844,1.9464468955993652,0.5772173393698474,144.0,867.0
B,L,"[1, 1]",1.0,4.0,0.17038989067077637,1.8642189502716064,0.691450026491954,144.0,868.0
G,D,"[2, 1]",1.0,5.0,0.2786591053009033,1.7964081764221191,0.521384193792741,144.0,869.0
R,U,"[1, 1]",1.0,6.0,0.2157747745513916,1.869642972946167,0.6409076786466674,144.0,870.0
,,"(3, 3)",,,,,,144.0,
R,U,"[2, 3]",1.0,1.0,0.33498692512512207,2.3826000690460205,0.6735569854847899,,871.0
B,L,"[2, 2]",1.0,2.0,0.21784710884094238,1.8004519939422607,0.5741694531808428,145.0,872.0
R,U,"[1, 2]",1.0,3.0,0.2799370288848877,1.7032248973846436,0.427529834901439,145.0,873.0
B,L,"[1, 1]",1.0,4.0,0.3068277835845947,1.904128074645996,0.598188149786278,145.0,874.0
G,D,"[2, 1]",1.0,5.0,0.20425200462341309,1.6819579601287842,0.46352195287996706,145.0,875.0
R,U,"[1, 1]",1.0,6.0,0.16601109504699707,1.907594919204712,0.7209854791760545,145.0,876.0
,,"(3, 3)",,,,,,145.0,
R,U,"[2, 3]",1.0,1.0,0.22449493408203125,2.0576069355010986,0.4124429775067255,,877.0
B,L,"[2, 2]",1.0,2.0,0.20318317413330078,1.816390037536621,0.6117025244384308,146.0,878.0
R,U,"[1, 2]",1.0,3.0,0.4395558834075928,1.748615026473999,0.3107210726077113,146.0,879.0
B,L,"[1, 1]",1.0,4.0,0.20682001113891602,1.697502851486206,0.49131775153732204,146.0,880.0
G,D,"[2, 1]",1.0,5.0,0.18369483947753906,1.604766845703125,0.41303545386491874,146.0,881.0
R,U,"[1, 1]",-1.0,5.0,0.08518004417419434,5.93095588684082,0.7098361767683455,146.0,882.0
,,"(3, 3)",,,,,,146.0,
R,U,"[2, 3]",1.0,1.0,0.48332810401916504,3.2926979064941406,0.7030948382124733,,883.0
B,L,"[2, 2]",1.0,2.0,0.4836909770965576,2.2188851833343506,0.7387770404915699,147.0,884.0
R,U,"[1, 2]",1.0,3.0,0.24323391914367676,1.7045609951019287,0.46042902352399967,147.0,885.0
B,L,"[1, 1]",1.0,4.0,0.20736289024353027,1.739063024520874,0.5326454087269261,147.0,886.0
G,D,"[2, 1]",1.0,5.0,0.34322690963745117,1.8590929508209229,0.50839647507305,147.0,887.0
R,U,"[1, 1]",1.0,6.0,0.24541878700256348,1.5735809803009033,0.33235401933133746,147.0,888.0
,,"(3, 3)",,,,,,147.0,
G,D,"[4, 3]",-1.0,-1.0,0.4555070400238037,2.5503060817718506,0.6488964586255068,,889.0
R,U,"[3, 3]",-2.0,-3.0,0.1931169033050537,1.8283350467681885,0.6105505359043437,148.0,890.0
B,L,"[3, 2]",-1.0,-4.0,0.214677095413208,1.6249139308929443,0.40246641670043753,148.0,891.0
R,U,"[2, 2]",1.0,-3.0,0.18823695182800293,1.5575587749481201,0.3601303161487753,148.0,892.0
B,L,"[2, 1]",1.0,-2.0,0.2436060905456543,1.593946933746338,0.35400171437184696,148.0,893.0
R,U,"[1, 1]",1.0,-1.0,0.2395191192626953,1.6742990016937256,0.4282794743024194,148.0,894.0
,,"(3, 3)",,,,,,148.0,
R,U,"[2, 3]",1.0,1.0,0.5623960494995117,3.555142879486084,0.699874644409698,,895.0
B,L,"[2, 2]",1.0,2.0,0.21622490882873535,1.6226789951324463,0.3896876246214993,149.0,896.0
R,U,"[1, 2]",1.0,3.0,0.24164390563964844,1.9869909286499023,0.7429630771794076,149.0,897.0
B,L,"[1, 1]",1.0,4.0,0.22139787673950195,1.5518779754638672,0.3286544829930466,149.0,898.0
R,U,"[0, 1]",0.0,4.0,0.32660913467407227,1.8097660541534424,0.48811631803947425,149.0,899.0
G,D,"[1, 1]",1.0,5.0,0.33974695205688477,1.6367230415344238,0.2918213815968098,149.0,900.0
,,"(3, 3)",,,,,,149.0,
R,U,"[2, 3]",1.0,1.0,0.19093108177185059,2.341395854949951,0.6662134830237958,,901.0
B,L,"[2, 2]",1.0,2.0,0.1488659381866455,1.744668960571289,0.5777259063299174,150.0,902.0
R,U,"[1, 2]",1.0,3.0,0.2974090576171875,1.7596650123596191,0.4541880859246806,150.0,903.0
B,L,"[1, 1]",1.0,4.0,0.3357241153717041,1.8378770351409912,0.49203735447007907,150.0,904.0
G,D,"[2, 1]",1.0,5.0,0.28075599670410156,1.627699851989746,0.35317588261037025,150.0,905.0
R,U,"[1, 1]",1.0,6.0,0.21935200691223145,1.7259728908538818,0.4956963226442127,150.0,906.0
,,"(3, 3)",,,,,,150.0,
R,U,"[2, 3]",1.0,1.0,0.34561991691589355,1.957815170288086,0.27056839894962026,,907.0
B,L,"[2, 2]",1.0,2.0,0.2473618984222412,1.6239030361175537,0.3776505140046291,151.0,908.0
R,U,"[1, 2]",1.0,3.0,0.23862409591674805,1.9742980003356934,0.7349181850480854,151.0,909.0
B,L,"[1, 1]",1.0,4.0,0.2392442226409912,1.5953128337860107,0.34730684415313545,151.0,910.0
G,D,"[2, 1]",1.0,5.0,0.22022414207458496,1.6146090030670166,0.37866732137340264,151.0,911.0
R,U,"[1, 1]",1.0,6.0,0.2243192195892334,1.6377410888671875,0.4162940803457604,151.0,912.0
,,"(3, 3)",,,,,,151.0,
R,U,"[2, 3]",-2.0,0.0,1.043045997619629,2.990492105484009,0.4396364214463455,,913.0
B,L,"[2, 2]",1.0,1.0,0.3400120735168457,1.9083938598632812,0.5650837168935989,152.0,914.0
R,U,"[1, 2]",1.0,2.0,0.24642610549926758,1.9193930625915527,0.6677783209207357,152.0,915.0
B,L,"[1, 1]",1.0,3.0,0.2860219478607178,1.9511349201202393,0.6521350784689999,152.0,916.0
G,D,"[2, 1]",1.0,4.0,0.23578596115112305,1.5165050029754639,0.2691894344620562,152.0,917.0
R,U,"[1, 1]",1.0,5.0,0.6221189498901367,2.2453250885009766,0.6141085011029768,152.0,918.0
,,"(3, 3)",,,,,,152.0,
R,U,"[2, 3]",1.0,1.0,0.22909092903137207,1.7755439281463623,0.273402787124621,,919.0
B,L,"[2, 2]",1.0,2.0,0.2321460247039795,1.5877959728240967,0.3612127011745104,153.0,920.0
R,U,"[1, 2]",1.0,3.0,0.2014000415802002,1.585068941116333,0.37964634596835684,153.0,921.0
B,L,"[1, 1]",1.0,4.0,0.1851060390472412,1.5477068424224854,0.3606924897367901,153.0,922.0
G,D,"[2, 1]",1.0,5.0,0.2182011604309082,1.6601588726043701,0.43751575101851015,153.0,923.0
R,U,"[1, 1]",1.0,6.0,0.1755540370941162,1.482008934020996,0.3029516991169619,153.0,924.0
,,"(3, 3)",,,,,,153.0,
R,U,"[2, 3]",1.0,1.0,0.23228907585144043,2.0199480056762695,0.6059732120252161,,925.0
B,L,"[2, 2]",1.0,2.0,0.20670008659362793,1.7337431907653809,0.5232353621960295,154.0,926.0
R,U,"[1, 2]",1.0,3.0,0.20840096473693848,1.529404878616333,0.3195626533017075,154.0,927.0
B,L,"[1, 1]",1.0,4.0,0.2071840763092041,1.5447568893432617,0.33088637406903976,154.0,928.0
G,D,"[2, 1]",1.0,5.0,0.19719386100769043,1.7055199146270752,0.5028245767154862,154.0,929.0
R,U,"[1, 1]",-1.0,5.0,0.06970691680908203,5.705728054046631,0.4914778399795755,154.0,930.0
,,"(3, 3)",,,,,,154.0,
R,U,"[2, 3]",1.0,1.0,0.4713311195373535,3.163172960281372,0.6384088963179575,,931.0
B,L,"[2, 2]",1.0,2.0,0.24410796165466309,1.8932549953460693,0.6484915304232295,155.0,932.0
R,U,"[1, 2]",1.0,3.0,0.24011707305908203,1.591783046722412,0.34066516258889984,155.0,933.0
B,L,"[1, 1]",1.0,4.0,0.2397141456604004,1.819533109664917,0.5764789171715957,155.0,934.0
R,U,"[0, 1]",0.0,4.0,0.29509711265563965,1.7472679615020752,0.45722329373637766,155.0,935.0
G,D,"[1, 1]",1.0,5.0,0.5422210693359375,2.223513126373291,0.6806968938669669,155.0,936.0
,,"(3, 3)",,,,,,155.0,
R,U,"[2, 3]",1.0,1.0,0.26109814643859863,2.836509943008423,0.5173588108102478,,937.0
B,L,"[2, 2]",1.0,2.0,0.25258302688598633,1.803372859954834,0.5373717649100815,156.0,938.0
R,U,"[1, 2]",1.0,3.0,0.2306380271911621,1.7826318740844727,0.5533293960728369,156.0,939.0
B,L,"[1, 1]",1.0,4.0,0.23284196853637695,1.9737999439239502,0.7270696988522369,156.0,940.0
G,D,"[2, 1]",1.0,5.0,0.203779935836792,1.573457956314087,0.3674631581548841,156.0,941.0
R,U,"[1, 1]",1.0,6.0,0.2586550712585449,1.68983793258667,0.42397253396991696,156.0,942.0
,,"(3, 3)",,,,,,156.0,
R,U,"[2, 3]",1.0,1.0,0.3149259090423584,2.1164448261260986,0.45723088004070794,,943.0
B,L,"[2, 2]",1.0,2.0,0.38807201385498047,1.6497061252593994,0.27371513613101733,157.0,944.0
R,U,"[1, 2]",1.0,3.0,0.367750883102417,1.6308600902557373,0.25453212458540936,157.0,945.0
B,L,"[1, 1]",1.0,4.0,0.26648902893066406,1.8544180393218994,0.5752252451427988,157.0,946.0
G,D,"[2, 1]",1.0,5.0,0.3075900077819824,1.7838408946990967,0.4760089274877678,157.0,947.0
R,U,"[1, 1]",1.0,6.0,0.19117403030395508,1.4519641399383545,0.26157591306218647,157.0,948.0
,,"(3, 3)",,,,,,157.0,
R,U,"[2, 3]",1.0,1.0,0.23094820976257324,2.054321050643921,0.5156396373494425,,949.0
B,L,"[2, 2]",1.0,2.0,0.21255207061767578,1.863558053970337,0.6457915017718419,158.0,950.0
R,U,"[1, 2]",-1.0,2.0,0.08857297897338867,5.667539834976196,0.46303624642310426,158.0,951.0
B,L,"[1, 1]",1.0,3.0,0.2648329734802246,1.8025178909301758,0.5328884681161681,158.0,952.0
G,D,"[2, 1]",1.0,4.0,0.23257994651794434,1.5230681896209717,0.27270103158817616,158.0,953.0
R,U,"[1, 1]",1.0,5.0,0.24589109420776367,1.74381685256958,0.4996617836152378,158.0,954.0
,,"(3, 3)",,,,,,158.0,
R,U,"[2, 3]",1.0,1.0,0.3916280269622803,2.144084930419922,0.4271153875695537,,955.0
B,L,"[2, 2]",1.0,2.0,0.5617389678955078,1.9747660160064697,0.41860846877006547,159.0,956.0
R,U,"[1, 2]",1.0,3.0,0.4574398994445801,1.941471815109253,0.47670277393835175,159.0,957.0
B,L,"[1, 1]",1.0,4.0,0.22922205924987793,1.6496250629425049,0.426368024677492,159.0,958.0
G,D,"[2, 1]",1.0,5.0,0.3224039077758789,1.6088650226593018,0.28553593582788267,159.0,959.0
R,U,"[1, 1]",1.0,6.0,0.3625779151916504,1.6690001487731934,0.30445801579316917,159.0,960.0
,,"(3, 3)",,,,,,159.0,
R,U,"[2, 3]",1.0,1.0,0.7854111194610596,3.023189067840576,0.5274012930358967,,961.0
B,L,"[2, 2]",1.0,2.0,0.22545909881591797,1.9430840015411377,0.7204396451321837,160.0,962.0
R,U,"[1, 2]",1.0,3.0,0.4595370292663574,1.9605259895324707,0.4978543746155679,160.0,963.0
B,L,"[1, 1]",1.0,4.0,0.3589341640472412,2.0205421447753906,0.6516356975069646,160.0,964.0
G,D,"[2, 1]",1.0,5.0,0.3248331546783447,1.7172789573669434,0.385883134793152,160.0,965.0
R,U,"[1, 1]",1.0,6.0,0.23802804946899414,1.6724870204925537,0.42499614540269715,160.0,966.0
,,"(3, 3)",,,,,,160.0,
R,U,"[2, 3]",1.0,1.0,0.3965890407562256,2.7274959087371826,0.3526332897729617,,967.0
B,L,"[2, 2]",1.0,2.0,0.353363037109375,2.0814709663391113,0.733696494781352,161.0,968.0
R,U,"[1, 2]",1.0,3.0,0.27396392822265625,1.6739909648895264,0.391384842024622,161.0,969.0
B,L,"[1, 1]",1.0,4.0,0.28023290634155273,1.9770948886871338,0.7015485843579973,161.0,970.0
G,D,"[2, 1]",1.0,5.0,0.4099860191345215,1.6794681549072266,0.2648048558050644,161.0,971.0
R,U,"[1, 1]",1.0,6.0,0.18677806854248047,1.4924039840698242,0.29053111668341725,161.0,972.0
,,"(3, 3)",,,,,,161.0,
R,U,"[2, 3]",1.0,1.0,0.27786803245544434,2.0517330169677734,0.40877736976138007,,973.0
B,L,"[2, 2]",1.0,2.0,0.2744131088256836,1.5701069831848145,0.2959670164961571,162.0,974.0
R,U,"[1, 2]",1.0,3.0,0.37792396545410156,1.8754611015319824,0.5044633871073743,162.0,975.0
B,L,"[1, 1]",1.0,4.0,0.27544498443603516,1.6312730312347412,0.35254467785961185,162.0,976.0
G,D,"[2, 1]",1.0,5.0,0.262192964553833,1.5889511108398438,0.32501386967805584,162.0,977.0
R,U,"[1, 1]",1.0,6.0,0.22807002067565918,1.881309986114502,0.6559102968946777,162.0,978.0
,,"(3, 3)",,,,,,162.0,
R,U,"[2, 3]",1.0,1.0,0.5321700572967529,2.190574884414673,0.38003036297445164,,979.0
B,L,"[2, 2]",1.0,2.0,0.43191099166870117,2.0130960941314697,0.5596532394540128,163.0,980.0
R,U,"[1, 2]",1.0,3.0,0.6347229480743408,1.9780299663543701,0.33790479661826095,163.0,981.0
B,L,"[1, 1]",1.0,4.0,0.23736095428466797,1.6895160675048828,0.4441405944635702,163.0,982.0
G,D,"[2, 1]",1.0,5.0,0.3381531238555908,1.7303049564361572,0.3910765751717918,163.0,983.0
R,U,"[1, 1]",1.0,6.0,0.17198705673217773,1.6733300685882568,0.49768633169390114,163.0,984.0
,,"(3, 3)",,,,,,163.0,
R,U,"[2, 3]",1.0,1.0,0.7042229175567627,2.3036720752716064,0.41822290617813956,,985.0
B,L,"[2, 2]",1.0,2.0,0.5949201583862305,2.0571060180664062,0.4585293704072005,164.0,986.0
R,U,"[1, 2]",1.0,3.0,0.35393381118774414,1.6887848377227783,0.3309299368948667,164.0,987.0
B,L,"[1, 1]",1.0,4.0,0.2502429485321045,1.8955860137939453,0.6262604522453052,164.0,988.0
G,D,"[2, 1]",1.0,5.0,0.3335380554199219,2.055220127105713,0.714635920703516,164.0,989.0
R,U,"[1, 1]",1.0,6.0,0.41526198387145996,1.7381699085235596,0.3032775281313372,164.0,990.0
,,"(3, 3)",,,,,,164.0,
R,U,"[2, 3]",1.0,1.0,0.32795000076293945,2.202173948287964,0.5720743553170637,,991.0
B,L,"[2, 2]",1.0,2.0,0.23476481437683105,1.6601240634918213,0.4155241617894798,165.0,992.0
R,U,"[1, 2]",1.0,3.0,0.4431889057159424,1.7608280181884766,0.30981782879827535,165.0,993.0
B,L,"[1, 1]",1.0,4.0,0.22052979469299316,1.4912660121917725,0.26777479477394833,165.0,994.0
G,D,"[2, 1]",1.0,5.0,0.24938011169433594,1.8462870121002197,0.5805419643990591,165.0,995.0
R,U,"[1, 1]",1.0,6.0,0.221343994140625,1.6716699600219727,0.43560299218656556,165.0,996.0
,,"(3, 3)",,,,,,165.0,
R,U,"[2, 3]",1.0,1.0,0.23323607444763184,2.0916249752044678,0.5105447693216661,,997.0
B,L,"[2, 2]",1.0,2.0,0.38336992263793945,1.843073844909668,0.4538328841130398,166.0,998.0
R,U,"[1, 2]",1.0,3.0,0.24257397651672363,1.7507479190826416,0.504426301600872,166.0,999.0
B,L,"[1, 1]",1.0,4.0,0.1997389793395996,1.9213478565216064,0.7089275230488818,166.0,1000.0
G,D,"[2, 1]",1.0,5.0,0.4000880718231201,1.9020040035247803,0.49452862602199943,166.0,1001.0
R,U,"[1, 1]",1.0,6.0,0.1493849754333496,1.6171660423278809,0.46174370520167135,166.0,1002.0
,,"(3, 3)",,,,,,166.0,
B,L,"[3, 2]",-1.0,-1.0,0.45189595222473145,2.047498941421509,0.3926854810250201,,1003.0
B,L,"[3, 1]",-2.0,-1.0,1.7963330745697021,3.512948989868164,0.6883096470672656,167.0,1004.0
R,U,"[2, 1]",1.0,0.0,0.2569448947906494,1.777966022491455,0.5168904046235234,167.0,1005.0
B,L,"[2, 0]",0.0,0.0,0.19766497611999512,1.704986810684204,0.48851865979371123,167.0,1006.0
G,D,"[3, 0]",0.0,0.0,0.1935889720916748,1.5162138938903809,0.3217560320897108,167.0,1007.0
R,U,"[2, 0]",0.0,0.0,0.23400497436523438,1.8984720706939697,0.6697864084504062,167.0,1008.0
,,"(3, 3)",,,,,,167.0,
R,U,"[2, 3]",1.0,1.0,0.34505605697631836,2.240809202194214,0.29444846559217325,,1009.0
B,L,"[2, 2]",1.0,2.0,0.2012929916381836,1.5148749351501465,0.3092742813232152,168.0,1010.0
R,U,"[1, 2]",1.0,3.0,0.313215970993042,1.80647611618042,0.49901691999792075,168.0,1011.0
B,L,"[1, 1]",1.0,4.0,0.26368188858032227,2.0059151649475098,0.7379538751603061,168.0,1012.0
G,D,"[2, 1]",1.0,5.0,0.25581884384155273,1.6663188934326172,0.404620686614918,168.0,1013.0
R,U,"[1, 1]",1.0,6.0,0.30609583854675293,2.011363983154297,0.6991047074399968,168.0,1014.0
,,"(3, 3)",,,,,,168.0,
R,U,"[2, 3]",1.0,1.0,0.20828795433044434,1.8578670024871826,0.37391906928846275,,1015.0
B,L,"[2, 2]",1.0,2.0,0.32953596115112305,1.9759750366210938,0.6496308541265186,169.0,1016.0
R,U,"[1, 2]",1.0,3.0,0.27236413955688477,1.7619080543518066,0.4784853439499058,169.0,1017.0
B,L,"[1, 1]",1.0,4.0,0.3573160171508789,1.7859690189361572,0.43121552298071525,169.0,1018.0
G,D,"[2, 1]",1.0,5.0,0.28537511825561523,1.6161179542541504,0.3141187450334312,169.0,1019.0
R,U,"[1, 1]",1.0,6.0,0.27776384353637695,1.711418867111206,0.42537812956605997,169.0,1020.0
,,"(3, 3)",,,,,,169.0,
R,U,"[2, 3]",1.0,1.0,0.18077898025512695,2.251939058303833,0.7438148912898874,,1021.0
B,L,"[2, 2]",1.0,2.0,0.25516390800476074,1.947545051574707,0.6914444249733716,170.0,1022.0
R,U,"[1, 2]",1.0,3.0,0.3281679153442383,1.9672369956970215,0.6419892668083731,170.0,1023.0
B,L,"[1, 1]",1.0,4.0,0.31337404251098633,1.778623104095459,0.4707897904828473,170.0,1024.0
G,D,"[2, 1]",1.0,5.0,0.4071071147918701,2.001878023147583,0.5893350005062797,170.0,1025.0
R,U,"[1, 1]",1.0,6.0,0.24617815017700195,1.709014892578125,0.4652890507781011,170.0,1026.0
,,"(3, 3)",,,,,,170.0,
R,U,"[2, 3]",1.0,1.0,0.19742608070373535,2.4464399814605713,0.4619009329539004,,1027.0
B,L,"[2, 2]",-1.0,1.0,0.09444499015808105,5.558125019073486,0.3195658316243448,171.0,1028.0
R,U,"[1, 2]",1.0,2.0,0.2928049564361572,1.909804105758667,0.6129498400954576,171.0,1029.0
B,L,"[1, 1]",1.0,3.0,0.4222419261932373,2.174177885055542,0.737026202593243,171.0,1030.0
G,D,"[2, 1]",1.0,4.0,0.28757309913635254,2.045058012008667,0.748672827805011,171.0,1031.0
R,U,"[1, 1]",1.0,5.0,0.13774609565734863,1.5145080089569092,0.38032198142645907,171.0,1032.0
,,"(3, 3)",,,,,,171.0,
R,U,"[2, 3]",1.0,1.0,0.3331589698791504,2.0414891242980957,0.37195294654338545,,1033.0
B,L,"[2, 2]",1.0,2.0,0.47678184509277344,1.8984880447387695,0.420292554902398,172.0,1034.0
R,U,"[1, 2]",1.0,3.0,0.3778879642486572,1.7454779148101807,0.3657516944319896,172.0,1035.0
B,L,"[1, 1]",1.0,4.0,0.26598620414733887,1.7263450622558594,0.442287328691206,172.0,1036.0
G,D,"[2, 1]",1.0,5.0,0.5134620666503906,1.8693110942840576,0.3616271049091829,172.0,1037.0
R,U,"[1, 1]",1.0,6.0,0.5867898464202881,2.2755820751190186,0.6869639853828144,172.0,1038.0
,,"(3, 3)",,,,,,172.0,
R,U,"[2, 3]",1.0,1.0,0.8164119720458984,3.8181519508361816,0.5886648896230917,,1039.0
B,L,"[2, 2]",1.0,2.0,0.49302196502685547,2.2027289867401123,0.707765313695913,173.0,1040.0
R,U,"[1, 2]",1.0,3.0,0.5899131298065186,1.9474189281463623,0.3556288512528396,173.0,1041.0
B,L,"[1, 1]",1.0,4.0,0.420180082321167,1.7204132080078125,0.2926884967375294,173.0,1042.0
G,D,"[2, 1]",1.0,5.0,0.3224329948425293,1.8955259323120117,0.5713355910603362,173.0,1043.0
R,U,"[1, 1]",1.0,6.0,0.2977328300476074,1.8141248226165771,0.5188586374273152,173.0,1044.0
,,"(3, 3)",,,,,,173.0,
R,U,"[2, 3]",1.0,1.0,0.4000129699707031,2.875239849090576,0.3943890601468102,,1045.0
B,L,"[2, 2]",1.0,2.0,0.3131370544433594,1.993582010269165,0.6876965654085663,174.0,1046.0
R,U,"[1, 2]",1.0,3.0,0.4513859748840332,1.722688913345337,0.2608329396689638,174.0,1047.0
B,L,"[1, 1]",1.0,4.0,0.6037418842315674,2.086674928665161,0.4806769924784763,174.0,1048.0
G,D,"[2, 1]",1.0,5.0,0.4048290252685547,2.1344738006591797,0.714915797333393,174.0,1049.0
R,U,"[1, 1]",1.0,6.0,0.384005069732666,1.8641250133514404,0.4626522913594963,174.0,1050.0
,,"(3, 3)",,,,,,174.0,
R,U,"[2, 3]",1.0,1.0,0.2922070026397705,2.75632905960083,0.7022607517990707,,1051.0
B,L,"[2, 2]",1.0,2.0,0.39403390884399414,1.6988129615783691,0.3012681191630477,175.0,1052.0
R,U,"[1, 2]",1.0,3.0,0.4210679531097412,1.8566429615020752,0.42456521921267354,175.0,1053.0
B,L,"[1, 1]",1.0,4.0,0.36905813217163086,1.658600091934204,0.28337434899944874,175.0,1054.0
G,D,"[2, 1]",1.0,5.0,0.5274500846862793,1.9281690120697021,0.39474658773239707,175.0,1055.0
R,U,"[1, 1]",1.0,6.0,0.18419194221496582,1.6131441593170166,0.4245807481400625,175.0,1056.0
,,"(3, 3)",,,,,,175.0,
R,U,"[2, 3]",1.0,1.0,0.32319092750549316,2.226254940032959,0.31763900372386794,,1057.0
B,L,"[2, 2]",1.0,2.0,0.28209710121154785,1.916105031967163,0.6167405021940505,176.0,1058.0
R,U,"[1, 2]",1.0,3.0,0.24616503715515137,1.9964420795440674,0.7465195532943848,176.0,1059.0
B,L,"[1, 1]",1.0,4.0,0.5015878677368164,2.1973230838775635,0.6771768892759589,176.0,1060.0
G,D,"[2, 1]",1.0,5.0,0.1974489688873291,1.8508970737457275,0.6614195702771019,176.0,1061.0
R,U,"[1, 1]",1.0,6.0,0.2855207920074463,1.6113240718841553,0.3231185727071897,176.0,1062.0
,,"(3, 3)",,,,,,176.0,
R,U,"[2, 3]",1.0,1.0,0.26279592514038086,3.0775489807128906,0.7337415418557527,,1063.0
B,L,"[2, 2]",1.0,2.0,0.43149304389953613,1.8399510383605957,0.40727645157280096,177.0,1064.0
R,U,"[1, 2]",1.0,3.0,0.22044014930725098,1.9077599048614502,0.6815462068670368,177.0,1065.0
B,L,"[1, 1]",1.0,4.0,0.3997972011566162,1.978369951248169,0.5601523381522675,177.0,1066.0
G,D,"[2, 1]",1.0,5.0,0.39116907119750977,1.7853851318359375,0.39566863944877795,177.0,1067.0
R,U,"[1, 1]",1.0,6.0,0.3158409595489502,1.7013781070709229,0.3805354127759125,177.0,1068.0
,,"(3, 3)",,,,,,177.0,
R,U,"[2, 3]",1.0,1.0,0.21146178245544434,2.5471699237823486,0.37777967061863144,,1069.0
B,L,"[2, 2]",1.0,2.0,0.21498894691467285,1.9257450103759766,0.7197236088128465,178.0,1070.0
R,U,"[1, 2]",1.0,3.0,0.23254799842834473,1.7047059535980225,0.4746373900112429,178.0,1071.0
B,L,"[1, 1]",1.0,4.0,0.20869207382202148,1.8631129264831543,0.6541990884017205,178.0,1072.0
G,D,"[2, 1]",1.0,5.0,0.21718215942382812,1.897266149520874,0.6682198675730413,178.0,1073.0
R,U,"[1, 1]",1.0,6.0,0.22422099113464355,1.8857009410858154,0.6540209278432509,178.0,1074.0
,,"(3, 3)",,,,,,178.0,
R,U,"[2, 3]",1.0,1.0,0.2355210781097412,2.0262439250946045,0.3306694081287798,,1075.0
B,L,"[2, 2]",1.0,2.0,0.26671409606933594,1.672098159790039,0.40267131979378207,179.0,1076.0
