button_choice,action_choice,coordinate_choice,reward,cumulative_reward,rt,total_trial_time,iti,block_n,trial_n
R,U,"[2, 3]",-2.0,0.0,4.443424940109253,5.792724132537842,0.3106847785304353,0.0,1.0
Y,R,"[2, 4]",-1.0,-1.0,0.5549869537353516,2.156841993331909,0.6006432498921455,0.0,2.0
G,D,"[3, 4]",-1.0,-2.0,0.4115488529205322,1.7669367790222168,0.3509569229592125,0.0,3.0
R,U,"[2, 4]",0.0,-2.0,0.25608396530151367,1.5559039115905762,0.29033697756164345,0.0,4.0
B,L,"[2, 3]",0.0,-2.0,0.2800290584564209,1.6603832244873047,0.38395039173865486,0.0,5.0
G,D,"[3, 3]",0.0,-2.0,0.31256794929504395,1.6020519733428955,0.2859709281554251,0.0,6.0
,,"(3, 3)",,,,,,0.0,
Y,R,"[3, 4]",-1.0,-1.0,0.7531771659851074,6.595349073410034,0.7148148170559658,,7.0
R,U,"[2, 4]",-1.0,-2.0,0.2589230537414551,1.9267399311065674,0.6578567568279785,1.0,8.0
B,L,"[2, 3]",-1.0,-3.0,0.15249013900756836,1.4408628940582275,0.28253797260188546,1.0,9.0
G,D,"[3, 3]",0.0,-3.0,0.34416699409484863,1.6520771980285645,0.3013390338101402,1.0,10.0
G,D,"[4, 3]",-1.0,-4.0,0.32616591453552246,2.0666329860687256,0.700871815806036,1.0,11.0
R,U,"[3, 3]",0.0,-4.0,0.21648883819580078,1.5661780834197998,0.35073502609345153,1.0,12.0
,,"(3, 3)",,,,,,1.0,
Y,R,"[3, 4]",-1.0,-1.0,0.5487539768218994,5.585330009460449,0.5027162065452935,,13.0
R,U,"[2, 4]",-1.0,-2.0,0.23705720901489258,1.646216869354248,0.3989245355220929,2.0,14.0
B,L,"[2, 3]",-1.0,-3.0,0.17984509468078613,1.4882898330688477,0.3037999397535112,2.0,15.0
G,D,"[3, 3]",0.0,-3.0,0.24534392356872559,1.7171900272369385,0.47093506495825393,2.0,16.0
G,D,"[4, 3]",-1.0,-4.0,0.6069331169128418,1.9891760349273682,0.3769587612293018,2.0,17.0
G,D,"[5, 3]",-1.0,-5.0,0.3615748882293701,1.9462580680847168,0.5897856807831319,2.0,18.0
,,"(3, 3)",,,,,,2.0,
R,U,"[2, 3]",-1.0,-1.0,0.764150857925415,4.325860023498535,0.282608579073279,,19.0
R,U,"[1, 3]",1.0,0.0,0.7734551429748535,2.3070671558380127,0.5227233073473527,3.0,20.0
G,D,"[2, 3]",0.0,0.0,0.9335010051727295,2.241096019744873,0.297399250745953,3.0,21.0
B,L,"[2, 2]",1.0,1.0,0.42762088775634766,1.7530229091644287,0.31713023870355034,3.0,22.0
Y,R,"[2, 3]",0.0,1.0,0.4638550281524658,1.9291179180145264,0.46296967764016594,3.0,23.0
Y,R,"[2, 4]",-1.0,0.0,0.3504829406738281,1.772017002105713,0.4017518166404883,3.0,24.0
,,"(3, 3)",,,,,,3.0,
R,U,"[2, 3]",-1.0,-1.0,0.29434800148010254,3.5575449466705322,0.3427539778982547,,25.0
R,U,"[1, 3]",1.0,0.0,0.43794918060302734,1.97200608253479,0.5310162095107323,4.0,26.0
R,U,"[0, 3]",0.0,0.0,0.5898439884185791,2.0511438846588135,0.44919664969787326,4.0,27.0
G,D,"[1, 3]",0.0,0.0,0.9537708759307861,2.287864923477173,0.3372052273626102,4.0,28.0
G,D,"[2, 3]",0.0,0.0,0.17545700073242188,1.728166103363037,0.5483468327061041,4.0,29.0
G,D,"[3, 3]",0.0,0.0,0.21514105796813965,1.6860311031341553,0.4677544127880564,4.0,30.0
,,"(3, 3)",,,,,,4.0,
R,U,"[2, 3]",-1.0,-1.0,0.44446611404418945,8.936291933059692,0.7371902161838723,,31.0
R,U,"[1, 3]",1.0,0.0,0.2898738384246826,1.8048479557037354,0.5089590036625035,5.0,32.0
G,D,"[2, 3]",-2.0,0.0,1.473809003829956,3.2577409744262695,0.7497514945705555,5.0,33.0
G,D,"[3, 3]",0.0,0.0,0.17458295822143555,1.6713449954986572,0.4881471892560544,5.0,34.0
R,U,"[2, 3]",0.0,0.0,0.20588207244873047,1.6888320446014404,0.4769322934652639,5.0,35.0
B,L,"[2, 2]",1.0,1.0,0.38344383239746094,2.047969102859497,0.6581851786815598,5.0,36.0
,,"(3, 3)",,,,,,5.0,
B,L,"[3, 2]",1.0,1.0,0.7499139308929443,5.372765064239502,0.7475472853223006,,37.0
R,U,"[2, 2]",1.0,2.0,0.655472993850708,2.119753122329712,0.4510361273295532,6.0,38.0
G,D,"[3, 2]",0.0,2.0,0.5240490436553955,2.048283100128174,0.5160276521217801,6.0,39.0
Y,R,"[3, 3]",0.0,2.0,0.2827742099761963,1.8808619976043701,0.5967178118695902,6.0,40.0
G,D,"[4, 3]",-1.0,1.0,0.9515259265899658,2.519050121307373,0.5659378887956636,6.0,41.0
B,L,"[4, 2]",-1.0,1.0,0.039277076721191406,5.748565196990967,0.5813256552200989,6.0,42.0
,,"(3, 3)",,,,,,6.0,
R,U,"[2, 3]",-2.0,0.0,1.1778199672698975,6.401721000671387,0.5996368222317523,,43.0
R,U,"[1, 3]",1.0,1.0,0.7163112163543701,2.116919994354248,0.383461821008,7.0,44.0
B,L,"[1, 2]",1.0,2.0,0.32375192642211914,1.9677679538726807,0.6343523905979727,7.0,45.0
Y,R,"[1, 3]",0.0,2.0,0.6641180515289307,2.140921115875244,0.47542842335322816,7.0,46.0
G,D,"[2, 3]",0.0,2.0,0.5798139572143555,2.2353620529174805,0.6605768189305348,7.0,47.0
Y,R,"[2, 4]",-1.0,1.0,0.23572897911071777,1.6134300231933594,0.374285627708998,7.0,48.0
,,"(3, 3)",,,,,,7.0,
R,U,"[2, 3]",-1.0,-1.0,0.6160531044006348,4.077419996261597,0.3352445228783161,,49.0
B,L,"[2, 2]",-1.0,-1.0,0.07953190803527832,5.529222011566162,0.31455951097223533,8.0,50.0
B,L,"[2, 1]",1.0,0.0,0.1997208595275879,1.7851529121398926,0.5661530725636654,8.0,51.0
R,U,"[1, 1]",-1.0,-1.0,0.2753870487213135,1.6190600395202637,0.3356595613430948,8.0,52.0
B,L,"[1, 0]",0.0,-1.0,0.17273402214050293,1.8442559242248535,0.6628251968539355,8.0,53.0
B,L,"[1, 0]",0.0,-1.0,0.8218939304351807,2.231571912765503,0.39462442032436845,8.0,54.0
,,"(3, 3)",,,,,,8.0,
B,L,"[3, 2]",1.0,1.0,0.8703880310058594,3.914283037185669,0.3423313293373966,,55.0
R,U,"[2, 2]",1.0,2.0,0.5118429660797119,1.964430809020996,0.45673434647293165,9.0,56.0
Y,R,"[2, 3]",-1.0,1.0,0.5330610275268555,1.9541740417480469,0.4108921170007184,9.0,57.0
G,D,"[3, 3]",0.0,1.0,0.6322801113128662,2.002885103225708,0.36383283040786213,9.0,58.0
B,L,"[3, 2]",0.0,1.0,0.3097679615020752,1.8128528594970703,0.49330173270153715,9.0,59.0
Y,R,"[3, 3]",0.0,1.0,0.8895969390869141,2.245922088623047,0.356235896454112,9.0,60.0
,,"(3, 3)",,,,,,9.0,
R,U,"[2, 3]",-2.0,0.0,1.0638079643249512,4.866235971450806,0.6056599941095119,,61.0
R,U,"[1, 3]",1.0,1.0,0.48923611640930176,2.0596699714660645,0.5654691748128065,10.0,62.0
B,L,"[1, 2]",1.0,2.0,0.5536890029907227,1.849273920059204,0.28147792149071826,10.0,63.0
G,D,"[2, 2]",1.0,3.0,0.7695519924163818,2.480708122253418,0.6950839578501791,10.0,64.0
Y,R,"[2, 3]",0.0,3.0,0.5120799541473389,2.040347099304199,0.5358561313890535,10.0,65.0
Y,R,"[2, 4]",-1.0,2.0,0.48008298873901367,1.9528450965881348,0.45527745864455094,10.0,66.0
,,"(3, 3)",,,,,,10.0,
R,U,"[2, 3]",-1.0,-1.0,0.5451240539550781,4.4306480884552,0.5693025006797117,,67.0
R,U,"[1, 3]",1.0,0.0,0.8438470363616943,2.5939719676971436,0.7296821408788254,11.0,68.0
B,L,"[1, 2]",1.0,1.0,0.3960239887237549,1.7673430442810059,0.3640710190694229,11.0,69.0
G,D,"[2, 2]",1.0,2.0,0.2093038558959961,1.6356627941131592,0.4164113869237593,11.0,70.0
B,L,"[2, 1]",1.0,3.0,0.6721851825714111,2.3327529430389404,0.6490436278571967,11.0,71.0
R,U,"[1, 1]",-1.0,2.0,0.6137888431549072,1.983077049255371,0.34900810908789787,11.0,72.0
,,"(3, 3)",,,,,,11.0,
B,L,"[3, 2]",-2.0,0.0,1.1932880878448486,4.664863109588623,0.5972011982757182,,73.0
R,U,"[2, 2]",1.0,1.0,0.36705994606018066,1.9773240089416504,0.591219573842715,12.0,74.0
B,L,"[2, 1]",1.0,2.0,0.37343406677246094,1.9996871948242188,0.6241671832563143,12.0,75.0
G,D,"[3, 1]",1.0,3.0,0.17853498458862305,1.9084129333496094,0.7323880270985055,12.0,76.0
G,D,"[4, 1]",-1.0,2.0,0.5469989776611328,2.3162760734558105,0.7487753614074046,12.0,77.0
G,D,"[5, 1]",-1.0,1.0,0.3203308582305908,1.845721960067749,0.5114600338332653,12.0,78.0
,,"(3, 3)",,,,,,12.0,
R,U,"[2, 3]",-1.0,-1.0,0.8073229789733887,3.8734960556030273,0.46860123026308176,,79.0
R,U,"[1, 3]",1.0,0.0,0.19487404823303223,1.5720758438110352,0.3740914475628806,13.0,80.0
R,U,"[0, 3]",0.0,0.0,0.5442988872528076,2.1577908992767334,0.615025935175648,13.0,81.0
R,U,"[0, 3]",0.0,0.0,0.427854061126709,1.8407258987426758,0.40611935836857344,13.0,82.0
B,L,"[0, 2]",0.0,0.0,0.22431492805480957,1.807589054107666,0.5799380315611622,13.0,83.0
B,L,"[0, 1]",0.0,0.0,0.13193488121032715,1.5329020023345947,0.39650384081379664,13.0,84.0
,,"(3, 3)",,,,,,13.0,
R,U,"[2, 3]",-2.0,0.0,1.073632001876831,3.9051780700683594,0.30176114848455066,,85.0
R,U,"[1, 3]",1.0,1.0,0.34386491775512695,1.9659180641174316,0.617282391326121,14.0,86.0
B,L,"[1, 2]",1.0,2.0,0.2431190013885498,1.6580891609191895,0.4087724850413416,14.0,87.0
G,D,"[2, 2]",1.0,3.0,0.19844603538513184,1.4477570056915283,0.2567738094468044,14.0,88.0
Y,R,"[2, 3]",0.0,3.0,0.6423521041870117,2.3345301151275635,0.6909288633975044,14.0,89.0
R,U,"[1, 3]",0.0,3.0,0.5542678833007812,1.8815529346466064,0.3230779798662854,14.0,90.0
,,"(3, 3)",,,,,,14.0,
R,U,"[2, 3]",-1.0,-1.0,0.6226000785827637,5.7345850467681885,0.6740487415104583,,91.0
R,U,"[1, 3]",1.0,0.0,0.39249110221862793,1.7286698818206787,0.33646387000487854,15.0,92.0
B,L,"[1, 2]",1.0,1.0,0.37442898750305176,1.8042898178100586,0.4238895884191755,15.0,93.0
G,D,"[2, 2]",1.0,2.0,0.2293989658355713,1.5547208786010742,0.32887745343204505,15.0,94.0
B,L,"[2, 1]",1.0,3.0,0.4894719123840332,2.1037800312042236,0.6157647874674513,15.0,95.0
G,D,"[3, 1]",1.0,4.0,0.6356589794158936,2.1115639209747314,0.46088690406394806,15.0,96.0
,,"(3, 3)",,,,,,15.0,
R,U,"[2, 3]",-1.0,-1.0,0.8614528179168701,5.43134880065918,0.40870386075716725,,97.0
R,U,"[1, 3]",1.0,0.0,0.1710059642791748,1.8927488327026367,0.7179212942321864,16.0,98.0
B,L,"[1, 2]",1.0,1.0,0.18869304656982422,1.9080958366394043,0.7092909855665246,16.0,99.0
R,U,"[0, 2]",0.0,1.0,0.2366640567779541,1.7343828678131104,0.49392590848473533,16.0,100.0
G,D,"[1, 2]",0.0,1.0,0.2385101318359375,1.5555469989776611,0.3163413373964976,16.0,101.0
G,D,"[2, 2]",1.0,2.0,0.25880885124206543,1.580794095993042,0.313916946435046,16.0,102.0
,,"(3, 3)",,,,,,16.0,
R,U,"[2, 3]",-1.0,-1.0,0.8311188220977783,5.347431898117065,0.6443154704784815,,103.0
R,U,"[1, 3]",1.0,0.0,0.2786839008331299,1.9088377952575684,0.6198970925241106,17.0,104.0
B,L,"[1, 2]",1.0,1.0,0.16298508644104004,1.740649938583374,0.5772568072123911,17.0,105.0
B,L,"[1, 1]",-1.0,0.0,0.476560115814209,2.117075204849243,0.6441940306265594,17.0,106.0
G,D,"[2, 1]",1.0,1.0,0.1688220500946045,1.849769115447998,0.6775415998524343,17.0,107.0
R,U,"[1, 1]",0.0,1.0,0.27249813079833984,1.7516968250274658,0.47946201534442157,17.0,108.0
,,"(3, 3)",,,,,,17.0,
R,U,"[2, 3]",-2.0,0.0,1.0007059574127197,4.109511852264404,0.488919504618115,,109.0
R,U,"[1, 3]",1.0,1.0,0.2834160327911377,1.775852918624878,0.4814450641667073,18.0,110.0
B,L,"[1, 2]",1.0,2.0,0.258512020111084,2.0136590003967285,0.7447727104852409,18.0,111.0
G,D,"[2, 2]",1.0,3.0,0.3091709613800049,1.8830950260162354,0.5781635781279998,18.0,112.0
B,L,"[2, 1]",-2.0,3.0,1.1319098472595215,2.550379991531372,0.3954345230987102,18.0,113.0
B,L,"[2, 0]",0.0,3.0,0.4459869861602783,1.952674150466919,0.5147546196315111,18.0,114.0
,,"(3, 3)",,,,,,18.0,
R,U,"[2, 3]",-1.0,-1.0,0.7527780532836914,4.990631103515625,0.4221800365531222,,115.0
R,U,"[1, 3]",1.0,0.0,0.21215081214904785,1.8047640323638916,0.5935046314590792,19.0,116.0
B,L,"[1, 2]",1.0,1.0,0.8222718238830566,2.117434024810791,0.2945461532723891,19.0,117.0
G,D,"[2, 2]",1.0,2.0,0.4536581039428711,1.868391990661621,0.41290872755620883,19.0,118.0
B,L,"[2, 1]",1.0,3.0,0.5144028663635254,2.156993865966797,0.6362940063979565,19.0,119.0
G,D,"[3, 1]",1.0,4.0,0.3366508483886719,1.915235996246338,0.5682939246508989,19.0,120.0
,,"(3, 3)",,,,,,19.0,
R,U,"[2, 3]",-1.0,-1.0,0.9258921146392822,4.944462060928345,0.6464746334633935,,121.0
R,U,"[1, 3]",1.0,0.0,0.22524404525756836,1.8654060363769531,0.6285548851401807,20.0,122.0
B,L,"[1, 2]",1.0,1.0,0.2293088436126709,1.6140880584716797,0.3927764958032127,20.0,123.0
G,D,"[2, 2]",1.0,2.0,0.30281591415405273,1.584650993347168,0.2776822990492877,20.0,124.0
B,L,"[2, 1]",1.0,3.0,0.4134030342102051,1.6611549854278564,0.2553759982252377,20.0,125.0
G,D,"[3, 1]",1.0,4.0,0.2656900882720947,1.8424739837646484,0.5643695294203309,20.0,126.0
,,"(3, 3)",,,,,,20.0,
R,U,"[2, 3]",-1.0,-1.0,0.475783109664917,4.232943058013916,0.6304762763149785,,127.0
R,U,"[1, 3]",1.0,0.0,0.3005709648132324,1.7955169677734375,0.4762868132408752,21.0,128.0
B,L,"[1, 2]",1.0,1.0,0.2083418369293213,1.7387981414794922,0.5318577911988444,21.0,129.0
G,D,"[2, 2]",-1.0,1.0,0.04867100715637207,5.915841102600098,0.7306395536319998,21.0,130.0
G,D,"[3, 2]",1.0,2.0,0.3568291664123535,1.9034349918365479,0.5343276839559317,21.0,131.0
B,L,"[3, 1]",1.0,3.0,0.2769019603729248,1.6590759754180908,0.3769668036528479,21.0,132.0
,,"(3, 3)",,,,,,21.0,
R,U,"[2, 3]",-1.0,-1.0,0.6558401584625244,4.463176012039185,0.5899738829505834,,133.0
R,U,"[1, 3]",-1.0,-1.0,0.04866981506347656,5.612571954727173,0.4358356831655097,22.0,134.0
R,U,"[0, 3]",0.0,-1.0,0.25135207176208496,1.7601490020751953,0.5129222318735271,22.0,135.0
B,L,"[0, 2]",0.0,-1.0,0.26344895362854004,1.9357800483703613,0.6651097693819702,22.0,136.0
G,D,"[1, 2]",1.0,0.0,0.2959771156311035,1.7221689224243164,0.40416603247736865,22.0,137.0
R,U,"[0, 2]",0.0,0.0,0.2464580535888672,1.7548778057098389,0.5089228660953098,22.0,138.0
,,"(3, 3)",,,,,,22.0,
R,U,"[2, 3]",-1.0,-1.0,0.8037798404693604,4.282801866531372,0.6087071166117819,,139.0
R,U,"[1, 3]",1.0,0.0,0.26137495040893555,1.7064101696014404,0.4486764430735558,23.0,140.0
B,L,"[1, 2]",1.0,1.0,0.24199295043945312,1.837540864944458,0.5858898320319637,23.0,141.0
G,D,"[2, 2]",1.0,2.0,0.23503780364990234,1.6316688060760498,0.38446937852268587,23.0,142.0
B,L,"[2, 1]",1.0,3.0,0.3692138195037842,1.6463840007781982,0.2644241132941918,23.0,143.0
G,D,"[3, 1]",1.0,4.0,0.4642331600189209,1.8747389316558838,0.40544203399404016,23.0,144.0
,,"(3, 3)",,,,,,23.0,
R,U,"[2, 3]",-2.0,0.0,2.1599769592285156,5.619692802429199,0.32549033578801145,,145.0
R,U,"[1, 3]",1.0,1.0,0.34221696853637695,2.0067028999328613,0.6652274219020561,24.0,146.0
B,L,"[1, 2]",1.0,2.0,0.2895190715789795,1.735887050628662,0.4347299652532856,24.0,147.0
G,D,"[2, 2]",1.0,3.0,0.24223899841308594,1.9532530307769775,0.704275212308276,24.0,148.0
B,L,"[2, 1]",1.0,4.0,0.4155919551849365,1.7810859680175781,0.3525903182866791,24.0,149.0
G,D,"[3, 1]",1.0,5.0,0.30516481399536133,1.807131052017212,0.4928496397002077,24.0,150.0
,,"(3, 3)",,,,,,24.0,
R,U,"[2, 3]",-1.0,-1.0,0.7705237865447998,4.479681015014648,0.6059156787923967,,151.0
R,U,"[1, 3]",-1.0,-1.0,0.01528620719909668,5.5137038230896,0.3697014948861499,25.0,152.0
R,U,"[0, 3]",0.0,-1.0,0.31439995765686035,1.9083120822906494,0.594613558261164,25.0,153.0
B,L,"[0, 2]",0.0,-1.0,0.13347506523132324,1.7351548671722412,0.6131503920170894,25.0,154.0
G,D,"[1, 2]",1.0,0.0,0.18357396125793457,1.6828680038452148,0.4795754935609466,25.0,155.0
G,D,"[2, 2]",1.0,1.0,0.20734095573425293,1.9542639255523682,0.7335182308750077,25.0,156.0
,,"(3, 3)",,,,,,25.0,
Y,R,"[3, 4]",-1.0,-1.0,0.9855740070343018,4.488240957260132,0.5220089286852427,,157.0
R,U,"[2, 4]",-1.0,-2.0,0.25318002700805664,1.7356841564178467,0.4744425047410183,26.0,158.0
R,U,"[1, 4]",-1.0,-3.0,0.21187114715576172,1.5342869758605957,0.3256409482844888,26.0,159.0
B,L,"[1, 3]",1.0,-2.0,0.20082592964172363,1.6865119934082031,0.478669720998572,26.0,160.0
G,D,"[2, 3]",-1.0,-3.0,0.23932194709777832,1.8846919536590576,0.6464846083073312,26.0,161.0
B,L,"[2, 2]",1.0,-2.0,0.2863650321960449,1.8576610088348389,0.5542387717439927,26.0,162.0
,,"(3, 3)",,,,,,26.0,
R,U,"[2, 3]",-1.0,-1.0,0.6918208599090576,4.164947032928467,0.5860743564021657,,163.0
R,U,"[1, 3]",1.0,0.0,0.21210312843322754,1.549041986465454,0.3352829897585081,27.0,164.0
B,L,"[1, 2]",1.0,1.0,0.21080493927001953,1.709902048110962,0.4951012860982811,27.0,165.0
G,D,"[2, 2]",1.0,2.0,0.17080903053283691,1.775202989578247,0.6034082370457516,27.0,166.0
B,L,"[2, 1]",1.0,3.0,0.24066400527954102,1.769209861755371,0.5226321105146479,27.0,167.0
G,D,"[3, 1]",1.0,4.0,0.3086869716644287,1.7917850017547607,0.48117230996633265,27.0,168.0
,,"(3, 3)",,,,,,27.0,
R,U,"[2, 3]",-1.0,-1.0,0.8987338542938232,4.021235942840576,0.5024206646684235,,169.0
R,U,"[1, 3]",1.0,0.0,0.18366408348083496,1.761786937713623,0.5642743406087367,28.0,170.0
B,L,"[1, 2]",1.0,1.0,0.17427897453308105,1.8946349620819092,0.7088445198866052,28.0,171.0
G,D,"[2, 2]",1.0,2.0,0.26677703857421875,1.6199967861175537,0.34577311872674127,28.0,172.0
B,L,"[2, 1]",1.0,3.0,0.4270780086517334,1.8338079452514648,0.41295550791392327,28.0,173.0
G,D,"[3, 1]",1.0,4.0,0.43140387535095215,1.740468978881836,0.30368757833557364,28.0,174.0
,,"(3, 3)",,,,,,28.0,
R,U,"[2, 3]",-2.0,0.0,1.0766370296478271,4.00766396522522,0.5278516552063954,,175.0
R,U,"[1, 3]",1.0,1.0,0.22719907760620117,1.7948589324951172,0.5728208888915194,29.0,176.0
B,L,"[1, 2]",1.0,2.0,0.15929698944091797,1.888274908065796,0.7275223683880406,29.0,177.0
G,D,"[2, 2]",1.0,3.0,0.3969449996948242,2.105769157409668,0.7000685305947826,29.0,178.0
B,L,"[2, 1]",1.0,4.0,0.1773850917816162,1.4939229488372803,0.3110084373434715,29.0,179.0
G,D,"[3, 1]",1.0,5.0,0.21998190879821777,1.9270281791687012,0.7043284385838661,29.0,180.0
,,"(3, 3)",,,,,,29.0,
R,U,"[2, 3]",-1.0,-1.0,0.9193179607391357,3.9478759765625,0.5522840328612786,,181.0
R,U,"[1, 3]",1.0,0.0,0.2357921600341797,1.976633071899414,0.7288051286284056,30.0,182.0
B,L,"[1, 2]",1.0,1.0,0.1563570499420166,1.4384450912475586,0.2842719684257758,30.0,183.0
G,D,"[2, 2]",1.0,2.0,0.25826597213745117,1.5253570079803467,0.25965514243211174,30.0,184.0
B,L,"[2, 1]",1.0,3.0,0.22968578338623047,1.712339162826538,0.4885208715937431,30.0,185.0
G,D,"[3, 1]",1.0,4.0,0.2660391330718994,1.7394590377807617,0.4779975953946098,30.0,186.0
,,"(3, 3)",,,,,,30.0,
R,U,"[2, 3]",-1.0,-1.0,0.7280449867248535,3.791018009185791,0.31951298952119644,,187.0
R,U,"[1, 3]",1.0,0.0,0.1558821201324463,1.8832991123199463,0.7190170611193181,31.0,188.0
B,L,"[1, 2]",-1.0,0.0,0.007770061492919922,5.719398021697998,0.588658935490321,31.0,189.0
B,L,"[1, 1]",-1.0,-1.0,0.314208984375,2.072075843811035,0.7438736824172393,31.0,190.0
G,D,"[2, 1]",1.0,0.0,0.3405129909515381,1.899458885192871,0.5602007987098918,31.0,191.0
R,U,"[1, 1]",0.0,0.0,0.20975995063781738,1.7984378337860107,0.5920189860008387,31.0,192.0
,,"(3, 3)",,,,,,31.0,
R,U,"[2, 3]",-1.0,-1.0,0.9667901992797852,3.6819729804992676,0.2575413252149831,,193.0
R,U,"[1, 3]",1.0,0.0,0.20746898651123047,1.735253095626831,0.5258593831336235,32.0,194.0
B,L,"[1, 2]",1.0,1.0,0.23549103736877441,1.8836150169372559,0.6427120611351363,32.0,195.0
G,D,"[2, 2]",1.0,2.0,0.27613306045532227,1.8024139404296875,0.528649073265814,32.0,196.0
B,L,"[2, 1]",1.0,3.0,0.2960081100463867,1.790794849395752,0.5028282585200932,32.0,197.0
G,D,"[3, 1]",1.0,4.0,0.30629897117614746,2.0636720657348633,0.7498192210504708,32.0,198.0
,,"(3, 3)",,,,,,32.0,
R,U,"[2, 3]",-2.0,0.0,1.3910739421844482,4.920417070388794,0.4869388102084685,,199.0
R,U,"[1, 3]",1.0,1.0,0.36102890968322754,1.8928179740905762,0.5298254497845984,33.0,200.0
B,L,"[1, 2]",1.0,2.0,0.13510513305664062,1.4564027786254883,0.3032608489899409,33.0,201.0
G,D,"[2, 2]",1.0,3.0,0.2672290802001953,1.7060198783874512,0.42589250670831275,33.0,202.0
B,L,"[2, 1]",1.0,4.0,0.20624089241027832,1.9309380054473877,0.7232645271418054,33.0,203.0
G,D,"[3, 1]",1.0,5.0,0.18997979164123535,1.6769130229949951,0.4839661283481528,33.0,204.0
,,"(3, 3)",,,,,,33.0,
R,U,"[2, 3]",-1.0,-1.0,0.9931051731109619,3.605530023574829,0.25629057775835484,,205.0
R,U,"[1, 3]",1.0,0.0,0.21685004234313965,1.6727159023284912,0.44534537108241123,34.0,206.0
B,L,"[1, 2]",1.0,1.0,0.2002561092376709,1.7772960662841797,0.572592913010715,34.0,207.0
G,D,"[2, 2]",1.0,2.0,0.17007184028625488,1.8413050174713135,0.6641928023971955,34.0,208.0
B,L,"[2, 1]",1.0,3.0,0.19484496116638184,1.786388874053955,0.5835740357560844,34.0,209.0
G,D,"[3, 1]",1.0,4.0,0.40459203720092773,2.1112639904022217,0.694856661453539,34.0,210.0
,,"(3, 3)",,,,,,34.0,
R,U,"[2, 3]",-2.0,0.0,1.0677471160888672,4.0441038608551025,0.5723874221152845,,211.0
R,U,"[1, 3]",1.0,1.0,0.2548801898956299,1.6923398971557617,0.43184083764489434,35.0,212.0
B,L,"[1, 2]",1.0,2.0,0.21393704414367676,1.876371145248413,0.6580485976068329,35.0,213.0
G,D,"[2, 2]",1.0,3.0,0.12840914726257324,1.6047320365905762,0.4795722319171731,35.0,214.0
B,L,"[2, 1]",1.0,4.0,0.17057490348815918,1.6494441032409668,0.462255945437022,35.0,215.0
G,D,"[3, 1]",1.0,5.0,0.17136287689208984,1.6240031719207764,0.4532292948044161,35.0,216.0
,,"(3, 3)",,,,,,35.0,
R,U,"[2, 3]",-1.0,-1.0,0.9145121574401855,3.861440896987915,0.5809180763295108,,217.0
R,U,"[1, 3]",-1.0,-1.0,0.07736611366271973,5.621289968490601,0.38601831999884256,36.0,218.0
R,U,"[0, 3]",0.0,-1.0,0.3300931453704834,1.815661907196045,0.4849508659441807,36.0,219.0
B,L,"[0, 2]",0.0,-1.0,0.3493959903717041,2.0885050296783447,0.7397472399138797,36.0,220.0
G,D,"[1, 2]",1.0,0.0,0.2611570358276367,1.8959548473358154,0.6194254812116713,36.0,221.0
G,D,"[2, 2]",1.0,1.0,0.2614481449127197,1.7684459686279297,0.5045289211596542,36.0,222.0
,,"(3, 3)",,,,,,36.0,
R,U,"[2, 3]",-1.0,-1.0,0.666499137878418,3.7978920936584473,0.5524376755234717,,223.0
R,U,"[1, 3]",1.0,0.0,0.202225923538208,1.519679069519043,0.3057769377715213,37.0,224.0
B,L,"[1, 2]",1.0,1.0,0.28722095489501953,1.630523920059204,0.3362938115119964,37.0,225.0
G,D,"[2, 2]",1.0,2.0,0.17691397666931152,1.599902868270874,0.4194766547939327,37.0,226.0
B,L,"[2, 1]",1.0,3.0,0.3361198902130127,2.067007064819336,0.7195383575064593,37.0,227.0
G,D,"[3, 1]",1.0,4.0,0.2115919589996338,1.5687592029571533,0.355101508041193,37.0,228.0
,,"(3, 3)",,,,,,37.0,
B,L,"[3, 2]",1.0,1.0,0.6891138553619385,3.3191440105438232,0.34116023422457203,,229.0
G,D,"[4, 2]",-1.0,0.0,0.21117401123046875,1.8933961391448975,0.6842667882570761,38.0,230.0
B,L,"[4, 1]",-1.0,-1.0,0.19028091430664062,1.7796339988708496,0.580772264392321,38.0,231.0
R,U,"[3, 1]",1.0,0.0,0.17879796028137207,1.4488739967346191,0.2631523859885081,38.0,232.0
R,U,"[2, 1]",1.0,1.0,0.34612393379211426,1.6148369312286377,0.2612871761090478,38.0,233.0
R,U,"[1, 1]",-1.0,0.0,0.4302079677581787,1.8547730445861816,0.4160452641373243,38.0,234.0
,,"(3, 3)",,,,,,38.0,
R,U,"[2, 3]",-1.0,-1.0,0.5056569576263428,3.129502773284912,0.3122513520283873,,235.0
R,U,"[1, 3]",1.0,0.0,0.23278403282165527,1.901426076889038,0.6633193531037178,39.0,236.0
B,L,"[1, 2]",1.0,1.0,0.24116802215576172,1.8987410068511963,0.6454473230729071,39.0,237.0
G,D,"[2, 2]",1.0,2.0,0.2479250431060791,1.5343670845031738,0.29698761661145606,39.0,238.0
B,L,"[2, 1]",1.0,3.0,0.6879398822784424,1.9507460594177246,0.26444103304793587,39.0,239.0
G,D,"[3, 1]",1.0,4.0,0.3630669116973877,1.7415540218353271,0.37253369297517613,39.0,240.0
,,"(3, 3)",,,,,,39.0,
R,U,"[2, 3]",-2.0,0.0,1.073214054107666,4.0616700649261475,0.5508556487526033,,241.0
R,U,"[1, 3]",1.0,1.0,0.2861919403076172,1.8603849411010742,0.561231325849939,40.0,242.0
B,L,"[1, 2]",1.0,2.0,0.21044611930847168,1.5827288627624512,0.37740009343963254,40.0,243.0
G,D,"[2, 2]",1.0,3.0,0.17197704315185547,1.858309030532837,0.685477898880684,40.0,244.0
B,L,"[2, 1]",-1.0,3.0,0.03353595733642578,5.662853002548218,0.49858883247067864,40.0,245.0
B,L,"[2, 0]",0.0,3.0,0.2769770622253418,1.5387330055236816,0.2543710564490252,40.0,246.0
,,"(3, 3)",,,,,,40.0,
R,U,"[2, 3]",-1.0,-1.0,0.7661349773406982,3.4576210975646973,0.2951841940514073,,247.0
R,U,"[1, 3]",1.0,0.0,0.29573512077331543,1.77463698387146,0.4864911560428508,41.0,248.0
B,L,"[1, 2]",1.0,1.0,0.37063121795654297,1.981855869293213,0.6016436995843528,41.0,249.0
G,D,"[2, 2]",1.0,2.0,0.3322138786315918,1.6439180374145508,0.2959666977786066,41.0,250.0
B,L,"[2, 1]",1.0,3.0,0.38294005393981934,1.9902620315551758,0.602547991515214,41.0,251.0
G,D,"[3, 1]",1.0,4.0,0.28536200523376465,1.6898589134216309,0.39266888254014276,41.0,252.0
,,"(3, 3)",,,,,,41.0,
R,U,"[2, 3]",-1.0,-1.0,0.965634822845459,4.203742980957031,0.6294874933588032,,253.0
R,U,"[1, 3]",-1.0,-1.0,0.010981082916259766,5.814496040344238,0.6606693191166906,42.0,254.0
R,U,"[0, 3]",0.0,-1.0,0.4514048099517822,1.941533088684082,0.5024742334439465,42.0,255.0
B,L,"[0, 2]",0.0,-1.0,0.48049116134643555,2.1178829669952393,0.6370865812225734,42.0,256.0
G,D,"[1, 2]",1.0,0.0,0.2158041000366211,1.5514588356018066,0.32185978960293077,42.0,257.0
G,D,"[2, 2]",1.0,1.0,0.25098395347595215,1.9470088481903076,0.6851689216417066,42.0,258.0
,,"(3, 3)",,,,,,42.0,
R,U,"[2, 3]",-1.0,-1.0,0.5082080364227295,3.673145055770874,0.4587822771412967,,259.0
R,U,"[1, 3]",1.0,0.0,0.24041295051574707,1.6709599494934082,0.4296721038299588,43.0,260.0
B,L,"[1, 2]",1.0,1.0,0.22237110137939453,1.9001610279083252,0.6630268715139027,43.0,261.0
G,D,"[2, 2]",1.0,2.0,0.25857090950012207,1.9855608940124512,0.7152407237377251,43.0,262.0
B,L,"[2, 1]",1.0,3.0,0.295943021774292,1.9309971332550049,0.6296229775699221,43.0,263.0
G,D,"[3, 1]",1.0,4.0,0.19259405136108398,1.7925560474395752,0.5889473307204718,43.0,264.0
,,"(3, 3)",,,,,,43.0,
R,U,"[2, 3]",-2.0,0.0,1.229773998260498,5.497342109680176,0.7195751733924967,,265.0
R,U,"[1, 3]",1.0,1.0,0.22545981407165527,1.5008959770202637,0.2709817136169601,44.0,266.0
B,L,"[1, 2]",1.0,2.0,0.32054901123046875,2.013176202774048,0.6836893523485158,44.0,267.0
G,D,"[2, 2]",1.0,3.0,0.2258608341217041,1.6603879928588867,0.4276880815426872,44.0,268.0
B,L,"[2, 1]",1.0,4.0,0.24103403091430664,1.5570459365844727,0.318209367958853,44.0,269.0
G,D,"[3, 1]",1.0,5.0,0.24035406112670898,1.650749921798706,0.40252263952957,44.0,270.0
,,"(3, 3)",,,,,,44.0,
R,U,"[2, 3]",-2.0,0.0,1.0420899391174316,4.17628288269043,0.4951916710225171,,271.0
R,U,"[1, 3]",1.0,1.0,0.24988198280334473,1.4933321475982666,0.25548529335069925,45.0,272.0
B,L,"[1, 2]",1.0,2.0,0.2860441207885742,1.8795418739318848,0.6013686665521591,45.0,273.0
G,D,"[2, 2]",-1.0,2.0,0.013064861297607422,5.868901014328003,0.720232407417798,45.0,274.0
G,D,"[3, 2]",1.0,3.0,0.2662839889526367,1.8339638710021973,0.5544029542990401,45.0,275.0
B,L,"[3, 1]",1.0,4.0,0.32413697242736816,1.8286240100860596,0.49969333017258427,45.0,276.0
,,"(3, 3)",,,,,,45.0,
R,U,"[2, 3]",-1.0,-1.0,0.9000780582427979,4.048228025436401,0.31492652048926184,,277.0
R,U,"[1, 3]",1.0,0.0,0.2616391181945801,1.7105588912963867,0.44199010176132947,46.0,278.0
B,L,"[1, 2]",1.0,1.0,0.25879907608032227,1.9582939147949219,0.7001618265962987,46.0,279.0
G,D,"[2, 2]",1.0,2.0,0.22318005561828613,1.6275050640106201,0.39471199241774907,46.0,280.0
B,L,"[2, 1]",1.0,3.0,0.3283228874206543,1.8567819595336914,0.5345626197967983,46.0,281.0
G,D,"[3, 1]",1.0,4.0,0.38302111625671387,1.6714959144592285,0.2896072400286251,46.0,282.0
,,"(3, 3)",,,,,,46.0,
R,U,"[2, 3]",-2.0,0.0,1.0124809741973877,4.054399013519287,0.5607233595816112,,283.0
R,U,"[1, 3]",1.0,1.0,0.21782612800598145,1.6418030261993408,0.41933829883174056,47.0,284.0
B,L,"[1, 2]",1.0,2.0,0.23977398872375488,1.652590036392212,0.4052923760636966,47.0,285.0
G,D,"[2, 2]",1.0,3.0,0.21486306190490723,1.552321195602417,0.34074963074081294,47.0,286.0
B,L,"[2, 1]",1.0,4.0,0.1998610496520996,1.5377709865570068,0.3287249614053261,47.0,287.0
G,D,"[3, 1]",1.0,5.0,0.19658708572387695,1.5749530792236328,0.3868693877425391,47.0,288.0
,,"(3, 3)",,,,,,47.0,
R,U,"[2, 3]",-1.0,-1.0,0.7945380210876465,3.6955909729003906,0.7488271757542937,,289.0
R,U,"[1, 3]",1.0,0.0,0.2153329849243164,1.580380916595459,0.34652151216197963,48.0,290.0
B,L,"[1, 2]",1.0,1.0,0.23256182670593262,1.7471628189086914,0.4935988881367839,48.0,291.0
G,D,"[2, 2]",-1.0,1.0,0.05301809310913086,5.773809909820557,0.6008018342719164,48.0,292.0
G,D,"[3, 2]",1.0,2.0,0.3799300193786621,1.749864101409912,0.3672877546570984,48.0,293.0
B,L,"[3, 1]",1.0,3.0,0.3088719844818115,1.7190442085266113,0.4032814235365044,48.0,294.0
,,"(3, 3)",,,,,,48.0,
R,U,"[2, 3]",-1.0,-1.0,0.7070920467376709,4.245105981826782,0.6646687542693124,,295.0
R,U,"[1, 3]",1.0,0.0,0.22319793701171875,1.6828789710998535,0.4479046191309503,49.0,296.0
B,L,"[1, 2]",1.0,1.0,0.34912800788879395,1.8434748649597168,0.474515753982962,49.0,297.0
G,D,"[2, 2]",1.0,2.0,0.2676270008087158,1.7435669898986816,0.4682611269032765,49.0,298.0
B,L,"[2, 1]",1.0,3.0,0.3150460720062256,2.0552868843078613,0.7232791777688026,49.0,299.0
G,D,"[3, 1]",1.0,4.0,0.30211591720581055,1.9331560134887695,0.6231204170466553,49.0,300.0
,,"(3, 3)",,,,,,49.0,
R,U,"[2, 3]",-2.0,0.0,1.0423088073730469,4.123267889022827,0.34687671135273546,,301.0
R,U,"[1, 3]",1.0,1.0,0.27547311782836914,1.7294988632202148,0.4429981194048816,50.0,302.0
B,L,"[1, 2]",1.0,2.0,0.2431018352508545,1.9728429317474365,0.7320622443384839,50.0,303.0
G,D,"[2, 2]",1.0,3.0,0.23351383209228516,1.9464640617370605,0.6953209661411233,50.0,304.0
B,L,"[2, 1]",1.0,4.0,0.22009897232055664,1.833528995513916,0.6289683272053397,50.0,305.0
G,D,"[3, 1]",1.0,5.0,0.25153398513793945,1.7130999565124512,0.42567653970442604,50.0,306.0
,,"(3, 3)",,,,,,50.0,
R,U,"[2, 3]",-1.0,-1.0,0.7351341247558594,4.8839240074157715,0.6593844146691603,,307.0
R,U,"[1, 3]",1.0,0.0,0.19401001930236816,1.6713218688964844,0.4808700237436659,51.0,308.0
B,L,"[1, 2]",1.0,1.0,0.2500579357147217,1.9040319919586182,0.6347732611064938,51.0,309.0
G,D,"[2, 2]",1.0,2.0,0.2318429946899414,1.78609299659729,0.5543830887230499,51.0,310.0
B,L,"[2, 1]",1.0,3.0,0.22762393951416016,1.794631004333496,0.5659008949965931,51.0,311.0
G,D,"[3, 1]",1.0,4.0,0.26183080673217773,1.6457390785217285,0.3782650871178291,51.0,312.0
,,"(3, 3)",,,,,,51.0,
R,U,"[2, 3]",-1.0,-1.0,0.9128727912902832,4.165843963623047,0.6772133600587837,,313.0
R,U,"[1, 3]",1.0,0.0,0.2670900821685791,1.8174750804901123,0.5448400999742224,52.0,314.0
B,L,"[1, 2]",1.0,1.0,0.28659701347351074,1.7824499607086182,0.5110149280045819,52.0,315.0
G,D,"[2, 2]",1.0,2.0,0.23415684700012207,1.6890010833740234,0.4666623746314297,52.0,316.0
B,L,"[2, 1]",1.0,3.0,0.3122570514678955,2.0584909915924072,0.741616502748166,52.0,317.0
G,D,"[3, 1]",1.0,4.0,0.2755858898162842,1.663550853729248,0.3886695883523771,52.0,318.0
,,"(3, 3)",,,,,,52.0,
R,U,"[2, 3]",-2.0,0.0,1.0932748317718506,4.099608898162842,0.32179710572248693,,319.0
R,U,"[1, 3]",1.0,1.0,0.24062705039978027,1.68876314163208,0.4438124154302659,53.0,320.0
B,L,"[1, 2]",1.0,2.0,0.21836495399475098,1.5686790943145752,0.3460126542611567,53.0,321.0
G,D,"[2, 2]",1.0,3.0,0.22969508171081543,1.9635810852050781,0.7424330629084614,53.0,322.0
B,L,"[2, 1]",1.0,4.0,0.20525598526000977,1.8947649002075195,0.6872643132102932,53.0,323.0
G,D,"[3, 1]",1.0,5.0,0.21121001243591309,1.948758840560913,0.7359442139827911,53.0,324.0
,,"(3, 3)",,,,,,53.0,
R,U,"[2, 3]",-1.0,-1.0,0.9719328880310059,4.0986549854278564,0.6349707793739502,,325.0
R,U,"[1, 3]",1.0,0.0,0.23442387580871582,1.6975231170654297,0.4494532980166053,54.0,326.0
B,L,"[1, 2]",1.0,1.0,0.2365739345550537,1.7542839050292969,0.5035945131771413,54.0,327.0
G,D,"[2, 2]",1.0,2.0,0.21267414093017578,1.6206879615783691,0.40765555082673754,54.0,328.0
B,L,"[2, 1]",1.0,3.0,0.2308511734008789,1.5024549961090088,0.2767736637291948,54.0,329.0
G,D,"[3, 1]",1.0,4.0,0.2869560718536377,1.983046054840088,0.6927669228676834,54.0,330.0
,,"(3, 3)",,,,,,54.0,
R,U,"[2, 3]",-2.0,0.0,1.2290449142456055,4.488394021987915,0.28180330340454074,,331.0
R,U,"[1, 3]",1.0,1.0,0.23467302322387695,1.6338698863983154,0.3822161749154154,55.0,332.0
B,L,"[1, 2]",1.0,2.0,0.2495889663696289,1.6705739498138428,0.40279124054707344,55.0,333.0
G,D,"[2, 2]",1.0,3.0,0.20938611030578613,1.7699470520019531,0.5560112935468152,55.0,334.0
B,L,"[2, 1]",1.0,4.0,0.2664010524749756,2.0082480907440186,0.7306822643151802,55.0,335.0
G,D,"[3, 1]",1.0,5.0,0.21282505989074707,1.8262600898742676,0.6071755462416097,55.0,336.0
,,"(3, 3)",,,,,,55.0,
R,U,"[2, 3]",-2.0,0.0,1.0348460674285889,4.173932075500488,0.5313952994183846,,337.0
R,U,"[1, 3]",1.0,1.0,0.28987908363342285,2.0241119861602783,0.7217566690969497,56.0,338.0
B,L,"[1, 2]",1.0,2.0,0.20771288871765137,1.4688479900360107,0.25765566369901816,56.0,339.0
G,D,"[2, 2]",1.0,3.0,0.4467000961303711,1.8431789875030518,0.40086120954758975,56.0,340.0
B,L,"[2, 1]",1.0,4.0,0.1941390037536621,1.650144100189209,0.45093109599207104,56.0,341.0
G,D,"[3, 1]",1.0,5.0,0.20500493049621582,1.7665269374847412,0.5674883463264457,56.0,342.0
,,"(3, 3)",,,,,,56.0,
R,U,"[2, 3]",-2.0,0.0,1.2005248069763184,4.788708925247192,0.42311626422523113,,343.0
R,U,"[1, 3]",1.0,1.0,0.44994091987609863,2.1500730514526367,0.6894344244535815,57.0,344.0
B,L,"[1, 2]",1.0,2.0,0.2037491798400879,1.933480978012085,0.7229444264758391,57.0,345.0
G,D,"[2, 2]",1.0,3.0,0.21080303192138672,1.51375412940979,0.3039282624962306,57.0,346.0
B,L,"[2, 1]",1.0,4.0,0.2882201671600342,1.8865258693695068,0.590212628509861,57.0,347.0
R,U,"[1, 1]",-1.0,3.0,0.4442939758300781,1.7135400772094727,0.2540002513595882,57.0,348.0
,,"(3, 3)",,,,,,57.0,
R,U,"[2, 3]",-2.0,0.0,1.363664150238037,4.752887964248657,0.6067771787356047,,349.0
R,U,"[1, 3]",1.0,1.0,0.39151597023010254,1.7830650806427002,0.39009759096288793,58.0,350.0
B,L,"[1, 2]",1.0,2.0,0.20525622367858887,1.6840460300445557,0.47412289304644234,58.0,351.0
G,D,"[2, 2]",1.0,3.0,0.1991128921508789,1.8524789810180664,0.6430991047781889,58.0,352.0
B,L,"[2, 1]",1.0,4.0,0.18100810050964355,1.8179709911346436,0.6444913301287232,58.0,353.0
G,D,"[3, 1]",1.0,5.0,0.5043761730194092,2.2083141803741455,0.7027167008661875,58.0,354.0
,,"(3, 3)",,,,,,58.0,
R,U,"[2, 3]",-2.0,0.0,1.003221035003662,3.9672160148620605,0.43676932257374995,,355.0
R,U,"[1, 3]",1.0,1.0,0.22942495346069336,1.8129401206970215,0.5828821717074217,59.0,356.0
B,L,"[1, 2]",1.0,2.0,0.17876386642456055,1.8171041011810303,0.6332912513608229,59.0,357.0
G,D,"[2, 2]",1.0,3.0,0.16701197624206543,1.818070888519287,0.6515228588802886,59.0,358.0
B,L,"[2, 1]",1.0,4.0,0.1286020278930664,1.4042079448699951,0.27284935401194677,59.0,359.0
G,D,"[3, 1]",1.0,5.0,0.37549686431884766,1.9639561176300049,0.5865083975912528,59.0,360.0
,,"(3, 3)",,,,,,59.0,
R,U,"[2, 3]",-2.0,0.0,1.2656149864196777,4.219012022018433,0.3058359667392798,,361.0
R,U,"[1, 3]",1.0,1.0,0.23034381866455078,1.7294418811798096,0.501713331733457,60.0,362.0
B,L,"[1, 2]",1.0,2.0,0.15508818626403809,1.596346139907837,0.4315335900761027,60.0,363.0
G,D,"[2, 2]",1.0,3.0,0.1993398666381836,1.4887051582336426,0.2704993567533708,60.0,364.0
B,L,"[2, 1]",1.0,4.0,0.29601311683654785,1.9762940406799316,0.6797146219527073,60.0,365.0
G,D,"[3, 1]",-1.0,4.0,0.08268904685974121,5.983993053436279,0.7471764923367246,60.0,366.0
,,"(3, 3)",,,,,,60.0,
R,U,"[2, 3]",-2.0,0.0,1.4636211395263672,5.290273189544678,0.3876740529705769,,367.0
R,U,"[1, 3]",1.0,1.0,0.20920395851135254,1.6551659107208252,0.44282665298943064,61.0,368.0
B,L,"[1, 2]",1.0,2.0,0.3432788848876953,1.9888200759887695,0.648283902400203,61.0,369.0
G,D,"[2, 2]",1.0,3.0,0.34043312072753906,1.817047119140625,0.465699010805554,61.0,370.0
B,L,"[2, 1]",1.0,4.0,0.2190408706665039,1.8890340328216553,0.6541639295817241,61.0,371.0
G,D,"[3, 1]",1.0,5.0,0.23554611206054688,1.926954984664917,0.6812039783886206,61.0,372.0
,,"(3, 3)",,,,,,61.0,
R,U,"[2, 3]",-2.0,0.0,1.2799339294433594,5.0347490310668945,0.6160685247463376,,373.0
R,U,"[1, 3]",1.0,1.0,0.2193901538848877,1.8682920932769775,0.6343269582823184,62.0,374.0
B,L,"[1, 2]",1.0,2.0,0.2776808738708496,1.6832709312438965,0.40132279244037067,62.0,375.0
G,D,"[2, 2]",1.0,3.0,0.32419300079345703,1.8926668167114258,0.5604306122616417,62.0,376.0
B,L,"[2, 1]",1.0,4.0,0.19896507263183594,1.5322608947753906,0.32622661422933036,62.0,377.0
G,D,"[3, 1]",1.0,5.0,0.24063897132873535,1.5017309188842773,0.26154270820927433,62.0,378.0
,,"(3, 3)",,,,,,62.0,
R,U,"[2, 3]",-1.0,-1.0,0.9055929183959961,3.797389030456543,0.4586967684620232,,379.0
R,U,"[1, 3]",1.0,0.0,0.1950061321258545,1.899766206741333,0.7082387620171394,63.0,380.0
B,L,"[1, 2]",1.0,1.0,0.197951078414917,1.8345918655395508,0.6262739169307676,63.0,381.0
G,D,"[2, 2]",1.0,2.0,0.2017979621887207,1.6185557842254639,0.41172890527073935,63.0,382.0
B,L,"[2, 1]",1.0,3.0,0.269989013671875,1.5356590747833252,0.264242724193265,63.0,383.0
G,D,"[3, 1]",1.0,4.0,0.24124908447265625,1.7488808631896973,0.5129279736939389,63.0,384.0
,,"(3, 3)",,,,,,63.0,
R,U,"[2, 3]",-2.0,0.0,1.6122040748596191,4.789655923843384,0.2863409179933295,,385.0
R,U,"[1, 3]",1.0,1.0,0.2039940357208252,1.832144021987915,0.6182353463431176,64.0,386.0
B,L,"[1, 2]",1.0,2.0,0.16965198516845703,1.5633959770202637,0.3818046472109793,64.0,387.0
G,D,"[2, 2]",1.0,3.0,0.23401784896850586,1.5306329727172852,0.279373929300841,64.0,388.0
B,L,"[2, 1]",1.0,4.0,0.2733170986175537,1.8332619667053223,0.5624453795032531,64.0,389.0
G,D,"[3, 1]",1.0,5.0,0.2061929702758789,1.687502145767212,0.48296110901064626,64.0,390.0
,,"(3, 3)",,,,,,64.0,
R,U,"[2, 3]",-2.0,0.0,1.4860241413116455,5.205948114395142,0.6222714683952207,,391.0
R,U,"[1, 3]",1.0,1.0,0.3217780590057373,1.7769899368286133,0.4495434806699126,65.0,392.0
B,L,"[1, 2]",1.0,2.0,0.16525912284851074,1.476654052734375,0.2930822412768488,65.0,393.0
G,D,"[2, 2]",1.0,3.0,0.21147394180297852,1.6024119853973389,0.39537107182892767,65.0,394.0
B,L,"[2, 1]",1.0,4.0,0.14159512519836426,1.7616381645202637,0.623562232738167,65.0,395.0
G,D,"[3, 1]",1.0,5.0,0.3501589298248291,1.6915209293365479,0.3321160985483198,65.0,396.0
,,"(3, 3)",,,,,,65.0,
R,U,"[2, 3]",-1.0,-1.0,0.7818319797515869,4.061180830001831,0.3765788338343943,,397.0
R,U,"[1, 3]",1.0,0.0,0.17409610748291016,1.5682058334350586,0.39478798914878055,66.0,398.0
B,L,"[1, 2]",1.0,1.0,0.17064595222473145,1.609679937362671,0.43774453321532075,66.0,399.0
G,D,"[2, 2]",1.0,2.0,0.14910507202148438,1.5088741779327393,0.3633409100986159,66.0,400.0
B,L,"[2, 1]",1.0,3.0,0.19725799560546875,1.7701549530029297,0.5668387579269163,66.0,401.0
G,D,"[3, 1]",1.0,4.0,0.28870701789855957,1.7337470054626465,0.43407980778106525,66.0,402.0
,,"(3, 3)",,,,,,66.0,
R,U,"[2, 3]",-1.0,-1.0,0.8296620845794678,4.261346817016602,0.628498237742652,,403.0
R,U,"[1, 3]",-1.0,-1.0,0.0210111141204834,5.838642835617065,0.7004366017520129,67.0,404.0
R,U,"[0, 3]",0.0,-1.0,0.28374505043029785,1.8559119701385498,0.5566125848202887,67.0,405.0
B,L,"[0, 2]",0.0,-1.0,0.2018420696258545,1.4873771667480469,0.2942721617186759,67.0,406.0
G,D,"[1, 2]",-1.0,-2.0,0.2504868507385254,1.968930959701538,0.7127953351028822,67.0,407.0
G,D,"[2, 2]",-1.0,-3.0,0.2332911491394043,1.5711560249328613,0.31763296177361133,67.0,408.0
,,"(3, 3)",,,,,,67.0,
R,U,"[2, 3]",-2.0,0.0,1.531374216079712,4.639256954193115,0.3236907323657946,,409.0
R,U,"[1, 3]",-1.0,-1.0,0.23650288581848145,1.8551411628723145,0.6118578104372174,68.0,410.0
R,U,"[0, 3]",0.0,-1.0,0.24262404441833496,1.896254062652588,0.6580926519699328,68.0,411.0
G,D,"[1, 3]",-1.0,-2.0,0.22155499458312988,1.8215909004211426,0.5964613515607505,68.0,412.0
B,L,"[1, 2]",-1.0,-3.0,0.2844088077545166,1.8167269229888916,0.5134857642387187,68.0,413.0
B,L,"[1, 1]",-1.0,-4.0,0.5505599975585938,1.8984260559082031,0.3284427785287446,68.0,414.0
,,"(3, 3)",,,,,,68.0,
R,U,"[2, 3]",-1.0,-1.0,0.8162550926208496,4.605396032333374,0.4339724663630999,,415.0
R,U,"[1, 3]",-1.0,-2.0,0.21383404731750488,1.8239421844482422,0.6078092468477263,69.0,416.0
B,L,"[1, 2]",-1.0,-3.0,0.22940993309020996,1.6304950714111328,0.4053690492943902,69.0,417.0
G,D,"[2, 2]",-1.0,-4.0,0.5632500648498535,2.0787038803100586,0.5173416571539501,69.0,418.0
Y,R,"[2, 3]",-1.0,-5.0,0.38973212242126465,1.6851470470428467,0.28574749615230777,69.0,419.0
Y,R,"[2, 4]",-1.0,-6.0,0.5954480171203613,1.878432035446167,0.2808660057295316,69.0,420.0
,,"(3, 3)",,,,,,69.0,
G,D,"[4, 3]",1.0,1.0,0.4705500602722168,8.95239782333374,0.33358782613479016,,421.0
B,L,"[4, 2]",1.0,2.0,0.33954501152038574,1.6975510120391846,0.3477250046854258,70.0,422.0
G,D,"[5, 2]",1.0,3.0,0.27638697624206543,1.6524031162261963,0.3667243227627928,70.0,423.0
B,L,"[5, 1]",-1.0,2.0,0.22675776481628418,1.4990198612213135,0.26584773978191584,70.0,424.0
G,D,"[6, 1]",0.0,2.0,0.22867393493652344,1.9614558219909668,0.7269128525042882,70.0,425.0
G,D,"[6, 1]",0.0,2.0,0.7336001396179199,2.4045639038085938,0.68156328794139,70.0,426.0
,,"(3, 3)",,,,,,70.0,
G,D,"[4, 3]",1.0,1.0,0.7694289684295654,4.67946195602417,0.4779908613626906,,427.0
B,L,"[4, 2]",1.0,2.0,0.250885009765625,2.004364013671875,0.7486734461152613,71.0,428.0
G,D,"[5, 2]",1.0,3.0,0.19451403617858887,1.7860231399536133,0.5850023800193398,71.0,429.0
G,D,"[6, 2]",0.0,3.0,0.38380908966064453,2.112420082092285,0.7138423583523832,71.0,430.0
B,L,"[6, 1]",0.0,3.0,0.3291440010070801,1.9520390033721924,0.6161401187860815,71.0,431.0
R,U,"[5, 1]",-1.0,2.0,0.7264649868011475,2.1556859016418457,0.42189718181177305,71.0,432.0
,,"(3, 3)",,,,,,71.0,
G,D,"[4, 3]",1.0,1.0,0.6753180027008057,4.21627402305603,0.3718622384873549,,433.0
B,L,"[4, 2]",1.0,2.0,0.3127470016479492,2.0111191272735596,0.6994702363318617,72.0,434.0
G,D,"[5, 2]",1.0,3.0,0.2062358856201172,1.9386138916015625,0.7213385705686035,72.0,435.0
B,L,"[5, 1]",-1.0,2.0,0.2299501895904541,1.826434850692749,0.5813638270187962,72.0,436.0
Y,R,"[5, 2]",1.0,3.0,0.24992704391479492,1.8457489013671875,0.5771438267586764,72.0,437.0
G,D,"[6, 2]",0.0,3.0,0.43227219581604004,1.7052149772644043,0.2660603659556763,72.0,438.0
,,"(3, 3)",,,,,,72.0,
G,D,"[4, 3]",1.0,1.0,0.7037041187286377,4.051425933837891,0.6172493307522555,,439.0
B,L,"[4, 2]",1.0,2.0,0.28278303146362305,1.8191089630126953,0.5028207259178408,73.0,440.0
G,D,"[5, 2]",1.0,3.0,0.18923497200012207,1.906045913696289,0.7086184133093576,73.0,441.0
Y,R,"[5, 3]",1.0,4.0,0.27129292488098145,1.5393800735473633,0.26517034181247623,73.0,442.0
G,D,"[6, 3]",0.0,4.0,0.38747215270996094,1.8593440055847168,0.4580353554806903,73.0,443.0
R,U,"[5, 3]",1.0,5.0,0.537571907043457,2.2231969833374023,0.6807966914611085,73.0,444.0
,,"(3, 3)",,,,,,73.0,
G,D,"[4, 3]",1.0,1.0,0.5202310085296631,4.162255048751831,0.6763557702074879,,445.0
B,L,"[4, 2]",1.0,2.0,0.23014116287231445,1.7257518768310547,0.5023564891076869,74.0,446.0
G,D,"[5, 2]",1.0,3.0,0.25289082527160645,1.5856900215148926,0.3383133909462842,74.0,447.0
Y,R,"[5, 3]",1.0,4.0,0.20527291297912598,1.4780499935150146,0.2665281339739846,74.0,448.0
R,U,"[4, 3]",1.0,5.0,0.24437785148620605,1.5995519161224365,0.34918343580009537,74.0,449.0
G,D,"[5, 3]",1.0,6.0,0.7213289737701416,1.984593152999878,0.250667660810226,74.0,450.0
,,"(3, 3)",,,,,,74.0,
G,D,"[4, 3]",1.0,1.0,0.5545790195465088,3.5591750144958496,0.2597330624727911,,451.0
B,L,"[4, 2]",1.0,2.0,0.2606828212738037,1.6920969486236572,0.43511165149003206,75.0,452.0
G,D,"[5, 2]",1.0,3.0,0.21554183959960938,1.8466289043426514,0.6316096303051982,75.0,453.0
Y,R,"[5, 3]",1.0,4.0,0.22758197784423828,1.7848429679870605,0.5498205671929506,75.0,454.0
R,U,"[4, 3]",1.0,5.0,0.24360394477844238,1.817033052444458,0.5667971461879874,75.0,455.0
G,D,"[5, 3]",1.0,6.0,0.20272302627563477,1.7974159717559814,0.5809105090410759,75.0,456.0
,,"(3, 3)",,,,,,75.0,
G,D,"[4, 3]",1.0,1.0,0.46219801902770996,3.158228874206543,0.40613657554890853,,457.0
B,L,"[4, 2]",1.0,2.0,0.20472002029418945,1.9347360134124756,0.7239403737245165,76.0,458.0
G,D,"[5, 2]",-1.0,2.0,0.06054401397705078,5.864102840423584,0.6548634427103865,76.0,459.0
G,D,"[6, 2]",0.0,2.0,0.2830698490142822,1.8867878913879395,0.5917302663533623,76.0,460.0
Y,R,"[6, 3]",0.0,2.0,0.16211414337158203,1.6490588188171387,0.4908025541471398,76.0,461.0
R,U,"[5, 3]",1.0,3.0,0.22490501403808594,1.5075130462646484,0.26530965087485214,76.0,462.0
,,"(3, 3)",,,,,,76.0,
G,D,"[4, 3]",1.0,1.0,0.837101936340332,3.7362420558929443,0.3850399104241475,,463.0
B,L,"[4, 2]",1.0,2.0,0.3419959545135498,1.9181931018829346,0.5695575307581597,77.0,464.0
G,D,"[5, 2]",1.0,3.0,0.3294339179992676,2.0146028995513916,0.6838332975110306,77.0,465.0
Y,R,"[5, 3]",1.0,4.0,0.2707850933074951,1.7651698589324951,0.48295957936782846,77.0,466.0
R,U,"[4, 3]",1.0,5.0,0.26227498054504395,1.8653101921081543,0.5981236252657559,77.0,467.0
G,D,"[5, 3]",1.0,6.0,0.1985619068145752,1.8710780143737793,0.6526436165841522,77.0,468.0
,,"(3, 3)",,,,,,77.0,
G,D,"[4, 3]",1.0,1.0,0.6232080459594727,3.4696569442749023,0.7054351334568024,,469.0
B,L,"[4, 2]",1.0,2.0,0.2852959632873535,1.6531338691711426,0.35902961022021534,78.0,470.0
G,D,"[5, 2]",1.0,3.0,0.5224950313568115,2.1356711387634277,0.6111521710940861,78.0,471.0
Y,R,"[5, 3]",1.0,4.0,0.2751898765563965,1.567641019821167,0.29590331575243184,78.0,472.0
R,U,"[4, 3]",1.0,5.0,0.49359893798828125,1.9002151489257812,0.41257478182171564,78.0,473.0
G,D,"[5, 3]",1.0,6.0,0.42461490631103516,1.7867789268493652,0.3662125105978999,78.0,474.0
,,"(3, 3)",,,,,,78.0,
G,D,"[4, 3]",-2.0,0.0,1.100175142288208,4.015937805175781,0.7316644687602762,,475.0
G,D,"[5, 3]",1.0,1.0,0.38911914825439453,1.7787258625030518,0.37733371816111955,79.0,476.0
B,L,"[5, 2]",1.0,2.0,0.40254998207092285,2.0862720012664795,0.6799815571830845,79.0,477.0
G,D,"[6, 2]",0.0,2.0,0.2656691074371338,1.5440289974212646,0.25783402899190344,79.0,478.0
Y,R,"[6, 3]",0.0,2.0,0.3083019256591797,1.9621250629425049,0.6528959791384098,79.0,479.0
R,U,"[5, 3]",1.0,3.0,0.23964715003967285,1.8986740112304688,0.6517429848889661,79.0,480.0
,,"(3, 3)",,,,,,79.0,
G,D,"[4, 3]",1.0,1.0,0.6906368732452393,5.575910806655884,0.7111224762702728,,481.0
B,L,"[4, 2]",1.0,2.0,0.22126388549804688,1.8810789585113525,0.6587555916668518,80.0,482.0
G,D,"[5, 2]",1.0,3.0,0.18104910850524902,1.7364120483398438,0.5618858472345957,80.0,483.0
Y,R,"[5, 3]",1.0,4.0,0.2627410888671875,1.594508171081543,0.33989071851423525,80.0,484.0
R,U,"[4, 3]",1.0,5.0,0.2798018455505371,1.9179868698120117,0.6411071643882285,80.0,485.0
G,D,"[5, 3]",1.0,6.0,0.672166109085083,2.2576470375061035,0.5821865707523834,80.0,486.0
,,"(3, 3)",,,,,,80.0,
G,D,"[4, 3]",-2.0,0.0,1.0808439254760742,3.7044060230255127,0.38682094875877615,,487.0
G,D,"[5, 3]",1.0,1.0,0.20984292030334473,1.5010509490966797,0.2880669444791212,81.0,488.0
B,L,"[5, 2]",1.0,2.0,0.23988604545593262,1.641157865524292,0.39573177640884244,81.0,489.0
G,D,"[6, 2]",0.0,2.0,0.23746991157531738,1.6917638778686523,0.4706801840833321,81.0,490.0
R,U,"[5, 2]",1.0,3.0,0.369736909866333,1.9824881553649902,0.6198794296525307,81.0,491.0
Y,R,"[5, 3]",1.0,4.0,0.2531778812408447,1.6704869270324707,0.4072547719868353,81.0,492.0
,,"(3, 3)",,,,,,81.0,
G,D,"[4, 3]",1.0,1.0,0.5821688175201416,3.6235039234161377,0.2975679331271483,,493.0
B,L,"[4, 2]",1.0,2.0,0.2134559154510498,1.6957728862762451,0.47644521284321306,82.0,494.0
G,D,"[5, 2]",1.0,3.0,0.22120380401611328,1.582962989807129,0.3596808175669499,82.0,495.0
Y,R,"[5, 3]",1.0,4.0,0.21503710746765137,1.7439379692077637,0.536659197808854,82.0,496.0
R,U,"[4, 3]",1.0,5.0,0.20404291152954102,1.5441100597381592,0.3310113181487567,82.0,497.0
G,D,"[5, 3]",1.0,6.0,0.21700096130371094,1.9740309715270996,0.738079097864387,82.0,498.0
,,"(3, 3)",,,,,,82.0,
G,D,"[4, 3]",1.0,1.0,0.49225401878356934,3.2674520015716553,0.2727718896276385,,499.0
B,L,"[4, 2]",1.0,2.0,0.3378310203552246,1.65293288230896,0.30887746877322797,83.0,500.0
G,D,"[5, 2]",1.0,3.0,0.18811798095703125,1.5870628356933594,0.3959848120286415,83.0,501.0
Y,R,"[5, 3]",1.0,4.0,0.21989989280700684,1.689330816268921,0.4518464327688534,83.0,502.0
R,U,"[4, 3]",1.0,5.0,0.2686638832092285,1.774190902709961,0.49268213773828434,83.0,503.0
G,D,"[5, 3]",1.0,6.0,0.3940401077270508,2.1401989459991455,0.7494085283651433,83.0,504.0
,,"(3, 3)",,,,,,83.0,
G,D,"[4, 3]",1.0,1.0,0.7830572128295898,3.626060962677002,0.45910246304631686,,505.0
B,L,"[4, 2]",1.0,2.0,0.18262100219726562,1.7178239822387695,0.5101944702944305,84.0,506.0
G,D,"[5, 2]",1.0,3.0,0.11699795722961426,1.8513751029968262,0.7280802935399424,84.0,507.0
Y,R,"[5, 3]",-1.0,3.0,0.015930891036987305,5.852478981018066,0.713991077844415,84.0,508.0
R,U,"[4, 3]",1.0,4.0,0.2767820358276367,1.9647619724273682,0.6788041345072476,84.0,509.0
Y,R,"[4, 4]",-1.0,3.0,0.22667694091796875,1.5212290287017822,0.3005128977340691,84.0,510.0
,,"(3, 3)",,,,,,84.0,
G,D,"[4, 3]",-2.0,0.0,1.0335819721221924,3.7600350379943848,0.34404781279587965,,511.0
G,D,"[5, 3]",1.0,1.0,0.4014120101928711,1.9595739841461182,0.5534537441140012,85.0,512.0
B,L,"[5, 2]",1.0,2.0,0.1968851089477539,1.8032000064849854,0.6063797747816688,85.0,513.0
Y,R,"[5, 3]",1.0,3.0,0.334000825881958,1.8610060214996338,0.5175178840039276,85.0,514.0
R,U,"[4, 3]",1.0,4.0,0.26622605323791504,1.5843470096588135,0.3022277326902613,85.0,515.0
G,D,"[5, 3]",1.0,5.0,0.2539329528808594,1.8046069145202637,0.5398551636096698,85.0,516.0
,,"(3, 3)",,,,,,85.0,
G,D,"[4, 3]",1.0,1.0,0.6974129676818848,3.844148874282837,0.4341331189191787,,517.0
B,L,"[4, 2]",1.0,2.0,0.2861299514770508,2.0006189346313477,0.7011132732609879,86.0,518.0
G,D,"[5, 2]",1.0,3.0,0.20239520072937012,1.474236011505127,0.2592475408150238,86.0,519.0
Y,R,"[5, 3]",1.0,4.0,0.29767298698425293,1.7978579998016357,0.5068993245689045,86.0,520.0
R,U,"[4, 3]",1.0,5.0,0.2797269821166992,1.7188479900360107,0.44268791032765625,86.0,521.0
G,D,"[5, 3]",1.0,6.0,0.21728801727294922,1.509187936782837,0.3020873048693406,86.0,522.0
,,"(3, 3)",,,,,,86.0,
G,D,"[4, 3]",1.0,1.0,0.765667200088501,3.8360068798065186,0.4710954737034152,,523.0
B,L,"[4, 2]",1.0,2.0,0.30037903785705566,1.8973619937896729,0.5851056317262984,87.0,524.0
G,D,"[5, 2]",1.0,3.0,0.2835500240325928,2.0281598567962646,0.7297140135577664,87.0,525.0
Y,R,"[5, 3]",1.0,4.0,0.3390309810638428,1.6138169765472412,0.2609737935769769,87.0,526.0
R,U,"[4, 3]",1.0,5.0,0.24451804161071777,1.5575950145721436,0.31848590130034826,87.0,527.0
G,D,"[5, 3]",1.0,6.0,0.48981308937072754,2.0165231227874756,0.5179991223607616,87.0,528.0
,,"(3, 3)",,,,,,87.0,
G,D,"[4, 3]",1.0,1.0,0.7637460231781006,3.5851259231567383,0.45322200508444727,,529.0
B,L,"[4, 2]",1.0,2.0,0.19986391067504883,1.6540908813476562,0.42418045592443887,88.0,530.0
G,D,"[5, 2]",1.0,3.0,0.24999117851257324,1.948868989944458,0.6894277400302258,88.0,531.0
Y,R,"[5, 3]",1.0,4.0,0.22881412506103516,1.8349149227142334,0.6078369487383054,88.0,532.0
R,U,"[4, 3]",1.0,5.0,0.20569086074829102,1.7744619846343994,0.5656743689416505,88.0,533.0
G,D,"[5, 3]",1.0,6.0,0.21541595458984375,1.590933084487915,0.35692655537483553,88.0,534.0
,,"(3, 3)",,,,,,88.0,
G,D,"[4, 3]",1.0,1.0,0.5605859756469727,3.2485949993133545,0.32213598818460654,,535.0
B,L,"[4, 2]",1.0,2.0,0.22721099853515625,1.8887848854064941,0.6605800725782188,89.0,536.0
G,D,"[5, 2]",1.0,3.0,0.19794797897338867,1.5574300289154053,0.3683744936102126,89.0,537.0
Y,R,"[5, 3]",1.0,4.0,0.22440290451049805,1.7377898693084717,0.5059738015142163,89.0,538.0
R,U,"[4, 3]",1.0,5.0,0.19395089149475098,1.8945090770721436,0.7004109406621445,89.0,539.0
G,D,"[5, 3]",1.0,6.0,0.13909482955932617,1.6630408763885498,0.5135275010477618,89.0,540.0
,,"(3, 3)",,,,,,89.0,
G,D,"[4, 3]",1.0,1.0,0.5732369422912598,3.1595380306243896,0.3899544556087521,,541.0
B,L,"[4, 2]",1.0,2.0,0.24267816543579102,1.6662309169769287,0.4227767740012646,90.0,542.0
G,D,"[5, 2]",1.0,3.0,0.19488787651062012,1.7601349353790283,0.5662765498312736,90.0,543.0
Y,R,"[5, 3]",1.0,4.0,0.1962418556213379,1.699540138244629,0.49912418508987544,90.0,544.0
R,U,"[4, 3]",1.0,5.0,0.2214968204498291,1.5948519706726074,0.36075674214694353,90.0,545.0
G,D,"[5, 3]",1.0,6.0,0.19315886497497559,1.9341998100280762,0.7446759516405786,90.0,546.0
,,"(3, 3)",,,,,,90.0,
G,D,"[4, 3]",1.0,1.0,0.60400390625,2.8962490558624268,0.30810881184489,,547.0
B,L,"[4, 2]",1.0,2.0,0.1967618465423584,1.5804200172424316,0.38850904968879824,91.0,548.0
G,D,"[5, 2]",1.0,3.0,0.2905750274658203,1.8828949928283691,0.588020714584897,91.0,549.0
Y,R,"[5, 3]",1.0,4.0,0.20263004302978516,1.5770349502563477,0.3654093349641524,91.0,550.0
R,U,"[4, 3]",1.0,5.0,0.23906803131103516,1.6597440242767334,0.4082783558901155,91.0,551.0
G,D,"[5, 3]",1.0,6.0,0.2173469066619873,1.6471610069274902,0.4219322686565695,91.0,552.0
,,"(3, 3)",,,,,,91.0,
G,D,"[4, 3]",1.0,1.0,0.5728659629821777,2.6283748149871826,0.5003676467131941,,553.0
B,L,"[4, 2]",1.0,2.0,0.18384003639221191,1.5701110363006592,0.37065061468547034,92.0,554.0
G,D,"[5, 2]",1.0,3.0,0.18149089813232422,1.7253789901733398,0.5458541878991179,92.0,555.0
Y,R,"[5, 3]",1.0,4.0,0.19001483917236328,1.5386631488800049,0.33485328916601537,92.0,556.0
R,U,"[4, 3]",1.0,5.0,0.1978459358215332,1.7438359260559082,0.5450455196046955,92.0,557.0
G,D,"[5, 3]",1.0,6.0,0.20763516426086426,1.698808193206787,0.4940380651861644,92.0,558.0
,,"(3, 3)",,,,,,92.0,
G,D,"[4, 3]",1.0,1.0,0.49216604232788086,2.4429750442504883,0.3370910982870606,,559.0
B,L,"[4, 2]",1.0,2.0,0.23157691955566406,1.6043920516967773,0.3748415978104572,93.0,560.0
G,D,"[5, 2]",1.0,3.0,0.2370150089263916,1.7804958820343018,0.5386110202588041,93.0,561.0
Y,R,"[5, 3]",1.0,4.0,0.24768996238708496,1.6617310047149658,0.4171258025910084,93.0,562.0
R,U,"[4, 3]",1.0,5.0,0.2317349910736084,1.9972970485687256,0.7307233237542679,93.0,563.0
G,D,"[5, 3]",1.0,6.0,0.20490193367004395,1.8342609405517578,0.6151688460443112,93.0,564.0
,,"(3, 3)",,,,,,93.0,
G,D,"[4, 3]",1.0,1.0,0.599808931350708,3.0550949573516846,0.403829366989682,,565.0
B,L,"[4, 2]",1.0,2.0,0.2067711353302002,1.5469250679016113,0.33418736396731835,94.0,566.0
G,D,"[5, 2]",1.0,3.0,0.19974207878112793,1.6466939449310303,0.43084007135936386,94.0,567.0
Y,R,"[5, 3]",1.0,4.0,0.17270898818969727,1.6368200778961182,0.4509717388277218,94.0,568.0
R,U,"[4, 3]",1.0,5.0,0.1793689727783203,1.6342699527740479,0.45203305518630327,94.0,569.0
G,D,"[5, 3]",1.0,6.0,0.16835999488830566,1.5003879070281982,0.31914305472542454,94.0,570.0
,,"(3, 3)",,,,,,94.0,
G,D,"[4, 3]",1.0,1.0,0.5475728511810303,2.9989161491394043,0.5179973110360698,,571.0
B,L,"[4, 2]",1.0,2.0,0.21172690391540527,1.6765639781951904,0.46148196587195445,95.0,572.0
G,D,"[5, 2]",-1.0,2.0,0.04085707664489746,5.544400215148926,0.389389373744268,95.0,573.0
Y,R,"[5, 3]",1.0,3.0,0.2412731647491455,1.6967239379882812,0.45273382637480775,95.0,574.0
R,U,"[4, 3]",1.0,4.0,0.220167875289917,1.9250378608703613,0.6942177821676419,95.0,575.0
G,D,"[5, 3]",1.0,5.0,0.18671798706054688,1.7068779468536377,0.5344525801891795,95.0,576.0
,,"(3, 3)",,,,,,95.0,
G,D,"[4, 3]",1.0,1.0,0.7790899276733398,4.675950050354004,0.7102457950963734,,577.0
B,L,"[4, 2]",1.0,2.0,0.2415177822113037,1.6825060844421387,0.44300047421711264,96.0,578.0
G,D,"[5, 2]",1.0,3.0,0.21437716484069824,1.5819830894470215,0.37527583935693665,96.0,579.0
Y,R,"[5, 3]",1.0,4.0,0.307758092880249,2.0145370960235596,0.7061959863650248,96.0,580.0
R,U,"[4, 3]",1.0,5.0,0.2640829086303711,1.8473680019378662,0.586906507916725,96.0,581.0
G,D,"[5, 3]",1.0,6.0,0.24224281311035156,1.7646918296813965,0.518339360020198,96.0,582.0
,,"(3, 3)",,,,,,96.0,
G,D,"[4, 3]",1.0,1.0,0.5632798671722412,3.300539970397949,0.5688546339963934,,583.0
B,L,"[4, 2]",1.0,2.0,0.21265912055969238,1.7022180557250977,0.4880012668436652,97.0,584.0
G,D,"[5, 2]",1.0,3.0,0.2077188491821289,1.5675289630889893,0.3555082028384371,97.0,585.0
Y,R,"[5, 3]",1.0,4.0,0.22425007820129395,1.947957992553711,0.7198350907134083,97.0,586.0
R,U,"[4, 3]",1.0,5.0,0.22809290885925293,1.7989552021026611,0.5692626442984677,97.0,587.0
G,D,"[5, 3]",1.0,6.0,0.23030710220336914,1.7761900424957275,0.5455765156239827,97.0,588.0
,,"(3, 3)",,,,,,97.0,
G,D,"[4, 3]",1.0,1.0,0.6656999588012695,2.989840030670166,0.36889285849568487,,589.0
B,L,"[4, 2]",1.0,2.0,0.2281489372253418,1.8336308002471924,0.6024695967797054,98.0,590.0
G,D,"[5, 2]",1.0,3.0,0.17057204246520996,1.7121469974517822,0.5309270148454697,98.0,591.0
Y,R,"[5, 3]",1.0,4.0,0.20195412635803223,1.7895820140838623,0.5705549580681515,98.0,592.0
R,U,"[4, 3]",1.0,5.0,0.22644305229187012,1.5688891410827637,0.3396250368257126,98.0,593.0
G,D,"[5, 3]",1.0,6.0,0.197983980178833,1.5894291400909424,0.3957330040004546,98.0,594.0
,,"(3, 3)",,,,,,98.0,
G,D,"[4, 3]",1.0,1.0,0.5886261463165283,2.947134017944336,0.5095655266314285,,595.0
B,L,"[4, 2]",1.0,2.0,0.23892807960510254,1.908823013305664,0.6683158071358368,99.0,596.0
G,D,"[5, 2]",1.0,3.0,0.20116019248962402,1.9362218379974365,0.7211768984653397,99.0,597.0
Y,R,"[5, 3]",1.0,4.0,0.20989608764648438,1.575821876525879,0.36414207298356044,99.0,598.0
R,U,"[4, 3]",1.0,5.0,0.29761290550231934,1.5894641876220703,0.28689666046778933,99.0,599.0
G,D,"[5, 3]",1.0,6.0,0.18245387077331543,1.551727056503296,0.3552171043253881,99.0,600.0
,,"(3, 3)",,,,,,99.0,
G,D,"[4, 3]",1.0,1.0,0.5324060916900635,3.1619250774383545,0.6834000914235391,,601.0
B,L,"[4, 2]",1.0,2.0,0.17888092994689941,1.6395330429077148,0.4564828284958149,100.0,602.0
G,D,"[5, 2]",1.0,3.0,0.17641401290893555,1.806185007095337,0.62930468043192,100.0,603.0
Y,R,"[5, 3]",1.0,4.0,0.20800399780273438,1.728797197341919,0.5082009483534593,100.0,604.0
R,U,"[4, 3]",1.0,5.0,0.19047093391418457,1.658052921295166,0.4662152516604479,100.0,605.0
G,D,"[5, 3]",1.0,6.0,0.1750030517578125,1.8572487831115723,0.6734325763838915,100.0,606.0
,,"(3, 3)",,,,,,100.0,
G,D,"[4, 3]",1.0,1.0,0.9166431427001953,3.4678430557250977,0.40843018903514566,,607.0
B,L,"[4, 2]",1.0,2.0,0.16038990020751953,1.6919760704040527,0.5335516943112535,101.0,608.0
G,D,"[5, 2]",1.0,3.0,0.16721892356872559,1.6770079135894775,0.4939811723059814,101.0,609.0
Y,R,"[5, 3]",1.0,4.0,0.1616971492767334,1.4879238605499268,0.33217995364584374,101.0,610.0
R,U,"[4, 3]",1.0,5.0,0.32565903663635254,1.9580349922180176,0.623108809524545,101.0,611.0
G,D,"[5, 3]",1.0,6.0,0.1788930892944336,1.4880740642547607,0.3116186841000684,101.0,612.0
,,"(3, 3)",,,,,,101.0,
G,D,"[4, 3]",1.0,1.0,0.6740269660949707,2.950345039367676,0.5617617287723937,,613.0
B,L,"[4, 2]",1.0,2.0,0.21850204467773438,1.7814879417419434,0.5599460343941931,102.0,614.0
Y,R,"[4, 3]",1.0,3.0,0.16544389724731445,1.5727059841156006,0.4161225230251193,102.0,615.0
R,U,"[3, 3]",-2.0,1.0,0.21209406852722168,1.5125689506530762,0.2786636084966243,102.0,616.0
G,D,"[4, 3]",1.0,2.0,0.4691579341888428,1.8651771545410156,0.3939000012095302,102.0,617.0
Y,R,"[4, 4]",-1.0,1.0,0.25940990447998047,1.601027011871338,0.3450883165003577,102.0,618.0
,,"(3, 3)",,,,,,102.0,
G,D,"[4, 3]",1.0,1.0,0.8512580394744873,4.832500219345093,0.5274161515670764,,619.0
B,L,"[4, 2]",1.0,2.0,0.25952696800231934,1.6583468914031982,0.40270868144221234,103.0,620.0
G,D,"[5, 2]",1.0,3.0,0.8956880569458008,2.3512589931488037,0.4537360746105199,103.0,621.0
Y,R,"[5, 3]",1.0,4.0,0.3478560447692871,2.0082969665527344,0.6620632316406492,103.0,622.0
R,U,"[4, 3]",1.0,5.0,0.24585509300231934,1.632037878036499,0.3944367630094704,103.0,623.0
G,D,"[5, 3]",1.0,6.0,0.23659992218017578,1.5044620037078857,0.2657672744586154,103.0,624.0
,,"(3, 3)",,,,,,103.0,
G,D,"[4, 3]",1.0,1.0,0.7956600189208984,3.684877872467041,0.5003410388759832,,625.0
B,L,"[4, 2]",1.0,2.0,0.280181884765625,1.9201991558074951,0.6370894691423081,104.0,626.0
G,D,"[5, 2]",1.0,3.0,0.20241093635559082,1.589000940322876,0.37640459340449905,104.0,627.0
Y,R,"[5, 3]",1.0,4.0,0.215040922164917,1.5186519622802734,0.31178306480314016,104.0,628.0
R,U,"[4, 3]",1.0,5.0,0.2572610378265381,1.6515650749206543,0.396633920093173,104.0,629.0
G,D,"[5, 3]",1.0,6.0,0.1496419906616211,1.5350499153137207,0.3650735741758773,104.0,630.0
,,"(3, 3)",,,,,,104.0,
G,D,"[4, 3]",1.0,1.0,0.5384140014648438,2.321445941925049,0.25334671280340465,,631.0
B,L,"[4, 2]",1.0,2.0,0.1917879581451416,1.5452649593353271,0.34847714072120506,105.0,632.0
G,D,"[5, 2]",1.0,3.0,0.14009904861450195,1.429589033126831,0.2782714969215123,105.0,633.0
Y,R,"[5, 3]",1.0,4.0,0.17634987831115723,1.7316780090332031,0.5596025488611954,105.0,634.0
R,U,"[4, 3]",1.0,5.0,0.12920117378234863,1.474195957183838,0.35073765725183864,105.0,635.0
G,D,"[5, 3]",1.0,6.0,0.18765616416931152,1.8220558166503906,0.622375103348802,105.0,636.0
,,"(3, 3)",,,,,,105.0,
G,D,"[4, 3]",1.0,1.0,0.7504401206970215,2.632927894592285,0.2889859745456545,,637.0
B,L,"[4, 2]",1.0,2.0,0.23271894454956055,1.760047197341919,0.49884247470323767,106.0,638.0
G,D,"[5, 2]",1.0,3.0,0.21025490760803223,1.5875329971313477,0.3698828270002886,106.0,639.0
Y,R,"[5, 3]",1.0,4.0,0.2138519287109375,1.945068120956421,0.731526742643271,106.0,640.0
R,U,"[4, 3]",1.0,5.0,0.23987507820129395,1.836766004562378,0.6016412362433186,106.0,641.0
G,D,"[5, 3]",1.0,6.0,0.19781494140625,1.6815650463104248,0.48322974911483363,106.0,642.0
,,"(3, 3)",,,,,,106.0,
G,D,"[4, 3]",-2.0,0.0,1.0891339778900146,3.6060709953308105,0.5225283191798487,,643.0
G,D,"[5, 3]",1.0,1.0,0.20266199111938477,1.8505909442901611,0.6398263664434132,107.0,644.0
B,L,"[5, 2]",1.0,2.0,0.16254091262817383,1.5475218296051025,0.38774516320027647,107.0,645.0
G,D,"[6, 2]",0.0,2.0,0.20351791381835938,1.544273853302002,0.33206125185434776,107.0,646.0
Y,R,"[6, 3]",0.0,2.0,0.18600201606750488,1.6180830001831055,0.43366910093025485,107.0,647.0
G,D,"[6, 3]",0.0,2.0,0.2260730266571045,1.8460869789123535,0.6129393681832098,107.0,648.0
,,"(3, 3)",,,,,,107.0,
G,D,"[4, 3]",1.0,1.0,0.9908840656280518,4.2755889892578125,0.5717962596524466,,649.0
B,L,"[4, 2]",1.0,2.0,0.23460698127746582,1.5831780433654785,0.33853023584019437,108.0,650.0
G,D,"[5, 2]",1.0,3.0,0.25544095039367676,1.577639102935791,0.31632347021364327,108.0,651.0
Y,R,"[5, 3]",1.0,4.0,0.1660928726196289,1.916327953338623,0.7322330649614768,108.0,652.0
R,U,"[4, 3]",1.0,5.0,0.236983060836792,1.8555099964141846,0.620960083755827,108.0,653.0
G,D,"[5, 3]",1.0,6.0,0.18785309791564941,1.5635619163513184,0.36810364899385045,108.0,654.0
,,"(3, 3)",,,,,,108.0,
G,D,"[4, 3]",1.0,1.0,0.6663069725036621,3.1191561222076416,0.48723804072261495,,655.0
B,L,"[4, 2]",1.0,2.0,0.16830897331237793,1.5691859722137451,0.4067750149965482,109.0,656.0
G,D,"[5, 2]",1.0,3.0,0.21711397171020508,1.9515838623046875,0.7245666634754028,109.0,657.0
Y,R,"[5, 3]",1.0,4.0,0.19599294662475586,1.7867169380187988,0.5946728552150293,109.0,658.0
R,U,"[4, 3]",1.0,5.0,0.21056389808654785,1.706629991531372,0.5014529033790014,109.0,659.0
G,D,"[5, 3]",1.0,6.0,0.1909799575805664,1.7975060939788818,0.5988804695013016,109.0,660.0
,,"(3, 3)",,,,,,109.0,
G,D,"[4, 3]",1.0,1.0,0.5707271099090576,2.5904130935668945,0.4063818364733834,,661.0
B,L,"[4, 2]",1.0,2.0,0.20369386672973633,1.740234136581421,0.5462734142936971,110.0,662.0
G,D,"[5, 2]",1.0,3.0,0.16280317306518555,1.586251974105835,0.4163670502803394,110.0,663.0
Y,R,"[5, 3]",1.0,4.0,0.15775108337402344,1.5370779037475586,0.3701125220573914,110.0,664.0
R,U,"[4, 3]",1.0,5.0,0.21542787551879883,1.7810101509094238,0.5676100772604766,110.0,665.0
G,D,"[5, 3]",-1.0,5.0,0.04835200309753418,5.747938871383667,0.5657268397841057,110.0,666.0
,,"(3, 3)",,,,,,110.0,
G,D,"[4, 3]",1.0,1.0,0.6114380359649658,3.824337959289551,0.35687257304579956,,667.0
B,L,"[4, 2]",1.0,2.0,0.23979496955871582,1.6930570602416992,0.4499593235866468,111.0,668.0
G,D,"[5, 2]",1.0,3.0,0.2269439697265625,1.563504934310913,0.3301296145498265,111.0,669.0
Y,R,"[5, 3]",1.0,4.0,0.23217988014221191,1.7796850204467773,0.52638948172613,111.0,670.0
R,U,"[4, 3]",1.0,5.0,0.2346019744873047,1.817620038986206,0.5770828788937755,111.0,671.0
G,D,"[5, 3]",1.0,6.0,0.2539050579071045,1.9788529872894287,0.7224945165206598,111.0,672.0
,,"(3, 3)",,,,,,111.0,
G,D,"[4, 3]",1.0,1.0,0.5896961688995361,3.7865359783172607,0.5592816038083017,,673.0
B,L,"[4, 2]",1.0,2.0,0.22852301597595215,1.5409960746765137,0.317070675012287,112.0,674.0
G,D,"[5, 2]",1.0,3.0,0.26630401611328125,1.898068904876709,0.6317938173984454,112.0,675.0
Y,R,"[5, 3]",1.0,4.0,0.2986600399017334,2.0366759300231934,0.7350900497058297,112.0,676.0
R,U,"[4, 3]",1.0,5.0,0.22233009338378906,1.5534641742706299,0.3220088062488384,112.0,677.0
G,D,"[5, 3]",1.0,6.0,0.1793379783630371,1.592292070388794,0.41457275918489483,112.0,678.0
,,"(3, 3)",,,,,,112.0,
G,D,"[4, 3]",1.0,1.0,0.4396090507507324,3.1969621181488037,0.7443719493024497,,679.0
B,L,"[4, 2]",1.0,2.0,0.184035062789917,1.8974769115447998,0.7086794345481112,113.0,680.0
G,D,"[5, 2]",1.0,3.0,0.16333794593811035,1.510516881942749,0.35287456608426265,113.0,681.0
Y,R,"[5, 3]",1.0,4.0,0.1874551773071289,1.4682669639587402,0.27122928186260553,113.0,682.0
R,U,"[4, 3]",1.0,5.0,0.2228260040283203,1.8247849941253662,0.5957767592780306,113.0,683.0
G,D,"[5, 3]",1.0,6.0,0.13834500312805176,1.661217212677002,0.5237180025316029,113.0,684.0
,,"(3, 3)",,,,,,113.0,
G,D,"[4, 3]",1.0,1.0,0.5415909290313721,2.7524540424346924,0.6096350836551374,,685.0
B,L,"[4, 2]",1.0,2.0,0.1567831039428711,1.4073231220245361,0.25046432522034,114.0,686.0
G,D,"[5, 2]",1.0,3.0,0.2331252098083496,1.9565038681030273,0.7065741818855404,114.0,687.0
Y,R,"[5, 3]",1.0,4.0,0.1893000602722168,1.647346019744873,0.45414548714602065,114.0,688.0
R,U,"[4, 3]",1.0,5.0,0.1952650547027588,1.6774520874023438,0.48176489794250055,114.0,689.0
G,D,"[5, 3]",1.0,6.0,0.13129186630249023,1.4503769874572754,0.3155637877759321,114.0,690.0
,,"(3, 3)",,,,,,114.0,
G,D,"[4, 3]",1.0,1.0,0.5011129379272461,2.80732798576355,0.7224439343297956,,691.0
B,L,"[4, 2]",1.0,2.0,0.15933012962341309,1.721318006515503,0.560812008482956,115.0,692.0
G,D,"[5, 2]",1.0,3.0,0.17363286018371582,1.6581881046295166,0.4857943691084159,115.0,693.0
Y,R,"[5, 3]",1.0,4.0,0.17810702323913574,1.8210539817810059,0.6400879257704338,115.0,694.0
R,U,"[4, 3]",1.0,5.0,0.19748401641845703,1.7899949550628662,0.5967123165667911,115.0,695.0
G,D,"[5, 3]",1.0,6.0,0.134321928024292,1.7575159072875977,0.604262122762316,115.0,696.0
,,"(3, 3)",,,,,,115.0,
G,D,"[4, 3]",1.0,1.0,0.40497803688049316,2.367931842803955,0.5723636042416254,,697.0
B,L,"[4, 2]",-1.0,1.0,0.028800010681152344,5.863440990447998,0.7024691858382022,116.0,698.0
G,D,"[5, 2]",1.0,2.0,0.3523111343383789,1.9189369678497314,0.5547939472865095,116.0,699.0
Y,R,"[5, 3]",1.0,3.0,0.21881699562072754,1.7162089347839355,0.48776496858441504,116.0,700.0
R,U,"[4, 3]",1.0,4.0,0.18616986274719238,1.9311611652374268,0.7352013913989761,116.0,701.0
G,D,"[5, 3]",1.0,5.0,0.18379616737365723,1.6282610893249512,0.43054717880365456,116.0,702.0
,,"(3, 3)",,,,,,116.0,
G,D,"[4, 3]",1.0,1.0,0.6855759620666504,3.7828710079193115,0.546752345886376,,703.0
B,L,"[4, 2]",1.0,2.0,0.2432548999786377,1.9740281105041504,0.7207522342696173,117.0,704.0
G,D,"[5, 2]",1.0,3.0,0.21587920188903809,1.7431390285491943,0.5137181084237832,117.0,705.0
Y,R,"[5, 3]",1.0,4.0,0.27883410453796387,1.7925829887390137,0.5066435021285463,117.0,706.0
R,U,"[4, 3]",1.0,5.0,0.21646904945373535,1.9582529067993164,0.7309754702216907,117.0,707.0
G,D,"[5, 3]",1.0,6.0,0.20797204971313477,1.9459648132324219,0.7278418254507126,117.0,708.0
,,"(3, 3)",,,,,,117.0,
G,D,"[4, 3]",1.0,1.0,0.7279939651489258,2.540782928466797,0.2851398354625513,,709.0
B,L,"[4, 2]",1.0,2.0,0.20679306983947754,1.9573280811309814,0.7420040475936756,118.0,710.0
G,D,"[5, 2]",1.0,3.0,0.21995210647583008,1.6885120868682861,0.46419399641810394,118.0,711.0
Y,R,"[5, 3]",1.0,4.0,0.17194509506225586,1.4662039279937744,0.2808418580687855,118.0,712.0
R,U,"[4, 3]",1.0,5.0,0.2614150047302246,1.7790038585662842,0.5096863423206691,118.0,713.0
G,D,"[5, 3]",1.0,6.0,0.19071698188781738,1.7314848899841309,0.5408700165425959,118.0,714.0
,,"(3, 3)",,,,,,118.0,
G,D,"[4, 3]",1.0,1.0,0.6426990032196045,2.680072069168091,0.6544389282195915,,715.0
B,L,"[4, 2]",1.0,2.0,0.20903706550598145,1.9057590961456299,0.6934614758470723,119.0,716.0
G,D,"[5, 2]",1.0,3.0,0.19724702835083008,1.8197481632232666,0.6300001738778416,119.0,717.0
Y,R,"[5, 3]",1.0,4.0,0.2017970085144043,1.5931220054626465,0.37319578620052485,119.0,718.0
R,U,"[4, 3]",1.0,5.0,0.29650402069091797,1.9338369369506836,0.6401255410116933,119.0,719.0
G,D,"[5, 3]",1.0,6.0,0.21533989906311035,1.7731850147247314,0.5467515851323179,119.0,720.0
,,"(3, 3)",,,,,,119.0,
G,D,"[4, 3]",1.0,1.0,0.5947260856628418,2.498582124710083,0.3290554418530008,,721.0
B,L,"[4, 2]",1.0,2.0,0.21979808807373047,1.5623528957366943,0.34129007406082607,120.0,722.0
G,D,"[5, 2]",1.0,3.0,0.16805195808410645,1.6110429763793945,0.43559198269700256,120.0,723.0
Y,R,"[5, 3]",1.0,4.0,0.2507319450378418,1.716465950012207,0.4520399559076944,120.0,724.0
R,U,"[4, 3]",1.0,5.0,0.2481379508972168,1.9885380268096924,0.740375176458405,120.0,725.0
G,D,"[5, 3]",1.0,6.0,0.1617598533630371,1.5511400699615479,0.3918946878676933,120.0,726.0
,,"(3, 3)",,,,,,120.0,
G,D,"[4, 3]",1.0,1.0,0.5952751636505127,3.2331221103668213,0.625081005126174,,727.0
B,L,"[4, 2]",1.0,2.0,0.24548792839050293,1.6470599174499512,0.40555579510112777,121.0,728.0
G,D,"[5, 2]",1.0,3.0,0.22650504112243652,1.6287407875061035,0.4009936795409938,121.0,729.0
Y,R,"[5, 3]",1.0,4.0,0.23877501487731934,1.8555898666381836,0.606383214742537,121.0,730.0
R,U,"[4, 3]",1.0,5.0,0.20264911651611328,1.9069809913635254,0.6966856410190057,121.0,731.0
G,D,"[5, 3]",1.0,6.0,0.18395400047302246,1.4593939781188965,0.2564436527175872,121.0,732.0
,,"(3, 3)",,,,,,121.0,
G,D,"[4, 3]",1.0,1.0,0.7087368965148926,3.237931966781616,0.7441262233858106,,733.0
B,L,"[4, 2]",1.0,2.0,0.19554996490478516,1.855409860610962,0.6661968367167008,122.0,734.0
G,D,"[5, 2]",1.0,3.0,0.1790909767150879,1.7520508766174316,0.5682803945684195,122.0,735.0
Y,R,"[5, 3]",1.0,4.0,0.1962289810180664,1.710521936416626,0.5123443585652965,122.0,736.0
R,U,"[4, 3]",1.0,5.0,0.23126697540283203,1.881922960281372,0.6606797601558495,122.0,737.0
G,D,"[5, 3]",1.0,6.0,0.2138979434967041,1.631152868270874,0.4254333799182095,122.0,738.0
,,"(3, 3)",,,,,,122.0,
G,D,"[4, 3]",1.0,1.0,0.7887070178985596,2.7037181854248047,0.5294125827817848,,739.0
B,L,"[4, 2]",1.0,2.0,0.26496219635009766,1.9896609783172607,0.7186131475592384,123.0,740.0
G,D,"[5, 2]",1.0,3.0,0.22600889205932617,1.8778469562530518,0.6466438892865195,123.0,741.0
Y,R,"[5, 3]",1.0,4.0,0.19582295417785645,1.8252599239349365,0.62204541757481,123.0,742.0
R,U,"[4, 3]",1.0,5.0,0.23702216148376465,1.771359920501709,0.5268890168308232,123.0,743.0
G,D,"[5, 3]",1.0,6.0,0.18421101570129395,1.5110290050506592,0.32146149949202213,123.0,744.0
,,"(3, 3)",,,,,,123.0,
G,D,"[4, 3]",1.0,1.0,0.6381089687347412,2.8180508613586426,0.4226193329043003,,745.0
B,L,"[4, 2]",1.0,2.0,0.22684216499328613,1.8950221538543701,0.6674567816928488,124.0,746.0
G,D,"[5, 2]",1.0,3.0,0.18206000328063965,1.6891450881958008,0.490228028708439,124.0,747.0
Y,R,"[5, 3]",1.0,4.0,0.2010970115661621,1.749629020690918,0.5396422667196497,124.0,748.0
R,U,"[4, 3]",1.0,5.0,0.21684002876281738,1.5907061100006104,0.3639022110398537,124.0,749.0
G,D,"[5, 3]",1.0,6.0,0.2448108196258545,1.8552920818328857,0.602468277176145,124.0,750.0
,,"(3, 3)",,,,,,124.0,
G,D,"[4, 3]",1.0,1.0,0.5124821662902832,3.092772960662842,0.5620977529801043,,751.0
B,L,"[4, 2]",1.0,2.0,0.16455388069152832,1.5734198093414307,0.4189018921562446,125.0,752.0
G,D,"[5, 2]",1.0,3.0,0.20756006240844727,1.940971851348877,0.7261481956276699,125.0,753.0
Y,R,"[5, 3]",1.0,4.0,0.1892390251159668,1.4753808975219727,0.2853147421997424,125.0,754.0
R,U,"[4, 3]",1.0,5.0,0.3311758041381836,1.833928108215332,0.5024879857767163,125.0,755.0
G,D,"[5, 3]",1.0,6.0,0.19472002983093262,1.8631620407104492,0.665394166262384,125.0,756.0
,,"(3, 3)",,,,,,125.0,
G,D,"[4, 3]",1.0,1.0,0.6152138710021973,2.8704099655151367,0.7191572831580898,,757.0
B,L,"[4, 2]",1.0,2.0,0.2314608097076416,1.856269121170044,0.6256129068231073,126.0,758.0
G,D,"[5, 2]",1.0,3.0,0.19652485847473145,1.4755799770355225,0.2848283410888929,126.0,759.0
Y,R,"[5, 3]",1.0,4.0,0.23313093185424805,1.8124220371246338,0.5637639883495624,126.0,760.0
R,U,"[4, 3]",1.0,5.0,0.22052478790283203,1.5350151062011719,0.29894384205745195,126.0,761.0
G,D,"[5, 3]",1.0,6.0,0.2894001007080078,1.922011137008667,0.6206813872316602,126.0,762.0
,,"(3, 3)",,,,,,126.0,
G,D,"[4, 3]",1.0,1.0,0.7525451183319092,2.454974889755249,0.29299804488954806,,763.0
B,L,"[4, 2]",1.0,2.0,0.19496917724609375,1.7410879135131836,0.5503045391437232,127.0,764.0
G,D,"[5, 2]",1.0,3.0,0.20797991752624512,1.7097530364990234,0.5100987958177076,127.0,765.0
Y,R,"[5, 3]",1.0,4.0,0.2808091640472412,1.6897821426391602,0.4167443642124819,127.0,766.0
R,U,"[4, 3]",1.0,5.0,0.29294800758361816,1.6432609558105469,0.34323417024735997,127.0,767.0
G,D,"[5, 3]",1.0,6.0,0.21771812438964844,1.7926528453826904,0.5692259715869283,127.0,768.0
,,"(3, 3)",,,,,,127.0,
G,D,"[4, 3]",1.0,1.0,0.6729719638824463,3.2214739322662354,0.7404681077240891,,769.0
B,L,"[4, 2]",1.0,2.0,0.1862940788269043,1.8943979740142822,0.7017385578381983,128.0,770.0
G,D,"[5, 2]",1.0,3.0,0.20126104354858398,1.6205408573150635,0.40591333628777326,128.0,771.0
Y,R,"[5, 3]",1.0,4.0,0.2026209831237793,1.5105509757995605,0.29984466620354006,128.0,772.0
R,U,"[4, 3]",1.0,5.0,0.2452259063720703,1.9772469997406006,0.7266530217076841,128.0,773.0
G,D,"[5, 3]",1.0,6.0,0.22766900062561035,1.6006150245666504,0.3778066386439204,128.0,774.0
,,"(3, 3)",,,,,,128.0,
G,D,"[4, 3]",1.0,1.0,0.5528090000152588,2.8147220611572266,0.5756796867517472,,775.0
B,L,"[4, 2]",1.0,2.0,0.22425484657287598,1.810041904449463,0.6025112277123783,129.0,776.0
G,D,"[5, 2]",1.0,3.0,0.19847798347473145,1.846682071685791,0.6491829547044938,129.0,777.0
Y,R,"[5, 3]",-1.0,3.0,0.0627439022064209,5.914963960647583,0.714142261564653,129.0,778.0
R,U,"[4, 3]",1.0,4.0,0.3329648971557617,1.9774339199066162,0.6250917672802222,129.0,779.0
G,D,"[5, 3]",1.0,5.0,0.2412548065185547,1.9143872261047363,0.6726594667977122,129.0,780.0
,,"(3, 3)",,,,,,129.0,
G,D,"[4, 3]",1.0,1.0,0.7749209403991699,3.635349988937378,0.5747226674348664,,781.0
B,L,"[4, 2]",1.0,2.0,0.29062604904174805,1.9254920482635498,0.6336300133181982,130.0,782.0
G,D,"[5, 2]",1.0,3.0,0.2482450008392334,1.8922028541564941,0.6423342293584673,130.0,783.0
Y,R,"[5, 3]",1.0,4.0,0.36522817611694336,2.0849449634552,0.7272451981301731,130.0,784.0
R,U,"[4, 3]",1.0,5.0,0.27964186668395996,1.574894905090332,0.3026680242472941,130.0,785.0
G,D,"[5, 3]",1.0,6.0,0.6553668975830078,1.9749770164489746,0.31089409581143823,130.0,786.0
,,"(3, 3)",,,,,,130.0,
G,D,"[4, 3]",-2.0,0.0,1.0327908992767334,3.697869062423706,0.7251764759139543,,787.0
B,L,"[4, 2]",1.0,1.0,0.20882201194763184,1.6603589057922363,0.4525282816538088,131.0,788.0
G,D,"[5, 2]",1.0,2.0,0.25528907775878906,1.9745349884033203,0.7102014795512281,131.0,789.0
Y,R,"[5, 3]",1.0,3.0,0.1868290901184082,1.735762119293213,0.5461566186886879,131.0,790.0
R,U,"[4, 3]",1.0,4.0,0.22275400161743164,1.941364049911499,0.7041525242952611,131.0,791.0
G,D,"[5, 3]",1.0,5.0,0.1844770908355713,1.8387420177459717,0.6429119648706847,131.0,792.0
,,"(3, 3)",,,,,,131.0,
G,D,"[4, 3]",1.0,1.0,0.48771190643310547,3.1917150020599365,0.48464559753525993,,793.0
B,L,"[4, 2]",1.0,2.0,0.19051098823547363,1.5377821922302246,0.3394100451148239,132.0,794.0
G,D,"[5, 2]",1.0,3.0,0.2260439395904541,1.6518840789794922,0.42458194354151524,132.0,795.0
Y,R,"[5, 3]",1.0,4.0,0.17923283576965332,1.8740179538726807,0.6984188675881398,132.0,796.0
R,U,"[4, 3]",1.0,5.0,0.23680520057678223,1.5458569526672363,0.2947007767972161,132.0,797.0
G,D,"[5, 3]",1.0,6.0,0.20769619941711426,1.7999191284179688,0.594249932690122,132.0,798.0
,,"(3, 3)",,,,,,132.0,
G,D,"[4, 3]",1.0,1.0,0.516603946685791,2.712285041809082,0.5231860311463998,,799.0
B,L,"[4, 2]",1.0,2.0,0.21999001502990723,1.8900370597839355,0.6631039467982109,133.0,800.0
G,D,"[5, 2]",1.0,3.0,0.1271979808807373,1.7969279289245605,0.6603858700010192,133.0,801.0
Y,R,"[5, 3]",1.0,4.0,0.29982995986938477,1.6608679294586182,0.3546917240728378,133.0,802.0
R,U,"[4, 3]",1.0,5.0,0.24019193649291992,1.9346730709075928,0.6891356359351231,133.0,803.0
G,D,"[5, 3]",1.0,6.0,0.22710299491882324,1.5436670780181885,0.3165711178451343,133.0,804.0
,,"(3, 3)",,,,,,133.0,
G,D,"[4, 3]",-1.0,-1.0,0.6945919990539551,2.940042018890381,0.6230195282924853,,805.0
Y,R,"[4, 4]",-1.0,-2.0,0.26769399642944336,1.674685001373291,0.3978380247072746,134.0,806.0
B,L,"[4, 3]",-1.0,-3.0,0.33142995834350586,1.887988805770874,0.5524626153038414,134.0,807.0
Y,R,"[4, 4]",-1.0,-4.0,0.202164888381958,1.5399420261383057,0.3258107284572911,134.0,808.0
R,U,"[3, 4]",-1.0,-5.0,0.3018980026245117,1.7037639617919922,0.396148390956505,134.0,809.0
B,L,"[3, 3]",-2.0,-7.0,0.5102488994598389,1.8253309726715088,0.304974079734744,134.0,810.0
,,"(3, 3)",,,,,,134.0,
Y,R,"[3, 4]",-1.0,-1.0,0.528001070022583,5.317286014556885,0.6555338555094194,,811.0
R,U,"[2, 4]",-1.0,-2.0,0.33872199058532715,1.7607660293579102,0.41648545309521606,135.0,812.0
R,U,"[1, 4]",-1.0,-3.0,0.3975968360900879,1.8534958362579346,0.4534403064927247,135.0,813.0
Y,R,"[1, 5]",-1.0,-4.0,0.14567279815673828,1.4808051586151123,0.3343485987060276,135.0,814.0
B,L,"[1, 4]",-1.0,-4.0,0.04430818557739258,5.7333619594573975,0.5342718410239733,135.0,815.0
B,L,"[1, 3]",-1.0,-5.0,0.5993120670318604,1.9959490299224854,0.3804863734781906,135.0,816.0
,,"(3, 3)",,,,,,135.0,
G,D,"[4, 3]",-1.0,-1.0,0.9096307754516602,6.290187835693359,0.5872723131282276,,817.0
G,D,"[5, 3]",-1.0,-2.0,0.4732041358947754,1.8316309452056885,0.35209385192785103,136.0,818.0
B,L,"[5, 2]",-1.0,-3.0,0.515017032623291,2.2215919494628906,0.6901306695783535,136.0,819.0
G,D,"[6, 2]",0.0,-3.0,0.21364903450012207,1.8441150188446045,0.634439641131558,136.0,820.0
G,D,"[6, 2]",0.0,-3.0,0.3964860439300537,1.9817941188812256,0.58308956112225,136.0,821.0
B,L,"[6, 1]",0.0,-3.0,0.634070873260498,2.3184499740600586,0.6848400754025498,136.0,822.0
,,"(3, 3)",,,,,,136.0,
Y,R,"[3, 4]",-2.0,0.0,1.063378095626831,4.254652976989746,0.6227870644506626,,823.0
Y,R,"[3, 5]",-1.0,-1.0,0.30963802337646484,1.6625299453735352,0.3354756744065402,137.0,824.0
R,U,"[2, 5]",-1.0,-2.0,0.8990368843078613,2.227307081222534,0.3128083637831005,137.0,825.0
R,U,"[1, 5]",-1.0,-3.0,0.20372295379638672,1.8540489673614502,0.6332628711825781,137.0,826.0
B,L,"[1, 4]",-1.0,-3.0,0.0823509693145752,5.907409906387329,0.6907212311737567,137.0,827.0
B,L,"[1, 3]",-1.0,-4.0,0.30697202682495117,1.5870130062103271,0.2781851922942651,137.0,828.0
,,"(3, 3)",,,,,,137.0,
Y,R,"[3, 4]",-1.0,-1.0,0.6935710906982422,4.422271013259888,0.26716290649555335,,829.0
Y,R,"[3, 5]",-2.0,-1.0,1.5505058765411377,2.8588340282440186,0.2761227008262086,138.0,830.0
Y,R,"[3, 6]",0.0,-1.0,0.25084900856018066,2.0006601810455322,0.7430165451564459,138.0,831.0
Y,R,"[3, 6]",0.0,-1.0,0.20078587532043457,1.8785929679870605,0.6884491176633769,138.0,832.0
Y,R,"[3, 6]",0.0,-1.0,0.2973940372467041,1.7800447940826416,0.4852357395961862,138.0,833.0
R,U,"[2, 6]",0.0,-1.0,0.39514899253845215,1.8629529476165771,0.46533175225999224,138.0,834.0
,,"(3, 3)",,,,,,138.0,
R,U,"[2, 3]",1.0,1.0,0.7524139881134033,4.464027166366577,0.3959159866531882,,835.0
Y,R,"[2, 4]",-1.0,0.0,0.9777312278747559,2.4484810829162598,0.4610130717280942,139.0,836.0
R,U,"[1, 4]",-1.0,-1.0,0.23976683616638184,1.6567330360412598,0.41763850472112884,139.0,837.0
G,D,"[2, 4]",-1.0,-2.0,0.2463672161102295,1.890017032623291,0.6408495642918669,139.0,838.0
B,L,"[2, 3]",1.0,-1.0,0.19515395164489746,1.8439362049102783,0.6514979342164144,139.0,839.0
B,L,"[2, 2]",1.0,0.0,0.47592687606811523,2.038393020629883,0.5567624192788109,139.0,840.0
,,"(3, 3)",,,,,,139.0,
R,U,"[2, 3]",1.0,1.0,0.5414919853210449,4.26201605796814,0.6851970308583305,,841.0
B,L,"[2, 2]",1.0,2.0,0.2253859043121338,1.940896987915039,0.7094778281720309,140.0,842.0
B,L,"[2, 1]",1.0,3.0,0.22406482696533203,1.8456640243530273,0.622051973967986,140.0,843.0
B,L,"[2, 0]",0.0,3.0,0.22693681716918945,1.4963650703430176,0.26877794341948874,140.0,844.0
G,D,"[3, 0]",0.0,3.0,0.7581961154937744,2.4907679557800293,0.7258698635783438,140.0,845.0
B,L,"[3, 0]",0.0,3.0,0.5297369956970215,2.1461570262908936,0.6221351581700751,140.0,846.0
,,"(3, 3)",,,,,,140.0,
R,U,"[2, 3]",1.0,1.0,0.556751012802124,3.9333128929138184,0.6056923390873264,,847.0
B,L,"[2, 2]",1.0,2.0,0.2789919376373291,1.8320820331573486,0.5544820531276297,141.0,848.0
B,L,"[2, 1]",1.0,3.0,0.28536200523376465,1.6590869426727295,0.3635882799788948,141.0,849.0
R,U,"[1, 1]",1.0,4.0,0.27768993377685547,1.882817029953003,0.5961618865503299,141.0,850.0
G,D,"[2, 1]",1.0,5.0,0.3544490337371826,1.833484172821045,0.4631886873277816,141.0,851.0
Y,R,"[2, 2]",1.0,6.0,0.5075340270996094,2.1672708988189697,0.6470184657543814,141.0,852.0
,,"(3, 3)",,,,,,141.0,
R,U,"[2, 3]",1.0,1.0,0.8248019218444824,3.9290640354156494,0.6429386724146225,,853.0
B,L,"[2, 2]",1.0,2.0,0.2501399517059326,1.7531418800354004,0.4962879668189531,142.0,854.0
B,L,"[2, 1]",1.0,3.0,0.26570701599121094,1.7635829448699951,0.47648931435699066,142.0,855.0
R,U,"[1, 1]",1.0,4.0,0.2734799385070801,1.6793060302734375,0.40590363131493556,142.0,856.0
G,D,"[2, 1]",1.0,5.0,0.2532219886779785,1.7562940120697021,0.49547064842442734,142.0,857.0
Y,R,"[2, 2]",1.0,6.0,0.24552011489868164,1.5759048461914062,0.3382292453283058,142.0,858.0
,,"(3, 3)",,,,,,142.0,
R,U,"[2, 3]",1.0,1.0,0.532073974609375,3.0252180099487305,0.29670492686288885,,859.0
B,L,"[2, 2]",1.0,2.0,0.26374197006225586,1.5297889709472656,0.25981802988055397,143.0,860.0
B,L,"[2, 1]",1.0,3.0,0.24010300636291504,1.7516391277313232,0.5114253895004826,143.0,861.0
R,U,"[1, 1]",-2.0,3.0,1.1462609767913818,2.484761953353882,0.313113205232848,143.0,862.0
G,D,"[2, 1]",1.0,4.0,0.2282881736755371,1.9583549499511719,0.7210414536959902,143.0,863.0
Y,R,"[2, 2]",1.0,5.0,0.22851800918579102,1.7117321491241455,0.48308601547019675,143.0,864.0
,,"(3, 3)",,,,,,143.0,
R,U,"[2, 3]",1.0,1.0,0.5923261642456055,3.294804096221924,0.4280636759521719,,865.0
B,L,"[2, 2]",1.0,2.0,0.22536110877990723,1.5226478576660156,0.30060138624007254,144.0,866.0
B,L,"[2, 1]",1.0,3.0,0.33346104621887207,2.0714988708496094,0.7217565100994686,144.0,867.0
R,U,"[1, 1]",1.0,4.0,0.24466395378112793,1.7132270336151123,0.4685145227996166,144.0,868.0
G,D,"[2, 1]",1.0,5.0,0.2339630126953125,1.7725780010223389,0.524390375045726,144.0,869.0
Y,R,"[2, 2]",1.0,6.0,0.2364499568939209,1.6952381134033203,0.46995277505512395,144.0,870.0
,,"(3, 3)",,,,,,144.0,
R,U,"[2, 3]",1.0,1.0,0.6222739219665527,3.187077045440674,0.4403075786320703,,871.0
B,L,"[2, 2]",1.0,2.0,0.2362048625946045,1.5506620407104492,0.30767397737655167,145.0,872.0
B,L,"[2, 1]",1.0,3.0,0.46024203300476074,1.9123988151550293,0.45345155813336574,145.0,873.0
R,U,"[1, 1]",1.0,4.0,0.2878429889678955,1.8942208290100098,0.5974471176250635,145.0,874.0
G,D,"[2, 1]",1.0,5.0,0.2546260356903076,1.7925159931182861,0.5401272956747692,145.0,875.0
Y,R,"[2, 2]",1.0,6.0,0.22146201133728027,1.9114990234375,0.6847643694406605,145.0,876.0
,,"(3, 3)",,,,,,145.0,
R,U,"[2, 3]",1.0,1.0,0.6159038543701172,2.419499158859253,0.3712579187092966,,877.0
B,L,"[2, 2]",1.0,2.0,0.22938084602355957,1.8579590320587158,0.629049858813244,146.0,878.0
B,L,"[2, 1]",1.0,3.0,0.15583395957946777,1.8009469509124756,0.6299599129393902,146.0,879.0
R,U,"[1, 1]",1.0,4.0,0.2380359172821045,1.778609037399292,0.5253622330722317,146.0,880.0
G,D,"[2, 1]",1.0,5.0,0.20018506050109863,1.7446868419647217,0.5367216394825316,146.0,881.0
Y,R,"[2, 2]",1.0,6.0,0.22416400909423828,1.6352379322052002,0.405532121896478,146.0,882.0
,,"(3, 3)",,,,,,146.0,
R,U,"[2, 3]",1.0,1.0,0.5315220355987549,2.748105049133301,0.520397427217584,,883.0
B,L,"[2, 2]",1.0,2.0,0.24687695503234863,1.9871411323547363,0.7405619413267955,147.0,884.0
B,L,"[2, 1]",1.0,3.0,0.1647028923034668,1.4488580226898193,0.28984674805120403,147.0,885.0
R,U,"[1, 1]",1.0,4.0,0.32061004638671875,2.0341031551361084,0.7068334280842337,147.0,886.0
G,D,"[2, 1]",1.0,5.0,0.2095198631286621,1.4656119346618652,0.2562580033944057,147.0,887.0
Y,R,"[2, 2]",1.0,6.0,0.2679619789123535,1.9039771556854248,0.6267394551507679,147.0,888.0
,,"(3, 3)",,,,,,147.0,
R,U,"[2, 3]",1.0,1.0,0.5429689884185791,2.778542995452881,0.6221805026908882,,889.0
B,L,"[2, 2]",1.0,2.0,0.1796720027923584,1.848790168762207,0.670985001802826,148.0,890.0
B,L,"[2, 1]",1.0,3.0,0.2470560073852539,1.5476460456848145,0.3021393660400251,148.0,891.0
R,U,"[1, 1]",1.0,4.0,0.3147919178009033,1.6009058952331543,0.28642806792544706,148.0,892.0
G,D,"[2, 1]",1.0,5.0,0.24486494064331055,1.935256004333496,0.6878355416137168,148.0,893.0
Y,R,"[2, 2]",1.0,6.0,0.19971895217895508,1.9256329536437988,0.713516992857229,148.0,894.0
,,"(3, 3)",,,,,,148.0,
R,U,"[2, 3]",1.0,1.0,0.597275972366333,2.44462513923645,0.25860505327797473,,895.0
B,L,"[2, 2]",1.0,2.0,0.3149700164794922,1.6932950019836426,0.3853040125822904,149.0,896.0
B,L,"[2, 1]",1.0,3.0,0.22611689567565918,1.663728952407837,0.4322759321911574,149.0,897.0
R,U,"[1, 1]",1.0,4.0,0.18553614616394043,1.499783992767334,0.2988945935152478,149.0,898.0
G,D,"[2, 1]",1.0,5.0,0.2209939956665039,1.781008005142212,0.5628942786183173,149.0,899.0
Y,R,"[2, 2]",1.0,6.0,0.20033979415893555,1.9206159114837646,0.7001588953250972,149.0,900.0
,,"(3, 3)",,,,,,149.0,
R,U,"[2, 3]",1.0,1.0,0.6759262084960938,2.329765796661377,0.26373850465088466,,901.0
B,L,"[2, 2]",1.0,2.0,0.35432004928588867,2.0092408657073975,0.6392811612531222,150.0,902.0
B,L,"[2, 1]",1.0,3.0,0.2233891487121582,1.8476548194885254,0.6203335298327439,150.0,903.0
R,U,"[1, 1]",1.0,4.0,0.20044493675231934,1.8226139545440674,0.6096933010471045,150.0,904.0
G,D,"[2, 1]",1.0,5.0,0.1982119083404541,1.5218470096588135,0.33173107913717864,150.0,905.0
Y,R,"[2, 2]",1.0,6.0,0.22774791717529297,1.91628098487854,0.6810595992696065,150.0,906.0
,,"(3, 3)",,,,,,150.0,
R,U,"[2, 3]",1.0,1.0,0.5326790809631348,2.68770694732666,0.6355469783476028,,907.0
B,L,"[2, 2]",1.0,2.0,0.22369599342346191,1.7334492206573486,0.5024441089804386,151.0,908.0
B,L,"[2, 1]",1.0,3.0,0.1767270565032959,1.7478418350219727,0.5668894570367425,151.0,909.0
R,U,"[1, 1]",1.0,4.0,0.18467402458190918,1.9311339855194092,0.7313928396502529,151.0,910.0
G,D,"[2, 1]",1.0,5.0,0.17925000190734863,1.8204090595245361,0.6351502218005045,151.0,911.0
Y,R,"[2, 2]",1.0,6.0,0.16063904762268066,1.6544439792633057,0.48970710641392473,151.0,912.0
,,"(3, 3)",,,,,,151.0,
R,U,"[2, 3]",1.0,1.0,0.6133270263671875,2.373997211456299,0.4138666491064305,,913.0
B,L,"[2, 2]",1.0,2.0,0.25843000411987305,2.0089778900146484,0.739163621331698,152.0,914.0
B,L,"[2, 1]",1.0,3.0,0.15070891380310059,1.6522200107574463,0.4918482257510888,152.0,915.0
R,U,"[1, 1]",1.0,4.0,0.21594810485839844,1.676177978515625,0.4680415217176553,152.0,916.0
G,D,"[2, 1]",1.0,5.0,0.20438504219055176,1.4685490131378174,0.25355641571224047,152.0,917.0
Y,R,"[2, 2]",1.0,6.0,0.21684598922729492,1.9395098686218262,0.7091537428284553,152.0,918.0
,,"(3, 3)",,,,,,152.0,
R,U,"[2, 3]",1.0,1.0,0.4787130355834961,2.2319607734680176,0.30827968583654725,,919.0
B,L,"[2, 2]",1.0,2.0,0.36630916595458984,2.0968198776245117,0.7211348894389779,153.0,920.0
B,L,"[2, 1]",1.0,3.0,0.15826201438903809,1.8441829681396484,0.6820120273190158,153.0,921.0
R,U,"[1, 1]",1.0,4.0,0.19972705841064453,1.5181260108947754,0.3005849723702069,153.0,922.0
G,D,"[2, 1]",1.0,5.0,0.23305201530456543,1.7794890403747559,0.5298726225720168,153.0,923.0
Y,R,"[2, 2]",1.0,6.0,0.20458698272705078,1.7744019031524658,0.5543114914248919,153.0,924.0
,,"(3, 3)",,,,,,153.0,
R,U,"[2, 3]",1.0,1.0,0.4892430305480957,2.365326166152954,0.45309476625134343,,925.0
B,L,"[2, 2]",1.0,2.0,0.251162052154541,1.5783240795135498,0.31500964352044947,154.0,926.0
B,L,"[2, 1]",1.0,3.0,0.1601119041442871,1.8147990703582764,0.6463176500649905,154.0,927.0
R,U,"[1, 1]",1.0,4.0,0.2074110507965088,1.6145210266113281,0.39434993003132207,154.0,928.0
G,D,"[2, 1]",1.0,5.0,0.1975111961364746,1.872969150543213,0.6834964927952267,154.0,929.0
Y,R,"[2, 2]",1.0,6.0,0.12919211387634277,1.6383390426635742,0.5054921792584752,154.0,930.0
,,"(3, 3)",,,,,,154.0,
R,U,"[2, 3]",1.0,1.0,0.5942070484161377,3.4501731395721436,0.7223739993358163,,931.0
B,L,"[2, 2]",1.0,2.0,0.212907075881958,1.66286301612854,0.4519663091945073,155.0,932.0
B,L,"[2, 1]",1.0,3.0,0.2083749771118164,1.621722936630249,0.407094320108065,155.0,933.0
R,U,"[1, 1]",1.0,4.0,0.24193382263183594,1.6637718677520752,0.42085594812277216,155.0,934.0
G,D,"[2, 1]",1.0,5.0,0.20247197151184082,1.6305530071258545,0.43481211490402116,155.0,935.0
Y,R,"[2, 2]",1.0,6.0,0.2008500099182129,1.5585639476776123,0.3435991692118204,155.0,936.0
,,"(3, 3)",,,,,,155.0,
R,U,"[2, 3]",1.0,1.0,0.5852370262145996,2.5501179695129395,0.32688374485355987,,937.0
B,L,"[2, 2]",1.0,2.0,0.2238621711730957,1.9097011089324951,0.686342526393352,156.0,938.0
B,L,"[2, 1]",1.0,3.0,0.22731614112854004,1.8502650260925293,0.6200229841580146,156.0,939.0
R,U,"[1, 1]",1.0,4.0,0.20978713035583496,1.884385108947754,0.6712445528118824,156.0,940.0
G,D,"[2, 1]",1.0,5.0,0.18510079383850098,1.8330039978027344,0.637570029984819,156.0,941.0
Y,R,"[2, 2]",1.0,6.0,0.20304393768310547,1.7552769184112549,0.5429284867407497,156.0,942.0
,,"(3, 3)",,,,,,156.0,
R,U,"[2, 3]",1.0,1.0,0.5843479633331299,2.404895067214966,0.3483094126986032,,943.0
B,L,"[2, 2]",1.0,2.0,0.20844006538391113,1.6564500331878662,0.43790729195934786,157.0,944.0
B,L,"[2, 1]",-1.0,2.0,0.041589975357055664,5.887493133544922,0.725247559740036,157.0,945.0
R,U,"[1, 1]",1.0,3.0,0.36734485626220703,1.7733359336853027,0.3989541783063157,157.0,946.0
G,D,"[2, 1]",1.0,4.0,0.2360701560974121,1.741791009902954,0.49050595316925605,157.0,947.0
Y,R,"[2, 2]",1.0,5.0,0.2447969913482666,1.6875698566436768,0.4448874818964148,157.0,948.0
,,"(3, 3)",,,,,,157.0,
R,U,"[2, 3]",1.0,1.0,0.6456279754638672,2.7520859241485596,0.29720250208834703,,949.0
B,L,"[2, 2]",1.0,2.0,0.35788702964782715,1.7934889793395996,0.4239058861696054,158.0,950.0
B,L,"[2, 1]",1.0,3.0,0.23773813247680664,1.7323918342590332,0.4895917681360762,158.0,951.0
R,U,"[1, 1]",1.0,4.0,0.22636198997497559,1.5695388317108154,0.34246118433281497,158.0,952.0
G,D,"[2, 1]",1.0,5.0,0.20718884468078613,1.6958720684051514,0.48826174319771226,158.0,953.0
Y,R,"[2, 2]",1.0,6.0,0.23792386054992676,1.55753493309021,0.31277866477343547,158.0,954.0
,,"(3, 3)",,,,,,158.0,
R,U,"[2, 3]",1.0,1.0,0.4651038646697998,2.1511659622192383,0.2640930931842903,,955.0
B,L,"[2, 2]",1.0,2.0,0.31516313552856445,1.569361925125122,0.25038855420283956,159.0,956.0
B,L,"[2, 1]",1.0,3.0,0.22966885566711426,1.517052173614502,0.2835720953834423,159.0,957.0
R,U,"[1, 1]",1.0,4.0,0.3459789752960205,1.9480791091918945,0.5981999860154209,159.0,958.0
G,D,"[2, 1]",1.0,5.0,0.20805597305297852,1.572767972946167,0.35444633180895796,159.0,959.0
Y,R,"[2, 2]",1.0,6.0,0.19258785247802734,1.7180328369140625,0.522386843969795,159.0,960.0
,,"(3, 3)",,,,,,159.0,
R,U,"[2, 3]",1.0,1.0,0.4080698490142822,2.6581549644470215,0.7137955823718598,,961.0
B,L,"[2, 2]",1.0,2.0,0.18767881393432617,1.7719621658325195,0.5692377716342447,160.0,962.0
B,L,"[2, 1]",1.0,3.0,0.16783380508422852,1.7686400413513184,0.5877596359433015,160.0,963.0
R,U,"[1, 1]",1.0,4.0,0.2131061553955078,1.5791139602661133,0.36720778150585814,160.0,964.0
G,D,"[2, 1]",1.0,5.0,0.21673893928527832,1.527148962020874,0.29439629699239717,160.0,965.0
Y,R,"[2, 2]",1.0,6.0,0.2044210433959961,1.715705156326294,0.509941153350583,160.0,966.0
,,"(3, 3)",,,,,,160.0,
R,U,"[2, 3]",1.0,1.0,0.49704813957214355,2.180145025253296,0.4070000097997776,,967.0
B,L,"[2, 2]",1.0,2.0,0.2163231372833252,1.7094340324401855,0.48305869200097123,161.0,968.0
B,L,"[2, 1]",-1.0,2.0,0.03186607360839844,5.609203100204468,0.44238916531971695,161.0,969.0
R,U,"[1, 1]",1.0,3.0,0.3809380531311035,2.115103006362915,0.7406495531066747,161.0,970.0
G,D,"[2, 1]",1.0,4.0,0.21619486808776855,1.6447529792785645,0.4189424438041549,161.0,971.0
Y,R,"[2, 2]",1.0,5.0,0.2562751770019531,1.578113079071045,0.31397720467960666,161.0,972.0
,,"(3, 3)",,,,,,161.0,
R,U,"[2, 3]",1.0,1.0,0.6075758934020996,2.746896982192993,0.2776296649057107,,973.0
B,L,"[2, 2]",1.0,2.0,0.33591294288635254,1.8651371002197266,0.5259535470823105,162.0,974.0
B,L,"[2, 1]",1.0,3.0,0.20522689819335938,1.5920500755310059,0.384850284244648,162.0,975.0
R,U,"[1, 1]",1.0,4.0,0.20336580276489258,1.7453060150146484,0.5297656390881178,162.0,976.0
G,D,"[2, 1]",1.0,5.0,0.18727588653564453,1.5579121112823486,0.35454201923565215,162.0,977.0
Y,R,"[2, 2]",1.0,6.0,0.25432896614074707,1.9742000102996826,0.711675897266772,162.0,978.0
,,"(3, 3)",,,,,,162.0,
R,U,"[2, 3]",1.0,1.0,0.7015759944915771,2.7428839206695557,0.7047655602086849,,979.0
B,L,"[2, 2]",1.0,2.0,0.25191688537597656,1.702242136001587,0.44052461687594846,163.0,980.0
B,L,"[2, 1]",1.0,3.0,0.16806793212890625,1.6407599449157715,0.4646308937159958,163.0,981.0
R,U,"[1, 1]",1.0,4.0,0.20102596282958984,1.474195957183838,0.2556862649711372,163.0,982.0
G,D,"[2, 1]",1.0,5.0,0.22647905349731445,1.9521739482879639,0.724089826752702,163.0,983.0
Y,R,"[2, 2]",1.0,6.0,0.19635701179504395,1.558419942855835,0.36626433262855174,163.0,984.0
,,"(3, 3)",,,,,,163.0,
R,U,"[2, 3]",1.0,1.0,0.6710867881774902,2.689486026763916,0.4058040818785466,,985.0
B,L,"[2, 2]",1.0,2.0,0.25246500968933105,1.739150047302246,0.4781989567171602,164.0,986.0
B,L,"[2, 1]",1.0,3.0,0.22068500518798828,1.6193289756774902,0.39769844811536287,164.0,987.0
R,U,"[1, 1]",1.0,4.0,0.2371819019317627,1.656702995300293,0.40431270391634067,164.0,988.0
G,D,"[2, 1]",1.0,5.0,0.2041628360748291,1.4805920124053955,0.26848212837414864,164.0,989.0
Y,R,"[2, 2]",1.0,6.0,0.20778894424438477,1.952502965927124,0.7372702367532853,164.0,990.0
,,"(3, 3)",,,,,,164.0,
R,U,"[2, 3]",1.0,1.0,0.49019598960876465,2.5268330574035645,0.7140243257740202,,991.0
B,L,"[2, 2]",1.0,2.0,0.20264315605163574,1.9320800304412842,0.7127865676595065,165.0,992.0
B,L,"[2, 1]",-1.0,2.0,0.022456884384155273,5.59289813041687,0.4395450017735721,165.0,993.0
R,U,"[1, 1]",1.0,3.0,0.23900794982910156,1.6933279037475586,0.4495207205811649,165.0,994.0
G,D,"[2, 1]",1.0,4.0,0.2201540470123291,1.6689109802246094,0.43511275000507954,165.0,995.0
Y,R,"[2, 2]",1.0,5.0,0.2349720001220703,1.7515549659729004,0.5032976689484829,165.0,996.0
,,"(3, 3)",,,,,,165.0,
R,U,"[2, 3]",1.0,1.0,0.3978850841522217,3.2027029991149902,0.38968473513621543,,997.0
B,L,"[2, 2]",1.0,2.0,0.28891921043395996,1.7888860702514648,0.4951137261452139,166.0,998.0
B,L,"[2, 1]",1.0,3.0,0.23164105415344238,1.5933070182800293,0.37189675756795765,166.0,999.0
R,U,"[1, 1]",1.0,4.0,0.19776201248168945,1.5891659259796143,0.3943835082757128,166.0,1000.0
G,D,"[2, 1]",1.0,5.0,0.16620492935180664,1.6901540756225586,0.5177675556659155,166.0,1001.0
Y,R,"[2, 2]",1.0,6.0,0.1284160614013672,1.4609711170196533,0.32881948859056076,166.0,1002.0
,,"(3, 3)",,,,,,166.0,
R,U,"[2, 3]",1.0,1.0,0.4109330177307129,2.3943381309509277,0.48967272062581224,,1003.0
B,L,"[2, 2]",1.0,2.0,0.20284104347229004,1.8243091106414795,0.6138407937092949,167.0,1004.0
B,L,"[2, 1]",1.0,3.0,0.11650681495666504,1.5531589984893799,0.4174075000198716,167.0,1005.0
R,U,"[1, 1]",1.0,4.0,0.19635510444641113,1.6755001544952393,0.47609384996416937,167.0,1006.0
G,D,"[2, 1]",1.0,5.0,0.20072007179260254,1.9481611251831055,0.7407347452212165,167.0,1007.0
Y,R,"[2, 2]",1.0,6.0,0.17964887619018555,1.5901050567626953,0.41463761556044004,167.0,1008.0
,,"(3, 3)",,,,,,167.0,
R,U,"[2, 3]",1.0,1.0,0.48969411849975586,2.4031240940093994,0.40088530692203495,,1009.0
B,L,"[2, 2]",1.0,2.0,0.19975495338439941,1.812134027481079,0.596167696272815,168.0,1010.0
B,L,"[2, 1]",1.0,3.0,0.1576540470123291,1.8387269973754883,0.6682087976420417,168.0,1011.0
R,U,"[1, 1]",1.0,4.0,0.20500898361206055,1.7743589878082275,0.5594924528172027,168.0,1012.0
Y,R,"[1, 2]",1.0,5.0,0.18939495086669922,1.6877808570861816,0.4972567345379826,168.0,1013.0
G,D,"[2, 2]",1.0,6.0,0.2733321189880371,1.5699529647827148,0.28434941271098035,168.0,1014.0
,,"(3, 3)",,,,,,168.0,
R,U,"[2, 3]",1.0,1.0,0.9473412036895752,3.9014439582824707,0.26902192969604305,,1015.0
B,L,"[2, 2]",1.0,2.0,0.2557179927825928,1.8958182334899902,0.6312024049101044,169.0,1016.0
B,L,"[2, 1]",1.0,3.0,0.18992400169372559,1.501357078552246,0.29944195761702486,169.0,1017.0
R,U,"[1, 1]",1.0,4.0,0.2209489345550537,1.5233979225158691,0.28956736363341146,169.0,1018.0
G,D,"[2, 1]",1.0,5.0,0.18767404556274414,1.8285839557647705,0.6346421748573888,169.0,1019.0
Y,R,"[2, 2]",1.0,6.0,0.19405603408813477,1.807136058807373,0.6083866297396409,169.0,1020.0
,,"(3, 3)",,,,,,169.0,
R,U,"[2, 3]",1.0,1.0,0.37520885467529297,2.8896851539611816,0.2818892818967047,,1021.0
B,L,"[2, 2]",1.0,2.0,0.28819894790649414,1.6456389427185059,0.3440573575921289,170.0,1022.0
B,L,"[2, 1]",1.0,3.0,0.1480400562286377,1.8486480712890625,0.709116820340778,170.0,1023.0
R,U,"[1, 1]",-1.0,3.0,0.03392815589904785,5.577032089233398,0.4200629292138443,170.0,1024.0
G,D,"[2, 1]",1.0,4.0,0.254148006439209,1.7580540180206299,0.49476259601942,170.0,1025.0
Y,R,"[2, 2]",1.0,5.0,0.20995402336120605,1.6551120281219482,0.449772808058318,170.0,1026.0
,,"(3, 3)",,,,,,170.0,
R,U,"[2, 3]",1.0,1.0,0.6145639419555664,2.521696090698242,0.40478571125972856,,1027.0
B,L,"[2, 2]",1.0,2.0,0.2508511543273926,1.616523027420044,0.3546500359051716,171.0,1028.0
B,L,"[2, 1]",1.0,3.0,0.22614383697509766,1.6111488342285156,0.3825321453823155,171.0,1029.0
R,U,"[1, 1]",1.0,4.0,0.24268603324890137,1.670361042022705,0.419494109384131,171.0,1030.0
G,D,"[2, 1]",1.0,5.0,0.1603679656982422,1.4137120246887207,0.2500339003493982,171.0,1031.0
Y,R,"[2, 2]",1.0,6.0,0.20351910591125488,1.6894500255584717,0.4728080930193074,171.0,1032.0
,,"(3, 3)",,,,,,171.0,
R,U,"[2, 3]",1.0,1.0,0.5328168869018555,2.4999399185180664,0.38937341336516323,,1033.0
B,L,"[2, 2]",1.0,2.0,0.22611188888549805,1.8196890354156494,0.5922171804648098,172.0,1034.0
B,L,"[2, 1]",1.0,3.0,0.19971704483032227,1.5114939212799072,0.3039224117115201,172.0,1035.0
R,U,"[1, 1]",1.0,4.0,0.22087597846984863,1.768540859222412,0.5391061691263781,172.0,1036.0
G,D,"[2, 1]",1.0,5.0,0.24973797798156738,1.801567792892456,0.5406478730214898,172.0,1037.0
Y,R,"[2, 2]",1.0,6.0,0.1943359375,1.6530869007110596,0.46050754859256426,172.0,1038.0
,,"(3, 3)",,,,,,172.0,
R,U,"[2, 3]",1.0,1.0,0.5384891033172607,2.3955841064453125,0.4727584997737691,,1039.0
B,L,"[2, 2]",-1.0,1.0,0.0831758975982666,5.59318208694458,0.3827609989826552,173.0,1040.0
B,L,"[2, 1]",1.0,2.0,0.2039809226989746,1.8395779132843018,0.6221792563062378,173.0,1041.0
R,U,"[1, 1]",1.0,3.0,0.21859002113342285,1.8395979404449463,0.611770648421785,173.0,1042.0
G,D,"[2, 1]",1.0,4.0,0.21215486526489258,1.705604076385498,0.5009786390758593,173.0,1043.0
Y,R,"[2, 2]",1.0,5.0,0.1985929012298584,1.8027570247650146,0.5870447972356239,173.0,1044.0
,,"(3, 3)",,,,,,173.0,
R,U,"[2, 3]",1.0,1.0,0.6903438568115234,2.4929120540618896,0.3134153785593689,,1045.0
B,L,"[2, 2]",1.0,2.0,0.38324904441833496,1.7269880771636963,0.32376846208273363,174.0,1046.0
B,L,"[2, 1]",1.0,3.0,0.21806883811950684,1.4905829429626465,0.2645566281633227,174.0,1047.0
G,D,"[3, 1]",1.0,4.0,0.23518586158752441,1.5951330661773682,0.3429105906319137,174.0,1048.0
Y,R,"[3, 2]",-2.0,4.0,1.1817500591278076,2.6475489139556885,0.44036871411752465,174.0,1049.0
Y,R,"[3, 3]",-2.0,2.0,0.3798189163208008,1.8715929985046387,0.49539236831041333,174.0,1050.0
,,"(3, 3)",,,,,,174.0,
R,U,"[2, 3]",1.0,1.0,0.6217482089996338,3.3052690029144287,0.3006852788859356,,1051.0
B,L,"[2, 2]",1.0,2.0,0.23576116561889648,1.8204090595245361,0.5705286976149074,175.0,1052.0
B,L,"[2, 1]",1.0,3.0,0.23713922500610352,1.552272081375122,0.30679943422965833,175.0,1053.0
R,U,"[1, 1]",1.0,4.0,0.243117094039917,1.9205350875854492,0.6771168889343078,175.0,1054.0
G,D,"[2, 1]",1.0,5.0,0.23959612846374512,1.706171989440918,0.48352161940951566,175.0,1055.0
Y,R,"[2, 2]",1.0,6.0,0.2348799705505371,1.6396510601043701,0.3894704897527828,175.0,1056.0
,,"(3, 3)",,,,,,175.0,
R,U,"[2, 3]",1.0,1.0,0.8155210018157959,2.8659651279449463,0.30618936254302226,,1057.0
B,L,"[2, 2]",1.0,2.0,0.22215509414672852,1.559636116027832,0.3324173618795269,176.0,1058.0
B,L,"[2, 1]",1.0,3.0,0.24854302406311035,1.615920066833496,0.3647173432396682,176.0,1059.0
R,U,"[1, 1]",1.0,4.0,0.253817081451416,1.5542221069335938,0.2858665948416905,176.0,1060.0
G,D,"[2, 1]",1.0,5.0,0.24368882179260254,1.5807039737701416,0.3332281714673166,176.0,1061.0
Y,R,"[2, 2]",1.0,6.0,0.2847011089324951,1.6057031154632568,0.30573734089198895,176.0,1062.0
,,"(3, 3)",,,,,,176.0,
R,U,"[2, 3]",1.0,1.0,0.6660499572753906,2.711766004562378,0.5340839312161085,,1063.0
B,L,"[2, 2]",1.0,2.0,0.2512390613555908,1.8783228397369385,0.6124370592154387,177.0,1064.0
B,L,"[2, 1]",1.0,3.0,0.2314760684967041,1.5679969787597656,0.330690747640194,177.0,1065.0
R,U,"[1, 1]",1.0,4.0,0.306164026260376,1.9550271034240723,0.6352523889179531,177.0,1066.0
G,D,"[2, 1]",1.0,5.0,0.22233200073242188,1.7676751613616943,0.5362562091835306,177.0,1067.0
Y,R,"[2, 2]",1.0,6.0,0.2506229877471924,1.7409770488739014,0.47733332368322134,177.0,1068.0
,,"(3, 3)",,,,,,177.0,
R,U,"[2, 3]",1.0,1.0,0.7322559356689453,2.4584319591522217,0.40259137704131726,,1069.0
B,L,"[2, 2]",1.0,2.0,0.23974204063415527,1.6738059520721436,0.42654713650701803,178.0,1070.0
B,L,"[2, 1]",1.0,3.0,0.25833892822265625,1.8201749324798584,0.5633080939439477,178.0,1071.0
R,U,"[1, 1]",1.0,4.0,0.22194194793701172,1.6477689743041992,0.4112705444315627,178.0,1072.0
G,D,"[2, 1]",1.0,5.0,0.21584486961364746,1.6156730651855469,0.4103443858319101,178.0,1073.0
Y,R,"[2, 2]",1.0,6.0,0.20700597763061523,1.5330801010131836,0.3267979905946159,178.0,1074.0
,,"(3, 3)",,,,,,178.0,
R,U,"[2, 3]",1.0,1.0,0.8918030261993408,2.760607957839966,0.3873334005645643,,1075.0
