button_choice,action_choice,coordinate_choice,reward,cumulative_reward,rt,total_trial_time,iti,block_n,trial_n
G,D,"[4, 3]",-2.0,0.0,1.806035041809082,3.095160961151123,0.26289587360922995,0.0,1.0
G,D,"[5, 3]",-1.0,-1.0,0.4080350399017334,1.7275729179382324,0.30711485538932515,0.0,2.0
B,L,"[5, 2]",-1.0,-2.0,0.29082798957824707,1.951751947402954,0.6584712404859464,0.0,3.0
G,D,"[6, 2]",0.0,-2.0,0.28490304946899414,1.771224021911621,0.4800182035887085,0.0,4.0
R,U,"[5, 2]",0.0,-2.0,0.23459815979003906,1.5879042148590088,0.3513291538189866,0.0,5.0
Y,R,"[5, 3]",0.0,-2.0,0.6893200874328613,2.3787550926208496,0.6797746983073489,0.0,6.0
,,"(3, 3)",,,,,,0.0,
B,L,"[3, 2]",1.0,1.0,0.6545388698577881,6.53510594367981,0.6485202366923832,,7.0
Y,R,"[3, 3]",0.0,1.0,0.5959601402282715,2.1412618160247803,0.5398485720923887,1.0,8.0
B,L,"[3, 2]",0.0,1.0,0.23359417915344238,1.974086046218872,0.7472168631116924,1.0,9.0
R,U,"[2, 2]",1.0,2.0,0.2903940677642822,1.7796549797058105,0.4769280649973185,1.0,10.0
R,U,"[1, 2]",1.0,3.0,0.6788148880004883,2.196822166442871,0.5238083491006508,1.0,11.0
B,L,"[1, 1]",-1.0,2.0,0.2578399181365967,1.6930310726165771,0.43364204957191765,1.0,12.0
,,"(3, 3)",,,,,,1.0,
Y,R,"[3, 4]",-1.0,-1.0,0.25719618797302246,5.153999090194702,0.5874949995123702,,13.0
R,U,"[2, 4]",-1.0,-1.0,0.015902042388916016,5.785683870315552,0.6399919315526045,2.0,14.0
B,L,"[2, 3]",-1.0,-2.0,0.21234798431396484,1.9631149768829346,0.7363286310242323,2.0,15.0
G,D,"[3, 3]",0.0,-2.0,0.20560598373413086,1.6201369762420654,0.40693672696545236,2.0,16.0
R,U,"[2, 3]",0.0,-2.0,0.38279199600219727,1.8229341506958008,0.44641136548730226,2.0,17.0
Y,R,"[2, 4]",0.0,-2.0,0.396636962890625,1.929692029953003,0.5260130368271516,2.0,18.0
,,"(3, 3)",,,,,,2.0,
Y,R,"[3, 4]",-1.0,-1.0,0.4757270812988281,6.077546119689941,0.736851907452009,,19.0
B,L,"[3, 3]",0.0,-1.0,0.263721227645874,1.9020860195159912,0.6389997302720334,3.0,20.0
R,U,"[2, 3]",-1.0,-2.0,0.1988060474395752,1.6370279788970947,0.426359184075436,3.0,21.0
G,D,"[3, 3]",0.0,-2.0,0.3147590160369873,1.9708330631256104,0.6636726435910072,3.0,22.0
G,D,"[4, 3]",-1.0,-3.0,0.37122201919555664,1.9301321506500244,0.5438375845069588,3.0,23.0
G,D,"[5, 3]",-1.0,-4.0,0.37567901611328125,1.9205880165100098,0.5479394715493131,3.0,24.0
,,"(3, 3)",,,,,,3.0,
Y,R,"[3, 4]",-1.0,-1.0,0.45711207389831543,3.8897719383239746,0.4044449747340711,,25.0
Y,R,"[3, 5]",-1.0,-2.0,0.5741720199584961,2.146592140197754,0.5676581293064409,4.0,26.0
B,L,"[3, 4]",0.0,-2.0,0.19843220710754395,1.5268499851226807,0.3280587281356337,4.0,27.0
B,L,"[3, 3]",0.0,-2.0,0.41964006423950195,2.008777141571045,0.5699426417488161,4.0,28.0
B,L,"[3, 2]",1.0,-1.0,0.20911407470703125,1.6462490558624268,0.4330960257334038,4.0,29.0
B,L,"[3, 1]",1.0,0.0,0.44403600692749023,1.8785369396209717,0.4283171218538001,4.0,30.0
,,"(3, 3)",,,,,,4.0,
G,D,"[4, 3]",-1.0,-1.0,0.6451609134674072,3.9623148441314697,0.37401112614507115,,31.0
G,D,"[5, 3]",-1.0,-2.0,0.6312060356140137,2.065755844116211,0.4398686058893098,5.0,32.0
G,D,"[6, 3]",0.0,-2.0,0.2943141460418701,2.0358498096466064,0.7414893278378556,5.0,33.0
G,D,"[6, 3]",0.0,-2.0,0.19606494903564453,1.7177350521087646,0.5266060332953025,5.0,34.0
G,D,"[6, 3]",0.0,-2.0,0.3586599826812744,1.9071109294891357,0.550427201289081,5.0,35.0
G,D,"[6, 3]",0.0,-2.0,0.23285794258117676,1.5029609203338623,0.27047652481904555,5.0,36.0
,,"(3, 3)",,,,,,5.0,
R,U,"[2, 3]",-1.0,-1.0,0.6550581455230713,2.7897329330444336,0.5930830240011895,,37.0
R,U,"[1, 3]",1.0,0.0,0.16871404647827148,1.879364013671875,0.7058460552401087,6.0,38.0
Y,R,"[1, 4]",-1.0,-1.0,0.8835201263427734,2.1728549003601074,0.27899836295090147,6.0,39.0
B,L,"[1, 3]",0.0,-1.0,0.3408699035644531,1.9475839138031006,0.6098088119049623,6.0,40.0
B,L,"[1, 2]",1.0,0.0,0.18614578247070312,1.6463050842285156,0.45615147237711645,6.0,41.0
B,L,"[1, 1]",-1.0,-1.0,0.21610689163208008,1.8770031929016113,0.6496614783731871,6.0,42.0
,,"(3, 3)",,,,,,6.0,
R,U,"[2, 3]",-1.0,-1.0,0.6148819923400879,3.2545270919799805,0.27135151188704965,,43.0
G,D,"[3, 3]",0.0,-1.0,0.34769201278686523,1.9622540473937988,0.6166799631147719,7.0,44.0
B,L,"[3, 2]",1.0,0.0,0.1287977695465088,1.7931139469146729,0.6431061084611629,7.0,45.0
B,L,"[3, 1]",1.0,1.0,0.1560831069946289,1.4962430000305176,0.3396091926040728,7.0,46.0
B,L,"[3, 0]",0.0,1.0,0.3259890079498291,1.6644740104675293,0.33748298900268425,7.0,47.0
B,L,"[3, 0]",0.0,1.0,0.3402900695800781,1.9471969604492188,0.6010873780493022,7.0,48.0
,,"(3, 3)",,,,,,7.0,
Y,R,"[3, 4]",-1.0,-1.0,0.23161983489990234,3.6224799156188965,0.5071064452720766,,49.0
B,L,"[3, 3]",0.0,-1.0,0.152940034866333,1.7740600109100342,0.6309417404733477,8.0,50.0
B,L,"[3, 2]",1.0,0.0,0.21355414390563965,1.725917100906372,0.507030996085761,8.0,51.0
B,L,"[3, 1]",1.0,1.0,0.17992401123046875,1.7563540935516357,0.5800530420672896,8.0,52.0
G,D,"[4, 1]",-1.0,0.0,0.2983510494232178,1.6727640628814697,0.3697758241192184,8.0,53.0
B,L,"[4, 0]",0.0,0.0,0.19173407554626465,1.7705919742584229,0.5734375635156856,8.0,54.0
,,"(3, 3)",,,,,,8.0,
Y,R,"[3, 4]",-1.0,-1.0,0.3458261489868164,3.3987810611724854,0.42272639747385665,,55.0
R,U,"[2, 4]",-1.0,-2.0,0.22222495079040527,1.5337941646575928,0.3064566298679765,9.0,56.0
B,L,"[2, 3]",-1.0,-3.0,0.17194390296936035,1.5114998817443848,0.3513021169636917,9.0,57.0
Y,R,"[2, 4]",0.0,-3.0,0.1785869598388672,1.8602590560913086,0.6778240512024682,9.0,58.0
B,L,"[2, 3]",0.0,-3.0,0.25535011291503906,1.755500078201294,0.5002208926811165,9.0,59.0
G,D,"[3, 3]",0.0,-3.0,0.2738828659057617,1.9355008602142334,0.652275445795174,9.0,60.0
,,"(3, 3)",,,,,,9.0,
R,U,"[2, 3]",-1.0,-1.0,0.32006382942199707,5.037487983703613,0.4233358508127914,,61.0
G,D,"[3, 3]",0.0,-1.0,0.29453492164611816,1.9976730346679688,0.704086871204249,10.0,62.0
B,L,"[3, 2]",1.0,0.0,0.19495797157287598,1.5275640487670898,0.33215026291425565,10.0,63.0
B,L,"[3, 1]",1.0,1.0,0.20637798309326172,1.4807720184326172,0.2630769806007722,10.0,64.0
B,L,"[3, 0]",0.0,1.0,0.2618601322174072,1.8184759616851807,0.5478249024404737,10.0,65.0
Y,R,"[3, 1]",0.0,1.0,0.21425509452819824,1.4904100894927979,0.27193178397108353,10.0,66.0
,,"(3, 3)",,,,,,10.0,
Y,R,"[3, 4]",-1.0,-1.0,0.17462801933288574,3.8261170387268066,0.7145096519651744,,67.0
B,L,"[3, 3]",0.0,-1.0,0.18773603439331055,1.729072093963623,0.5268696740452554,11.0,68.0
B,L,"[3, 2]",1.0,0.0,0.1375579833984375,1.3944239616394043,0.2549532625335992,11.0,69.0
B,L,"[3, 1]",1.0,1.0,0.24161100387573242,1.9627130031585693,0.7172369717400165,11.0,70.0
B,L,"[3, 0]",0.0,1.0,0.25472402572631836,1.5350000858306885,0.2694935136752466,11.0,71.0
B,L,"[3, 0]",0.0,1.0,0.24833202362060547,1.6077399253845215,0.3604717856665728,11.0,72.0
,,"(3, 3)",,,,,,11.0,
B,L,"[3, 2]",1.0,1.0,0.23064589500427246,2.9928669929504395,0.6529320893176356,,73.0
B,L,"[3, 1]",1.0,2.0,0.19739794731140137,1.6561799049377441,0.4594707759137556,12.0,74.0
B,L,"[3, 0]",0.0,2.0,0.20369696617126465,1.646975040435791,0.4398579296433173,12.0,75.0
B,L,"[3, 0]",0.0,2.0,0.15979909896850586,1.475287914276123,0.31531927368107737,12.0,76.0
B,L,"[3, 0]",0.0,2.0,0.1703648567199707,1.4748718738555908,0.2902548014733139,12.0,77.0
B,L,"[3, 0]",0.0,2.0,0.16971993446350098,1.712162971496582,0.5521204947948763,12.0,78.0
,,"(3, 3)",,,,,,12.0,
B,L,"[3, 2]",1.0,1.0,0.1625499725341797,2.504765033721924,0.2738228519292868,,79.0
B,L,"[3, 1]",1.0,2.0,0.16924285888671875,1.5746920108795166,0.39847067130197267,13.0,80.0
B,L,"[3, 0]",0.0,2.0,0.1558070182800293,1.4755561351776123,0.30749250260974775,13.0,81.0
B,L,"[3, 0]",0.0,2.0,0.15921998023986816,1.5553579330444336,0.3960473789339222,13.0,82.0
B,L,"[3, 0]",0.0,2.0,0.10321998596191406,1.3638780117034912,0.2768291896060339,13.0,83.0
B,L,"[3, 0]",0.0,2.0,0.15238499641418457,1.8374710083007812,0.6971360143394294,13.0,84.0
,,"(3, 3)",,,,,,13.0,
B,L,"[3, 2]",1.0,1.0,0.22649502754211426,1.9702341556549072,0.36767966064879404,,85.0
B,L,"[3, 1]",1.0,2.0,0.15212297439575195,1.7809009552001953,0.6151713527908647,14.0,86.0
B,L,"[3, 0]",0.0,2.0,0.2378528118133545,1.5058770179748535,0.2546035599573797,14.0,87.0
B,L,"[3, 0]",0.0,2.0,0.19607210159301758,1.4618940353393555,0.2664960490563241,14.0,88.0
B,L,"[3, 0]",0.0,2.0,0.16367006301879883,1.6289479732513428,0.4619575894134405,14.0,89.0
B,L,"[3, 0]",0.0,2.0,0.30077695846557617,1.6805059909820557,0.39261917189490714,14.0,90.0
,,"(3, 3)",,,,,,14.0,
B,L,"[3, 2]",1.0,1.0,0.1865401268005371,2.3605380058288574,0.6362750710574643,,91.0
B,L,"[3, 1]",1.0,2.0,0.30276012420654297,2.0624969005584717,0.7486104370382616,15.0,92.0
B,L,"[3, 0]",0.0,2.0,0.11575198173522949,1.385429859161377,0.2681202690511371,15.0,93.0
B,L,"[3, 0]",0.0,2.0,0.21892404556274414,1.631532907485962,0.41601315591456645,15.0,94.0
B,L,"[3, 0]",0.0,2.0,0.15863895416259766,1.8307430744171143,0.6631982163821081,15.0,95.0
B,L,"[3, 0]",-1.0,2.0,0.026602983474731445,5.688636064529419,0.535518490671581,15.0,96.0
,,"(3, 3)",,,,,,15.0,
R,U,"[2, 3]",-1.0,-1.0,0.3786330223083496,4.587563991546631,0.43980598881392674,,97.0
R,U,"[1, 3]",1.0,0.0,0.2004070281982422,1.5746581554412842,0.36466325436068664,16.0,98.0
B,L,"[1, 2]",1.0,1.0,0.1787118911743164,1.9266891479492188,0.7408524234809393,16.0,99.0
B,L,"[1, 1]",-1.0,0.0,0.11036491394042969,1.7663018703460693,0.6574586081121667,16.0,100.0
B,L,"[1, 0]",0.0,0.0,0.16652297973632812,1.8073971271514893,0.6480625772710472,16.0,101.0
B,L,"[1, 0]",0.0,0.0,0.17999505996704102,1.4614009857177734,0.2765932797715229,16.0,102.0
,,"(3, 3)",,,,,,16.0,
B,L,"[3, 2]",1.0,1.0,0.2817859649658203,3.0083518028259277,0.70146198603856,,103.0
B,L,"[3, 1]",1.0,2.0,0.157393217086792,1.5097298622131348,0.3449803046920436,17.0,104.0
B,L,"[3, 0]",0.0,2.0,0.23149514198303223,1.6106891632080078,0.3886147882084334,17.0,105.0
B,L,"[3, 0]",0.0,2.0,0.1642920970916748,1.733293056488037,0.5717480803054109,17.0,106.0
B,L,"[3, 0]",0.0,2.0,0.1677250862121582,1.5328569412231445,0.37148214060169055,17.0,107.0
B,L,"[3, 0]",0.0,2.0,0.17737483978271484,1.826974868774414,0.6483607671459485,17.0,108.0
,,"(3, 3)",,,,,,17.0,
B,L,"[3, 2]",1.0,1.0,0.2730848789215088,2.2894718647003174,0.4046693839684037,,109.0
B,L,"[3, 1]",1.0,2.0,0.19675493240356445,1.5491218566894531,0.353864000691298,18.0,110.0
B,L,"[3, 0]",0.0,2.0,0.16378211975097656,1.6744279861450195,0.5115357531901823,18.0,111.0
B,L,"[3, 0]",0.0,2.0,0.18118691444396973,1.4828999042510986,0.311425321485909,18.0,112.0
B,L,"[3, 0]",0.0,2.0,0.18291187286376953,1.6759929656982422,0.5037864190736973,18.0,113.0
B,L,"[3, 0]",0.0,2.0,0.14970898628234863,1.6875290870666504,0.5413187955710314,18.0,114.0
,,"(3, 3)",,,,,,18.0,
B,L,"[3, 2]",1.0,1.0,0.21944594383239746,2.9813730716705322,0.6726069746126064,,115.0
B,L,"[3, 1]",1.0,2.0,0.1522209644317627,1.510957956314087,0.3505685478340147,19.0,116.0
B,L,"[3, 0]",0.0,2.0,0.18582797050476074,1.8966000080108643,0.6968722754955824,19.0,117.0
B,L,"[3, 0]",0.0,2.0,0.13170599937438965,1.6650068759918213,0.5285946036840726,19.0,118.0
B,L,"[3, 0]",0.0,2.0,0.20168304443359375,1.7661468982696533,0.5781604296034341,19.0,119.0
B,L,"[3, 0]",0.0,2.0,0.13717889785766602,1.41383695602417,0.2757621507185036,19.0,120.0
,,"(3, 3)",,,,,,19.0,
B,L,"[3, 2]",1.0,1.0,0.2171170711517334,2.8084559440612793,0.5505697078438501,,121.0
B,L,"[3, 1]",1.0,2.0,0.18479585647583008,1.9173979759216309,0.717776164220238,20.0,122.0
R,U,"[2, 1]",-1.0,2.0,0.09738993644714355,5.880285978317261,0.6483307960259082,20.0,123.0
R,U,"[1, 1]",-1.0,1.0,0.21219396591186523,1.9675350189208984,0.7490961064222794,20.0,124.0
B,L,"[1, 0]",0.0,1.0,0.29244494438171387,1.6494200229644775,0.34891021748453055,20.0,125.0
B,L,"[1, 0]",0.0,1.0,0.2604711055755615,1.5358328819274902,0.2683000111808636,20.0,126.0
,,"(3, 3)",,,,,,20.0,
B,L,"[3, 2]",1.0,1.0,0.23581790924072266,2.83627986907959,0.43776888822913523,,127.0
B,L,"[3, 1]",1.0,2.0,0.20696401596069336,1.5815908908843994,0.3693717408103589,21.0,128.0
G,D,"[4, 1]",-1.0,1.0,0.24581384658813477,2.004464864730835,0.7402697836961445,21.0,129.0
B,L,"[4, 0]",0.0,1.0,0.16771411895751953,1.806161880493164,0.6299048610973212,21.0,130.0
B,L,"[4, 0]",0.0,1.0,0.1873469352722168,1.8312740325927734,0.6277723989963335,21.0,131.0
B,L,"[4, 0]",0.0,1.0,0.16606807708740234,1.84114408493042,0.6853459087367113,21.0,132.0
,,"(3, 3)",,,,,,21.0,
B,L,"[3, 2]",1.0,1.0,0.28534483909606934,2.0142080783843994,0.3503792031381123,,133.0
B,L,"[3, 1]",1.0,2.0,0.18117904663085938,1.5666379928588867,0.38342098780799566,22.0,134.0
Y,R,"[3, 2]",0.0,2.0,0.21162199974060059,1.8149218559265137,0.5981311887723438,22.0,135.0
B,L,"[3, 1]",0.0,2.0,0.19578313827514648,1.687648057937622,0.48607580887575613,22.0,136.0
B,L,"[3, 0]",0.0,2.0,0.19354486465454102,1.907573938369751,0.7099544596915508,22.0,137.0
B,L,"[3, 0]",0.0,2.0,0.1855769157409668,1.7849671840667725,0.6117669249889889,22.0,138.0
,,"(3, 3)",,,,,,22.0,
B,L,"[3, 2]",1.0,1.0,0.6032910346984863,3.3138890266418457,0.6759631206987129,,139.0
B,L,"[3, 1]",1.0,2.0,0.16591787338256836,1.8360259532928467,0.6782841707458215,23.0,140.0
Y,R,"[3, 2]",0.0,2.0,0.20479798316955566,1.616225004196167,0.41150610908227975,23.0,141.0
Y,R,"[3, 3]",0.0,2.0,0.21630215644836426,1.817065954208374,0.611751866194638,23.0,142.0
Y,R,"[3, 4]",-1.0,1.0,0.3432300090789795,1.9026398658752441,0.5644036708748299,23.0,143.0
B,L,"[3, 3]",0.0,1.0,0.39159607887268066,2.0498387813568115,0.6476837488563545,23.0,144.0
,,"(3, 3)",,,,,,23.0,
B,L,"[3, 2]",-2.0,0.0,1.3928611278533936,3.277207851409912,0.25861170502211567,,145.0
B,L,"[3, 1]",1.0,1.0,0.25227999687194824,1.5762670040130615,0.317968303783408,24.0,146.0
Y,R,"[3, 2]",0.0,1.0,0.3428771495819092,2.019345998764038,0.6708251361229016,24.0,147.0
B,L,"[3, 1]",0.0,1.0,0.2672920227050781,1.7806949615478516,0.5181096091562092,24.0,148.0
B,L,"[3, 0]",0.0,1.0,0.1833939552307129,1.6779558658599854,0.49615243271015325,24.0,149.0
B,L,"[3, 0]",0.0,1.0,0.1447451114654541,1.605898141860962,0.45199702300273265,24.0,150.0
,,"(3, 3)",,,,,,24.0,
B,L,"[3, 2]",1.0,1.0,0.3182718753814697,2.455515146255493,0.7242489984108085,,151.0
B,L,"[3, 1]",1.0,2.0,0.17114591598510742,1.6455368995666504,0.4697748659795715,25.0,152.0
Y,R,"[3, 2]",0.0,2.0,0.19723105430603027,1.6475470066070557,0.45078316182444855,25.0,153.0
G,D,"[4, 2]",-1.0,1.0,0.2749340534210205,1.895442008972168,0.6128277071793355,25.0,154.0
B,L,"[4, 1]",-1.0,0.0,0.16499900817871094,1.689743995666504,0.5192246292174365,25.0,155.0
B,L,"[4, 0]",-1.0,0.0,0.08295702934265137,5.464117050170898,0.25048006261621164,25.0,156.0
,,"(3, 3)",,,,,,25.0,
B,L,"[3, 2]",1.0,1.0,0.21758389472961426,3.3436079025268555,0.6103934182447885,,157.0
B,L,"[3, 1]",1.0,2.0,0.15921711921691895,1.6234891414642334,0.46732925259886837,26.0,158.0
Y,R,"[3, 2]",0.0,2.0,0.16772985458374023,1.848681926727295,0.6658914475578335,26.0,159.0
R,U,"[2, 2]",1.0,3.0,0.2101149559020996,1.8270149230957031,0.609627984337523,26.0,160.0
B,L,"[2, 1]",1.0,4.0,0.21831393241882324,1.4611821174621582,0.2543919066165924,26.0,161.0
B,L,"[2, 0]",0.0,4.0,0.3126211166381836,1.8533051013946533,0.5408627257774186,26.0,162.0
,,"(3, 3)",,,,,,26.0,
B,L,"[3, 2]",1.0,1.0,0.4064948558807373,2.4903690814971924,0.29821934361863583,,163.0
B,L,"[3, 1]",1.0,2.0,0.2069408893585205,1.4962949752807617,0.27780221952165285,27.0,164.0
Y,R,"[3, 2]",0.0,2.0,0.21860885620117188,1.5209300518035889,0.31565904374765924,27.0,165.0
R,U,"[2, 2]",1.0,3.0,0.19220781326293945,1.8750669956207275,0.6734463475619166,27.0,166.0
B,L,"[2, 1]",-1.0,3.0,0.022925138473510742,5.538050889968872,0.39532494849509986,27.0,167.0
B,L,"[2, 0]",0.0,3.0,0.18344998359680176,1.5643270015716553,0.39304973213947203,27.0,168.0
,,"(3, 3)",,,,,,27.0,
B,L,"[3, 2]",1.0,1.0,0.35180115699768066,3.2872109413146973,0.463628406534672,,169.0
B,L,"[3, 1]",1.0,2.0,0.16694998741149902,1.9074711799621582,0.7207766783085184,28.0,170.0
Y,R,"[3, 2]",0.0,2.0,0.1829681396484375,1.48573899269104,0.30698244947388015,28.0,171.0
R,U,"[2, 2]",1.0,3.0,0.1778550148010254,1.5243570804595947,0.34787611334646196,28.0,172.0
G,D,"[3, 2]",0.0,3.0,0.22846102714538574,1.6219100952148438,0.3864945742143668,28.0,173.0
B,L,"[3, 1]",0.0,3.0,0.27579617500305176,1.8883991241455078,0.6079943805080881,28.0,174.0
,,"(3, 3)",,,,,,28.0,
B,L,"[3, 2]",1.0,1.0,0.4519510269165039,2.3765571117401123,0.4681286852178261,,175.0
B,L,"[3, 1]",1.0,2.0,0.233292818069458,1.9263451099395752,0.6778448706227815,29.0,176.0
B,L,"[3, 0]",0.0,2.0,0.17215394973754883,1.7118959426879883,0.539535192079525,29.0,177.0
R,U,"[2, 0]",0.0,2.0,0.1951460838317871,1.5413339138031006,0.347859317591923,29.0,178.0
B,L,"[2, 0]",0.0,2.0,0.2122330665588379,1.5882010459899902,0.36946454921872063,29.0,179.0
B,L,"[2, 0]",0.0,2.0,0.18981409072875977,1.5601818561553955,0.3629460503161776,29.0,180.0
,,"(3, 3)",,,,,,29.0,
B,L,"[3, 2]",1.0,1.0,0.35674595832824707,3.180539846420288,0.5766347324269969,,181.0
B,L,"[3, 1]",1.0,2.0,0.19669580459594727,1.819471836090088,0.6294109202595441,30.0,182.0
Y,R,"[3, 2]",0.0,2.0,0.1888589859008789,1.5302951335906982,0.3434563967661368,30.0,183.0
R,U,"[2, 2]",1.0,3.0,0.22803306579589844,1.6533141136169434,0.42995640608394176,30.0,184.0
Y,R,"[2, 3]",-1.0,2.0,0.2331399917602539,1.7167088985443115,0.4633204037930198,30.0,185.0
B,L,"[2, 2]",0.0,2.0,0.6165709495544434,2.314589023590088,0.6944793211831557,30.0,186.0
,,"(3, 3)",,,,,,30.0,
B,L,"[3, 2]",1.0,1.0,0.308837890625,2.3929409980773926,0.7207669587395537,,187.0
B,L,"[3, 1]",1.0,2.0,0.1739039421081543,1.881852149963379,0.7026655284760202,31.0,188.0
Y,R,"[3, 2]",0.0,2.0,0.18451285362243652,1.809920072555542,0.6292475369784519,31.0,189.0
R,U,"[2, 2]",1.0,3.0,0.19991302490234375,1.6572270393371582,0.43623869134796095,31.0,190.0
R,U,"[1, 2]",1.0,4.0,0.22287607192993164,1.9315240383148193,0.7012945687974557,31.0,191.0
B,L,"[1, 1]",-1.0,3.0,0.33000898361206055,1.766045093536377,0.41769961387849563,31.0,192.0
,,"(3, 3)",,,,,,31.0,
B,L,"[3, 2]",1.0,1.0,0.31693601608276367,2.0340230464935303,0.26846871964444374,,193.0
B,L,"[3, 1]",1.0,2.0,0.20789885520935059,1.7862329483032227,0.571251592585087,32.0,194.0
Y,R,"[3, 2]",0.0,2.0,0.20740294456481934,1.563086986541748,0.3512116168514657,32.0,195.0
R,U,"[2, 2]",1.0,3.0,0.1838550567626953,1.5088200569152832,0.3100905772150805,32.0,196.0
R,U,"[1, 2]",1.0,4.0,0.18992400169372559,1.554075002670288,0.3642326934385188,32.0,197.0
R,U,"[0, 2]",0.0,4.0,0.1948561668395996,1.9184181690216064,0.7155516001247476,32.0,198.0
,,"(3, 3)",,,,,,32.0,
B,L,"[3, 2]",1.0,1.0,0.443511962890625,2.519418954849243,0.5351541237534592,,199.0
B,L,"[3, 1]",1.0,2.0,0.1887040138244629,1.5853688716888428,0.38746898334334495,33.0,200.0
Y,R,"[3, 2]",0.0,2.0,0.2088930606842041,1.9529330730438232,0.7399824646686495,33.0,201.0
R,U,"[2, 2]",1.0,3.0,0.18285107612609863,1.6753790378570557,0.48232599705010754,33.0,202.0
R,U,"[1, 2]",1.0,4.0,0.21469807624816895,1.5418148040771484,0.32434244026657694,33.0,203.0
G,D,"[2, 2]",0.0,4.0,0.21133899688720703,1.713696002960205,0.5045382921328609,33.0,204.0
,,"(3, 3)",,,,,,33.0,
B,L,"[3, 2]",1.0,1.0,0.34895896911621094,2.4286601543426514,0.25014635820661907,,205.0
B,L,"[3, 1]",1.0,2.0,0.20162010192871094,1.49043607711792,0.27390489805370144,34.0,206.0
Y,R,"[3, 2]",0.0,2.0,0.21417593955993652,1.9159190654754639,0.706109177472477,34.0,207.0
R,U,"[2, 2]",1.0,3.0,0.1858048439025879,1.5062470436096191,0.31274664179900047,34.0,208.0
R,U,"[1, 2]",1.0,4.0,0.19263195991516113,1.5247859954833984,0.3376320097275625,34.0,209.0
Y,R,"[1, 3]",1.0,5.0,0.254558801651001,1.7360358238220215,0.47357020128775484,34.0,210.0
,,"(3, 3)",,,,,,34.0,
B,L,"[3, 2]",1.0,1.0,0.43747401237487793,2.3786299228668213,0.3022270098205656,,211.0
B,L,"[3, 1]",1.0,2.0,0.21907496452331543,1.9242699146270752,0.6929664465197696,35.0,212.0
Y,R,"[3, 2]",0.0,2.0,0.1952049732208252,1.4607579708099365,0.2707242368430267,35.0,213.0
R,U,"[2, 2]",1.0,3.0,0.2197730541229248,1.905182123184204,0.6755542905377774,35.0,214.0
R,U,"[1, 2]",1.0,4.0,0.16491198539733887,1.9064481258392334,0.748625652008849,35.0,215.0
Y,R,"[1, 3]",1.0,5.0,0.16300606727600098,1.9014859199523926,0.7334450265008605,35.0,216.0
,,"(3, 3)",,,,,,35.0,
B,L,"[3, 2]",1.0,1.0,0.2827911376953125,2.3895649909973145,0.6732408098668574,,217.0
B,L,"[3, 1]",1.0,2.0,0.17601490020751953,1.5366859436035156,0.3602091577002635,36.0,218.0
Y,R,"[3, 2]",0.0,2.0,0.24060893058776855,1.8725512027740479,0.6324364956044893,36.0,219.0
R,U,"[2, 2]",1.0,3.0,0.15831708908081055,1.6437819004058838,0.476560514034555,36.0,220.0
R,U,"[1, 2]",1.0,4.0,0.1580801010131836,1.660614013671875,0.5037793981157233,36.0,221.0
Y,R,"[1, 3]",1.0,5.0,0.18824505805969238,1.7114579677581787,0.5151755510268328,36.0,222.0
,,"(3, 3)",,,,,,36.0,
B,L,"[3, 2]",1.0,1.0,0.297252893447876,3.1443629264831543,0.5257437246391916,,223.0
B,L,"[3, 1]",1.0,2.0,0.20775890350341797,1.557459831237793,0.3506340081965348,37.0,224.0
Y,R,"[3, 2]",0.0,2.0,0.2633681297302246,1.794929027557373,0.528733522246249,37.0,225.0
R,U,"[2, 2]",1.0,3.0,0.18668508529663086,1.9107630252838135,0.722655103175478,37.0,226.0
R,U,"[1, 2]",1.0,4.0,0.1790781021118164,1.7421271800994873,0.5650639096628696,37.0,227.0
Y,R,"[1, 3]",1.0,5.0,0.23613405227661133,1.6402390003204346,0.3889855884326508,37.0,228.0
,,"(3, 3)",,,,,,37.0,
B,L,"[3, 2]",1.0,1.0,0.6782898902893066,2.9908080101013184,0.6127265422124815,,229.0
B,L,"[3, 1]",1.0,2.0,0.18997597694396973,1.6279900074005127,0.4242698241634007,38.0,230.0
Y,R,"[3, 2]",0.0,2.0,0.46151089668273926,1.9147119522094727,0.45563117584964974,38.0,231.0
R,U,"[2, 2]",1.0,3.0,0.19566988945007324,1.6465671062469482,0.4522221045338754,38.0,232.0
R,U,"[1, 2]",1.0,4.0,0.31780505180358887,1.9498600959777832,0.6189605302406337,38.0,233.0
Y,R,"[1, 3]",1.0,5.0,0.21516203880310059,1.8367259502410889,0.6221404664744918,38.0,234.0
,,"(3, 3)",,,,,,38.0,
B,L,"[3, 2]",1.0,1.0,0.4595189094543457,2.4406540393829346,0.32971856905710767,,235.0
B,L,"[3, 1]",1.0,2.0,0.2146768569946289,1.6210989952087402,0.4007550137080948,39.0,236.0
R,U,"[2, 1]",1.0,3.0,0.26222896575927734,1.8434579372406006,0.5773746227828976,39.0,237.0
R,U,"[1, 1]",-1.0,2.0,0.25496697425842285,1.890962839126587,0.6350779441288865,39.0,238.0
B,L,"[1, 0]",0.0,2.0,0.2218329906463623,1.8055980205535889,0.5740132168326146,39.0,239.0
B,L,"[1, 0]",0.0,2.0,0.2091388702392578,1.864042043685913,0.6546650350777692,39.0,240.0
,,"(3, 3)",,,,,,39.0,
B,L,"[3, 2]",1.0,1.0,0.3132040500640869,2.1738221645355225,0.41210684668029784,,241.0
B,L,"[3, 1]",1.0,2.0,0.19916391372680664,1.8461050987243652,0.6414271064304666,40.0,242.0
R,U,"[2, 1]",1.0,3.0,0.1799609661102295,1.4370958805084229,0.26217381715202126,40.0,243.0
B,L,"[2, 0]",0.0,3.0,0.35455799102783203,1.6537010669708252,0.29922233707999907,40.0,244.0
B,L,"[2, 0]",0.0,3.0,0.22099900245666504,1.8929438591003418,0.658532886056644,40.0,245.0
B,L,"[2, 0]",0.0,3.0,0.18659400939941406,1.922196865081787,0.7473621491489446,40.0,246.0
,,"(3, 3)",,,,,,40.0,
B,L,"[3, 2]",1.0,1.0,0.32500505447387695,2.21736478805542,0.6152594178228534,,247.0
B,L,"[3, 1]",1.0,2.0,0.1756730079650879,1.6998889446258545,0.5149300303182438,41.0,248.0
R,U,"[2, 1]",1.0,3.0,0.18398118019104004,1.6393060684204102,0.4375604516210246,41.0,249.0
R,U,"[1, 1]",-1.0,2.0,0.18350982666015625,1.7471330165863037,0.5514174385159594,41.0,250.0
B,L,"[1, 0]",-1.0,2.0,0.04036688804626465,5.696275949478149,0.5310578159249058,41.0,251.0
B,L,"[1, 0]",0.0,2.0,0.1747589111328125,1.6811540126800537,0.4954577713326222,41.0,252.0
,,"(3, 3)",,,,,,41.0,
B,L,"[3, 2]",1.0,1.0,0.2801229953765869,2.766185998916626,0.27864246766421197,,253.0
B,L,"[3, 1]",1.0,2.0,0.212568998336792,1.4655659198760986,0.2610355309906654,42.0,254.0
R,U,"[2, 1]",1.0,3.0,0.34397006034851074,1.9456701278686523,0.6062655074665719,42.0,255.0
G,D,"[3, 1]",0.0,3.0,0.21106696128845215,1.5311639308929443,0.3211196261538954,42.0,256.0
B,L,"[3, 0]",0.0,3.0,0.20691990852355957,1.907848834991455,0.6952893978040022,42.0,257.0
B,L,"[3, 0]",0.0,3.0,0.20180296897888184,1.6174979209899902,0.4297402553461863,42.0,258.0
,,"(3, 3)",,,,,,42.0,
B,L,"[3, 2]",1.0,1.0,0.5631999969482422,2.783980131149292,0.6635554556845658,,259.0
B,L,"[3, 1]",1.0,2.0,0.190565824508667,1.599524974822998,0.3967648274195548,43.0,260.0
R,U,"[2, 1]",1.0,3.0,0.28732895851135254,1.84446120262146,0.5409074641421299,43.0,261.0
Y,R,"[2, 2]",1.0,4.0,0.8572790622711182,2.228127956390381,0.36943614684376586,43.0,262.0
R,U,"[1, 2]",1.0,5.0,0.4798099994659424,2.004589080810547,0.5238466938820112,43.0,263.0
R,U,"[0, 2]",0.0,5.0,0.41887998580932617,1.9032330513000488,0.47709106883516134,43.0,264.0
,,"(3, 3)",,,,,,43.0,
B,L,"[3, 2]",1.0,1.0,0.41532397270202637,2.325916051864624,0.5527540161862037,,265.0
B,L,"[3, 1]",1.0,2.0,0.17767596244812012,1.6558499336242676,0.4756405662117174,44.0,266.0
R,U,"[2, 1]",1.0,3.0,0.23873400688171387,1.8238520622253418,0.5828592226555596,44.0,267.0
Y,R,"[2, 2]",1.0,4.0,0.22140288352966309,1.5109360218048096,0.27740322508632737,44.0,268.0
B,L,"[2, 1]",0.0,4.0,0.5865139961242676,2.28139591217041,0.6917548256700634,44.0,269.0
B,L,"[2, 0]",0.0,4.0,0.5072510242462158,2.0090038776397705,0.5009743253232615,44.0,270.0
,,"(3, 3)",,,,,,44.0,
B,L,"[3, 2]",1.0,1.0,0.33159899711608887,1.9840278625488281,0.26841915973443675,,271.0
B,L,"[3, 1]",1.0,2.0,0.19739794731140137,1.4712941646575928,0.27319925695198566,45.0,272.0
R,U,"[2, 1]",1.0,3.0,0.32888078689575195,1.737483024597168,0.41056538652322727,45.0,273.0
Y,R,"[2, 2]",1.0,4.0,0.19387412071228027,1.473729133605957,0.28453732467589316,45.0,274.0
R,U,"[1, 2]",1.0,5.0,0.23720097541809082,1.6595079898834229,0.41051131960230874,45.0,275.0
Y,R,"[1, 3]",1.0,6.0,0.20924806594848633,1.596848964691162,0.3907388589474885,45.0,276.0
,,"(3, 3)",,,,,,45.0,
B,L,"[3, 2]",1.0,1.0,0.2897050380706787,3.0106160640716553,0.2848235688439323,,277.0
B,L,"[3, 1]",1.0,2.0,0.22177600860595703,1.6922669410705566,0.46030440893855334,46.0,278.0
R,U,"[2, 1]",1.0,3.0,0.2284691333770752,1.8945770263671875,0.6713483811006289,46.0,279.0
Y,R,"[2, 2]",1.0,4.0,0.20350289344787598,1.9322941303253174,0.7205867638097174,46.0,280.0
R,U,"[1, 2]",1.0,5.0,0.18124103546142578,1.8522179126739502,0.6726776413474207,46.0,281.0
Y,R,"[1, 3]",1.0,6.0,0.2143101692199707,1.5026819705963135,0.29235269633975497,46.0,282.0
,,"(3, 3)",,,,,,46.0,
B,L,"[3, 2]",1.0,1.0,0.3472151756286621,2.567647933959961,0.5431765518091922,,283.0
B,L,"[3, 1]",1.0,2.0,0.21895718574523926,1.7231669425964355,0.49980972844806154,47.0,284.0
R,U,"[2, 1]",1.0,3.0,0.21547889709472656,1.5599000453948975,0.3265541802125099,47.0,285.0
Y,R,"[2, 2]",1.0,4.0,0.21451520919799805,1.9083762168884277,0.7012536065586951,47.0,286.0
Y,R,"[2, 3]",-1.0,3.0,0.19293808937072754,1.6345188617706299,0.43605356249403393,47.0,287.0
Y,R,"[2, 4]",-1.0,2.0,0.19571590423583984,1.6923408508300781,0.4950486431670911,47.0,288.0
,,"(3, 3)",,,,,,47.0,
B,L,"[3, 2]",1.0,1.0,0.2996549606323242,1.9976170063018799,0.2597330867372707,,289.0
B,L,"[3, 1]",1.0,2.0,0.25950193405151367,1.7570788860321045,0.49964807244681364,48.0,290.0
R,U,"[2, 1]",1.0,3.0,0.27192091941833496,2.0191919803619385,0.735282505686236,48.0,291.0
Y,R,"[2, 2]",1.0,4.0,0.20439600944519043,1.6766440868377686,0.4622286595112803,48.0,292.0
R,U,"[1, 2]",1.0,5.0,0.25484514236450195,1.907776117324829,0.6532969419570671,48.0,293.0
Y,R,"[1, 3]",1.0,6.0,0.18214893341064453,1.7179019451141357,0.5213097513313724,48.0,294.0
,,"(3, 3)",,,,,,48.0,
B,L,"[3, 2]",1.0,1.0,0.5787971019744873,2.7527198791503906,0.707379896565695,,295.0
B,L,"[3, 1]",1.0,2.0,0.197767972946167,1.7024641036987305,0.5099055815743934,49.0,296.0
R,U,"[2, 1]",1.0,3.0,0.21555495262145996,1.798509120941162,0.5916258246389801,49.0,297.0
Y,R,"[2, 2]",1.0,4.0,0.17481017112731934,1.5576889514923096,0.3830056813336588,49.0,298.0
R,U,"[1, 2]",1.0,5.0,0.21703886985778809,1.7403619289398193,0.5065442454372053,49.0,299.0
Y,R,"[1, 3]",1.0,6.0,0.22071099281311035,1.9443621635437012,0.7173599853826775,49.0,300.0
,,"(3, 3)",,,,,,49.0,
B,L,"[3, 2]",1.0,1.0,0.39419102668762207,2.152282953262329,0.4366097776296108,,301.0
B,L,"[3, 1]",1.0,2.0,0.22695708274841309,1.5404281616210938,0.31064643877048714,50.0,302.0
R,U,"[2, 1]",1.0,3.0,0.27963995933532715,1.6662209033966064,0.3933330037781705,50.0,303.0
Y,R,"[2, 2]",1.0,4.0,0.31396484375,1.7789149284362793,0.47251143336998375,50.0,304.0
R,U,"[1, 2]",1.0,5.0,0.1996619701385498,1.934122085571289,0.7395665306032282,50.0,305.0
Y,R,"[1, 3]",1.0,6.0,0.1935749053955078,1.7095952033996582,0.5159937465851879,50.0,306.0
,,"(3, 3)",,,,,,50.0,
B,L,"[3, 2]",1.0,1.0,0.5305509567260742,2.6583750247955322,0.5908531859438722,,307.0
B,L,"[3, 1]",1.0,2.0,0.1901259422302246,1.9129159450531006,0.7205242745455838,51.0,308.0
R,U,"[2, 1]",1.0,3.0,0.20461487770080566,1.8587908744812012,0.6460035945491743,51.0,309.0
Y,R,"[2, 2]",1.0,4.0,0.21715497970581055,1.6721670627593994,0.43500928169544273,51.0,310.0
R,U,"[1, 2]",1.0,5.0,0.2213277816772461,1.6584360599517822,0.4269238445749407,51.0,311.0
Y,R,"[1, 3]",1.0,6.0,0.2570981979370117,1.7910149097442627,0.5344707685578365,51.0,312.0
,,"(3, 3)",,,,,,51.0,
B,L,"[3, 2]",1.0,1.0,0.6007280349731445,2.927910089492798,0.7457133922295736,,313.0
B,L,"[3, 1]",1.0,2.0,0.1769578456878662,1.5054779052734375,0.3346516585810592,52.0,314.0
R,U,"[2, 1]",1.0,3.0,0.2760138511657715,1.9920599460601807,0.7098520525197677,52.0,315.0
Y,R,"[2, 2]",1.0,4.0,0.22096896171569824,1.6243810653686523,0.4012148340521846,52.0,316.0
R,U,"[1, 2]",1.0,5.0,0.2044849395751953,1.6304240226745605,0.415343330670311,52.0,317.0
Y,R,"[1, 3]",1.0,6.0,0.22019410133361816,1.836411952972412,0.6014302676410246,52.0,318.0
,,"(3, 3)",,,,,,52.0,
B,L,"[3, 2]",1.0,1.0,0.33952999114990234,2.424968957901001,0.6596969785177007,,319.0
B,L,"[3, 1]",1.0,2.0,0.22535490989685059,1.7998898029327393,0.5763625327596025,53.0,320.0
R,U,"[2, 1]",1.0,3.0,0.19269084930419922,1.6301488876342773,0.4399194090337902,53.0,321.0
Y,R,"[2, 2]",1.0,4.0,0.2241349220275879,1.4952080249786377,0.26856346038160533,53.0,322.0
R,U,"[1, 2]",1.0,5.0,0.28236889839172363,1.7047419548034668,0.40660142370890245,53.0,323.0
Y,R,"[1, 3]",1.0,6.0,0.26326918601989746,1.9937801361083984,0.7335118787029663,53.0,324.0
,,"(3, 3)",,,,,,53.0,
B,L,"[3, 2]",1.0,1.0,0.2817530632019043,2.4516940116882324,0.7349909570889438,,325.0
B,L,"[3, 1]",1.0,2.0,0.1937549114227295,1.4730989933013916,0.27543292907844086,54.0,326.0
R,U,"[2, 1]",1.0,3.0,0.3079049587249756,1.8927600383758545,0.5846131324211442,54.0,327.0
Y,R,"[2, 2]",1.0,4.0,0.26175999641418457,1.5351488590240479,0.27005567898559985,54.0,328.0
R,U,"[1, 2]",1.0,5.0,0.23754286766052246,1.5009050369262695,0.25430811730214015,54.0,329.0
Y,R,"[1, 3]",1.0,6.0,0.40903186798095703,1.741523027420044,0.32924038689434354,54.0,330.0
,,"(3, 3)",,,,,,54.0,
B,L,"[3, 2]",1.0,1.0,0.2661318778991699,2.5933339595794678,0.6556332723609045,,331.0
B,L,"[3, 1]",1.0,2.0,0.20330405235290527,1.5185139179229736,0.30777401196469956,55.0,332.0
R,U,"[2, 1]",1.0,3.0,0.21474719047546387,1.6390750408172607,0.430122164375967,55.0,333.0
Y,R,"[2, 2]",1.0,4.0,0.2128150463104248,1.6307117938995361,0.4107675137433664,55.0,334.0
R,U,"[1, 2]",1.0,5.0,0.20252180099487305,1.6885628700256348,0.4992596319392316,55.0,335.0
Y,R,"[1, 3]",1.0,6.0,0.192216157913208,1.8175668716430664,0.6166959261177536,55.0,336.0
,,"(3, 3)",,,,,,55.0,
B,L,"[3, 2]",1.0,1.0,0.32694387435913086,2.662479877471924,0.3629883797792939,,337.0
B,L,"[3, 1]",1.0,2.0,0.20705795288085938,1.8463871479034424,0.6257138711732773,56.0,338.0
R,U,"[2, 1]",1.0,3.0,0.1729879379272461,1.4966559410095215,0.3227759298380094,56.0,339.0
Y,R,"[2, 2]",1.0,4.0,0.256166934967041,1.5142099857330322,0.25365835953156773,56.0,340.0
R,U,"[1, 2]",1.0,5.0,0.2244558334350586,1.7066330909729004,0.47673042478393857,56.0,341.0
Y,R,"[1, 3]",1.0,6.0,0.17042803764343262,1.5948541164398193,0.4217065663740953,56.0,342.0
,,"(3, 3)",,,,,,56.0,
B,L,"[3, 2]",1.0,1.0,0.2640810012817383,2.3266091346740723,0.6149112503903461,,343.0
B,L,"[3, 1]",1.0,2.0,0.21603989601135254,1.7252140045166016,0.4901701918662501,57.0,344.0
R,U,"[2, 1]",1.0,3.0,0.21147990226745605,1.556251049041748,0.34675737340897606,57.0,345.0
Y,R,"[2, 2]",1.0,4.0,0.19783806800842285,1.8886079788208008,0.6849213600315448,57.0,346.0
R,U,"[1, 2]",1.0,5.0,0.1966559886932373,1.8469278812408447,0.6486683661240662,57.0,347.0
Y,R,"[1, 3]",1.0,6.0,0.3806118965148926,1.786167860031128,0.40159384702904455,57.0,348.0
,,"(3, 3)",,,,,,57.0,
B,L,"[3, 2]",1.0,1.0,0.2438678741455078,1.9808030128479004,0.29940840026325943,,349.0
B,L,"[3, 1]",1.0,2.0,0.24628400802612305,1.6465609073638916,0.3958996277983779,58.0,350.0
R,U,"[2, 1]",1.0,3.0,0.2517991065979004,1.5718019008636475,0.3343287834545295,58.0,351.0
Y,R,"[2, 2]",1.0,4.0,0.23049211502075195,1.623913049697876,0.39159610738591083,58.0,352.0
R,U,"[1, 2]",1.0,5.0,0.2471940517425537,1.7696149349212646,0.5277117345799869,58.0,353.0
Y,R,"[1, 3]",1.0,6.0,0.18743610382080078,1.4652740955352783,0.2765793928186651,58.0,354.0
,,"(3, 3)",,,,,,58.0,
B,L,"[3, 2]",1.0,1.0,0.2068181037902832,2.0995960235595703,0.3428049584674744,,355.0
B,L,"[3, 1]",1.0,2.0,0.2278149127960205,1.5932559967041016,0.3693065474910791,59.0,356.0
R,U,"[2, 1]",1.0,3.0,0.18211603164672852,1.7518048286437988,0.5711807248440564,59.0,357.0
Y,R,"[2, 2]",1.0,4.0,0.18108582496643066,1.5644569396972656,0.3857003974032408,59.0,358.0
R,U,"[1, 2]",1.0,5.0,0.20045995712280273,1.7232959270477295,0.5090320356609328,59.0,359.0
Y,R,"[1, 3]",1.0,6.0,0.19481897354125977,1.8628859519958496,0.6717791292655815,59.0,360.0
,,"(3, 3)",,,,,,59.0,
B,L,"[3, 2]",1.0,1.0,0.23753690719604492,2.015216112136841,0.420420567218178,,361.0
B,L,"[3, 1]",1.0,2.0,0.20344281196594238,1.666079044342041,0.4532605430803942,60.0,362.0
R,U,"[2, 1]",1.0,3.0,0.1800391674041748,1.7028729915618896,0.5227113446675222,60.0,363.0
Y,R,"[2, 2]",1.0,4.0,0.18924617767333984,1.44887113571167,0.2550835872202886,60.0,364.0
R,U,"[1, 2]",1.0,5.0,0.2644519805908203,1.6151869297027588,0.3537679511156611,60.0,365.0
Y,R,"[1, 3]",1.0,6.0,0.23350214958190918,1.5081541538238525,0.2620863959489262,60.0,366.0
,,"(3, 3)",,,,,,60.0,
B,L,"[3, 2]",1.0,1.0,0.32068896293640137,2.413877010345459,0.4924094198096284,,367.0
B,L,"[3, 1]",1.0,2.0,0.1697390079498291,1.8365700244903564,0.6620521687455774,61.0,368.0
R,U,"[2, 1]",1.0,3.0,0.17560577392578125,1.7517731189727783,0.5807211103963028,61.0,369.0
Y,R,"[2, 2]",1.0,4.0,0.21812987327575684,1.5069401264190674,0.2712750110504145,61.0,370.0
R,U,"[1, 2]",1.0,5.0,0.2841620445251465,1.8493900299072266,0.5537735184912519,61.0,371.0
Y,R,"[1, 3]",1.0,6.0,0.21502184867858887,1.809520959854126,0.5965041550209036,61.0,372.0
,,"(3, 3)",,,,,,61.0,
B,L,"[3, 2]",1.0,1.0,0.29554009437561035,3.113968849182129,0.4108119653954285,,373.0
B,L,"[3, 1]",1.0,2.0,0.22154784202575684,1.514319896697998,0.2919498310473947,62.0,374.0
R,U,"[2, 1]",1.0,3.0,0.24915599822998047,1.5428459644317627,0.2680347575805455,62.0,375.0
Y,R,"[2, 2]",1.0,4.0,0.4419429302215576,1.8454949855804443,0.396734671481664,62.0,376.0
R,U,"[1, 2]",1.0,5.0,0.33709096908569336,2.0733449459075928,0.7199037576093029,62.0,377.0
Y,R,"[1, 3]",1.0,6.0,0.19686388969421387,1.8178961277008057,0.6212118542323586,62.0,378.0
,,"(3, 3)",,,,,,62.0,
B,L,"[3, 2]",1.0,1.0,0.27211999893188477,2.3328909873962402,0.6708108298508151,,379.0
B,L,"[3, 1]",1.0,2.0,0.2025148868560791,1.5307869911193848,0.3185032207033113,63.0,380.0
R,U,"[2, 1]",1.0,3.0,0.32427096366882324,1.7714130878448486,0.4400253226867273,63.0,381.0
Y,R,"[2, 2]",1.0,4.0,0.20581293106079102,1.6516671180725098,0.4416261212314635,63.0,382.0
R,U,"[1, 2]",1.0,5.0,0.18672394752502441,1.712386131286621,0.520708461991587,63.0,383.0
Y,R,"[1, 3]",1.0,6.0,0.21809792518615723,1.5578620433807373,0.34533797919559345,63.0,384.0
,,"(3, 3)",,,,,,63.0,
B,L,"[3, 2]",1.0,1.0,0.2686431407928467,2.142327070236206,0.4543750837960248,,385.0
B,L,"[3, 1]",1.0,2.0,0.1965339183807373,1.8677821159362793,0.6719597697634894,64.0,386.0
R,U,"[2, 1]",1.0,3.0,0.17281889915466309,1.5990710258483887,0.42111817011002356,64.0,387.0
Y,R,"[2, 2]",1.0,4.0,0.2167201042175293,1.9287011623382568,0.6997930306766904,64.0,388.0
R,U,"[1, 2]",1.0,5.0,0.16965389251708984,1.5752358436584473,0.3919038989432412,64.0,389.0
Y,R,"[1, 3]",1.0,6.0,0.2529170513153076,1.7166180610656738,0.45850053521533585,64.0,390.0
,,"(3, 3)",,,,,,64.0,
B,L,"[3, 2]",1.0,1.0,0.19662785530090332,2.3270609378814697,0.6690002070412653,,391.0
B,L,"[3, 1]",1.0,2.0,0.20296216011047363,1.9282851219177246,0.7137100644814343,65.0,392.0
R,U,"[2, 1]",1.0,3.0,0.19562888145446777,1.5747320652008057,0.372084066322305,65.0,393.0
Y,R,"[2, 2]",1.0,4.0,0.26503610610961914,1.6022191047668457,0.34099413534211415,65.0,394.0
R,U,"[1, 2]",1.0,5.0,0.37723398208618164,1.6752851009368896,0.29981031084382004,65.0,395.0
Y,R,"[1, 3]",1.0,6.0,0.34588098526000977,1.6725480556488037,0.32233751845517544,65.0,396.0
,,"(3, 3)",,,,,,65.0,
B,L,"[3, 2]",1.0,1.0,0.2400369644165039,2.4577760696411133,0.5797577725611888,,397.0
B,L,"[3, 1]",1.0,2.0,0.15540695190429688,1.5518131256103516,0.38192930632248845,66.0,398.0
R,U,"[2, 1]",1.0,3.0,0.2037198543548584,1.8147609233856201,0.5963572122725027,66.0,399.0
Y,R,"[2, 2]",1.0,4.0,0.18927502632141113,1.4577879905700684,0.25470793688971477,66.0,400.0
R,U,"[1, 2]",1.0,5.0,0.29305005073547363,1.5601389408111572,0.264698719131901,66.0,401.0
Y,R,"[1, 3]",1.0,6.0,0.23566699028015137,1.602180004119873,0.3502573596817389,66.0,402.0
,,"(3, 3)",,,,,,66.0,
B,L,"[3, 2]",-1.0,-1.0,0.20071196556091309,2.4406418800354004,0.6572536582600812,,403.0
B,L,"[3, 1]",1.0,0.0,0.7254412174224854,2.2726938724517822,0.5466692119926478,67.0,404.0
R,U,"[2, 1]",-1.0,-1.0,0.18427491188049316,1.831432819366455,0.6280964934811741,67.0,405.0
Y,R,"[2, 2]",-1.0,-2.0,0.2904689311981201,1.8171160221099854,0.528690048747352,67.0,406.0
B,L,"[2, 1]",-1.0,-3.0,0.25481200218200684,1.558967113494873,0.30455866034330886,67.0,407.0
B,L,"[2, 0]",0.0,-3.0,0.5543248653411865,2.279736042022705,0.7339127818080672,67.0,408.0
,,"(3, 3)",,,,,,67.0,
R,U,"[2, 3]",-1.0,-1.0,0.49723100662231445,2.3536770343780518,0.27143549255516536,,409.0
G,D,"[3, 3]",-2.0,-3.0,0.7590599060058594,2.2657840251922607,0.5037502278340832,68.0,410.0
B,L,"[3, 2]",-1.0,-4.0,0.23850107192993164,1.8618922233581543,0.6154444785436376,68.0,411.0
Y,R,"[3, 3]",-2.0,-6.0,0.1698460578918457,1.4975121021270752,0.313345831819664,68.0,412.0
R,U,"[2, 3]",-1.0,-7.0,0.5099318027496338,2.1339409351348877,0.6137384166382699,68.0,413.0
G,D,"[3, 3]",-1.0,-7.0,0.08478188514709473,5.703845977783203,0.48451414969218576,68.0,414.0
,,"(3, 3)",,,,,,68.0,
G,D,"[4, 3]",1.0,1.0,0.48809003829956055,3.4417591094970703,0.6760558554542355,,415.0
B,L,"[4, 2]",1.0,2.0,0.2545928955078125,1.7483599185943604,0.5078452416786858,69.0,416.0
G,D,"[5, 2]",1.0,3.0,0.239638090133667,1.8923301696777344,0.6668715066805706,69.0,417.0
B,L,"[5, 1]",-1.0,2.0,0.2887570858001709,1.8518400192260742,0.5520730222185433,69.0,418.0
G,D,"[6, 1]",0.0,2.0,0.23106694221496582,1.7450370788574219,0.5139093339425977,69.0,419.0
G,D,"[6, 1]",0.0,2.0,0.19994115829467773,1.7514801025390625,0.5487164676125637,69.0,420.0
,,"(3, 3)",,,,,,69.0,
G,D,"[4, 3]",1.0,1.0,0.4525599479675293,2.215928077697754,0.3314988537960797,,421.0
B,L,"[4, 2]",1.0,2.0,0.21229219436645508,1.5932528972625732,0.3747746243718137,70.0,422.0
G,D,"[5, 2]",1.0,3.0,0.21922016143798828,1.5900518894195557,0.36479652465025975,70.0,423.0
R,U,"[4, 2]",1.0,4.0,0.19248700141906738,1.9503459930419922,0.7482253125846536,70.0,424.0
Y,R,"[4, 3]",1.0,5.0,0.24612998962402344,1.9259240627288818,0.674129897359744,70.0,425.0
B,L,"[4, 2]",1.0,6.0,0.21295404434204102,1.6803641319274902,0.47137594673644345,70.0,426.0
,,"(3, 3)",,,,,,70.0,
G,D,"[4, 3]",1.0,1.0,0.555027961730957,2.7331089973449707,0.5878111077429732,,427.0
B,L,"[4, 2]",1.0,2.0,0.20699596405029297,1.6246531009674072,0.41276865484614333,71.0,428.0
G,D,"[5, 2]",1.0,3.0,0.35571813583374023,1.6818110942840576,0.32791656583539225,71.0,429.0
R,U,"[4, 2]",1.0,4.0,0.20210504531860352,1.6615049839019775,0.45594115240149324,71.0,430.0
Y,R,"[4, 3]",1.0,5.0,0.2437288761138916,1.5157928466796875,0.2719818079576874,71.0,431.0
B,L,"[4, 2]",1.0,6.0,0.3238539695739746,1.908027172088623,0.5800854493110332,71.0,432.0
,,"(3, 3)",,,,,,71.0,
G,D,"[4, 3]",1.0,1.0,0.5536041259765625,2.451153039932251,0.26469503943972994,,433.0
B,L,"[4, 2]",1.0,2.0,0.20329499244689941,1.8723561763763428,0.6533129446229639,72.0,434.0
G,D,"[5, 2]",1.0,3.0,0.16788721084594727,1.51065993309021,0.33091096377555046,72.0,435.0
R,U,"[4, 2]",1.0,4.0,0.16129589080810547,1.68806791305542,0.5188482988673363,72.0,436.0
Y,R,"[4, 3]",1.0,5.0,0.23019814491271973,1.9368841648101807,0.7055681863897351,72.0,437.0
B,L,"[4, 2]",1.0,6.0,0.219635009765625,1.777806043624878,0.5501958683278896,72.0,438.0
,,"(3, 3)",,,,,,72.0,
G,D,"[4, 3]",1.0,1.0,0.480698823928833,2.6139800548553467,0.6640125682852833,,439.0
B,L,"[4, 2]",1.0,2.0,0.18674302101135254,1.846864938735962,0.6610433103381205,73.0,440.0
G,D,"[5, 2]",1.0,3.0,0.21041011810302734,1.7865681648254395,0.5810486220575934,73.0,441.0
R,U,"[4, 2]",1.0,4.0,0.17286396026611328,1.8076140880584717,0.6219635917299672,73.0,442.0
Y,R,"[4, 3]",1.0,5.0,0.21788501739501953,1.8407011032104492,0.6127169232611098,73.0,443.0
B,L,"[4, 2]",1.0,6.0,0.2507059574127197,1.7871510982513428,0.5167267698678735,73.0,444.0
,,"(3, 3)",,,,,,73.0,
G,D,"[4, 3]",1.0,1.0,0.9347062110900879,2.78405499458313,0.3010432404822464,,445.0
B,L,"[4, 2]",1.0,2.0,0.351269006729126,1.6234400272369385,0.2578172936272179,74.0,446.0
G,D,"[5, 2]",1.0,3.0,0.20197296142578125,1.7438061237335205,0.5346173656142825,74.0,447.0
R,U,"[4, 2]",1.0,4.0,0.21307086944580078,1.5537919998168945,0.3386516344786354,74.0,448.0
Y,R,"[4, 3]",1.0,5.0,0.24880504608154297,1.518158197402954,0.2737319894797555,74.0,449.0
B,L,"[4, 2]",1.0,6.0,0.38898301124572754,1.8972158432006836,0.5039340982714603,74.0,450.0
,,"(3, 3)",,,,,,74.0,
G,D,"[4, 3]",1.0,1.0,0.47689199447631836,2.349557876586914,0.43694978326689154,,451.0
B,L,"[4, 2]",1.0,2.0,0.25524306297302246,1.8435988426208496,0.5803997674737442,75.0,452.0
G,D,"[5, 2]",1.0,3.0,0.20771408081054688,1.5810010433197021,0.36158428402487935,75.0,453.0
R,U,"[4, 2]",1.0,4.0,0.25074100494384766,1.7815890312194824,0.5264552642791497,75.0,454.0
Y,R,"[4, 3]",1.0,5.0,0.21435809135437012,1.4838881492614746,0.2773441919461196,75.0,455.0
B,L,"[4, 2]",1.0,6.0,0.39002513885498047,1.8941199779510498,0.5043239342324203,75.0,456.0
,,"(3, 3)",,,,,,75.0,
G,D,"[4, 3]",1.0,1.0,0.41192197799682617,2.302830219268799,0.424199823692428,,457.0
B,L,"[4, 2]",1.0,2.0,0.276216983795166,1.8628909587860107,0.5869488197695079,76.0,458.0
G,D,"[5, 2]",1.0,3.0,0.22799921035766602,1.7705919742584229,0.5408618233961775,76.0,459.0
R,U,"[4, 2]",1.0,4.0,0.2103738784790039,1.5478930473327637,0.33904864572174703,76.0,460.0
Y,R,"[4, 3]",1.0,5.0,0.3169560432434082,1.7833669185638428,0.455769732795449,76.0,461.0
B,L,"[4, 2]",1.0,6.0,0.20371603965759277,1.6547369956970215,0.44384295576110266,76.0,462.0
,,"(3, 3)",,,,,,76.0,
G,D,"[4, 3]",1.0,1.0,0.48783206939697266,2.2924630641937256,0.4695128509894008,,463.0
B,L,"[4, 2]",1.0,2.0,0.14620304107666016,1.4739930629730225,0.3270776052903075,77.0,464.0
G,D,"[5, 2]",1.0,3.0,0.20122504234313965,1.8764190673828125,0.6697646483554953,77.0,465.0
R,U,"[4, 2]",1.0,4.0,0.10348200798034668,1.7958769798278809,0.6823961734520225,77.0,466.0
Y,R,"[4, 3]",1.0,5.0,0.4724559783935547,1.7612030506134033,0.27716477247500676,77.0,467.0
B,L,"[4, 2]",1.0,6.0,0.23641300201416016,1.7534868717193604,0.5139591883210187,77.0,468.0
,,"(3, 3)",,,,,,77.0,
G,D,"[4, 3]",1.0,1.0,0.4795799255371094,2.4465489387512207,0.5938323912418242,,469.0
B,L,"[4, 2]",1.0,2.0,0.18631601333618164,1.6863069534301758,0.5136548441790401,78.0,470.0
R,U,"[3, 2]",-1.0,1.0,0.18878412246704102,1.460965871810913,0.25819046251503086,78.0,471.0
Y,R,"[3, 3]",-2.0,1.0,1.2525498867034912,3.005805015563965,0.7302764789838736,78.0,472.0
G,D,"[4, 3]",1.0,2.0,0.19582295417785645,1.6397020816802979,0.4367698972348387,78.0,473.0
G,D,"[5, 3]",1.0,3.0,0.239454984664917,1.5629959106445312,0.33342879444170026,78.0,474.0
,,"(3, 3)",,,,,,78.0,
G,D,"[4, 3]",1.0,1.0,0.45147204399108887,2.605844020843506,0.4224003717581454,,475.0
B,L,"[4, 2]",1.0,2.0,0.2099449634552002,1.8112208843231201,0.600334336297484,79.0,476.0
G,D,"[5, 2]",1.0,3.0,0.16758108139038086,1.4799160957336426,0.31382115783264597,79.0,477.0
R,U,"[4, 2]",1.0,4.0,0.21506214141845703,1.5221741199493408,0.2859985887659604,79.0,478.0
Y,R,"[4, 3]",1.0,5.0,0.21960091590881348,1.892333984375,0.6614999913943516,79.0,479.0
B,L,"[4, 2]",1.0,6.0,0.16251206398010254,1.856114149093628,0.7013088977386372,79.0,480.0
,,"(3, 3)",,,,,,79.0,
G,D,"[4, 3]",1.0,1.0,0.43920111656188965,2.234426975250244,0.5020655473208113,,481.0
B,L,"[4, 2]",1.0,2.0,0.21752500534057617,1.6967051029205322,0.4655544220915372,80.0,482.0
G,D,"[5, 2]",1.0,3.0,0.19036006927490234,1.9406189918518066,0.7393157193244274,80.0,483.0
R,U,"[4, 2]",-1.0,3.0,0.0863180160522461,5.806988954544067,0.596550732868345,80.0,484.0
R,U,"[3, 2]",-1.0,2.0,0.23463082313537598,1.7208590507507324,0.46758028133565416,80.0,485.0
G,D,"[4, 2]",1.0,3.0,0.183211088180542,1.6994550228118896,0.5002349257355401,80.0,486.0
,,"(3, 3)",,,,,,80.0,
G,D,"[4, 3]",1.0,1.0,0.4778881072998047,3.2492358684539795,0.44958134368756314,,487.0
B,L,"[4, 2]",1.0,2.0,0.2124500274658203,1.5978541374206543,0.3808774033014667,81.0,488.0
G,D,"[5, 2]",1.0,3.0,0.19953584671020508,1.9072260856628418,0.704487693514416,81.0,489.0
R,U,"[4, 2]",1.0,4.0,0.1723010540008545,1.5990469455718994,0.4204917847644763,81.0,490.0
Y,R,"[4, 3]",1.0,5.0,0.4114701747894287,1.7557098865509033,0.34299238052368036,81.0,491.0
B,L,"[4, 2]",1.0,6.0,0.3054330348968506,1.7231738567352295,0.41626629191975556,81.0,492.0
,,"(3, 3)",,,,,,81.0,
G,D,"[4, 3]",1.0,1.0,0.5328378677368164,3.059713840484619,0.409318894987261,,493.0
B,L,"[4, 2]",1.0,2.0,0.2554481029510498,1.7849340438842773,0.527513517356357,82.0,494.0
G,D,"[5, 2]",1.0,3.0,0.25631117820739746,1.8725171089172363,0.6165027124038172,82.0,495.0
R,U,"[4, 2]",1.0,4.0,0.22185897827148438,1.592216968536377,0.35887853660693814,82.0,496.0
Y,R,"[4, 3]",1.0,5.0,0.26870107650756836,1.558326005935669,0.3007654505349118,82.0,497.0
B,L,"[4, 2]",1.0,6.0,0.4150049686431885,1.7257170677185059,0.30971115461700777,82.0,498.0
,,"(3, 3)",,,,,,82.0,
G,D,"[4, 3]",1.0,1.0,0.45073890686035156,2.504345178604126,0.29784292430295467,,499.0
B,L,"[4, 2]",1.0,2.0,0.3665440082550049,1.9605238437652588,0.5745169942668951,83.0,500.0
G,D,"[5, 2]",1.0,3.0,0.2138669490814209,1.8088629245758057,0.599962630659158,83.0,501.0
R,U,"[4, 2]",1.0,4.0,0.22922992706298828,1.831192970275879,0.5979663359790834,83.0,502.0
Y,R,"[4, 3]",1.0,5.0,0.25274205207824707,1.6549139022827148,0.38639024980933023,83.0,503.0
B,L,"[4, 2]",1.0,6.0,0.25487494468688965,1.9700868129730225,0.7062201627569525,83.0,504.0
,,"(3, 3)",,,,,,83.0,
G,D,"[4, 3]",1.0,1.0,0.4995088577270508,2.8116259574890137,0.7013652671738337,,505.0
B,L,"[4, 2]",1.0,2.0,0.23361420631408691,1.5599150657653809,0.31162608455686225,84.0,506.0
G,D,"[5, 2]",1.0,3.0,0.23868703842163086,1.9162628650665283,0.6775497391284346,84.0,507.0
R,U,"[4, 2]",1.0,4.0,0.2141120433807373,1.9518492221832275,0.7459290155198739,84.0,508.0
Y,R,"[4, 3]",1.0,5.0,0.2098848819732666,1.8281280994415283,0.6075421641700608,84.0,509.0
B,L,"[4, 2]",1.0,6.0,0.24003911018371582,1.920443058013916,0.6613255690267492,84.0,510.0
,,"(3, 3)",,,,,,84.0,
G,D,"[4, 3]",1.0,1.0,0.5453391075134277,2.474587917327881,0.4363254294003092,,511.0
B,L,"[4, 2]",1.0,2.0,0.23420000076293945,1.574502944946289,0.3276272036344662,85.0,512.0
G,D,"[5, 2]",1.0,3.0,0.27658581733703613,1.8075950145721436,0.5349750355211405,85.0,513.0
R,U,"[4, 2]",1.0,4.0,0.20576715469360352,1.872992992401123,0.6577513631815486,85.0,514.0
Y,R,"[4, 3]",1.0,5.0,0.19215893745422363,1.485241174697876,0.2935312011080592,85.0,515.0
B,L,"[4, 2]",1.0,6.0,0.2428910732269287,1.8206889629364014,0.5805430356736119,85.0,516.0
,,"(3, 3)",,,,,,85.0,
G,D,"[4, 3]",1.0,1.0,0.6233000755310059,2.7643988132476807,0.7448405401904998,,517.0
B,L,"[4, 2]",1.0,2.0,0.20076704025268555,1.6840269565582275,0.47916498488878617,86.0,518.0
G,D,"[5, 2]",1.0,3.0,0.20272302627563477,1.5384321212768555,0.3343894148168808,86.0,519.0
R,U,"[4, 2]",1.0,4.0,0.21649789810180664,1.7068750858306885,0.47436070791561197,86.0,520.0
Y,R,"[4, 3]",1.0,5.0,0.2585330009460449,1.8851258754730225,0.6261470242528675,86.0,521.0
B,L,"[4, 2]",1.0,6.0,0.2444908618927002,1.803851842880249,0.5633810720410937,86.0,522.0
,,"(3, 3)",,,,,,86.0,
G,D,"[4, 3]",1.0,1.0,0.5081758499145508,2.407493829727173,0.43790762898429997,,523.0
B,L,"[4, 2]",1.0,2.0,0.2317800521850586,1.9517619609832764,0.7060549752983961,87.0,524.0
G,D,"[5, 2]",1.0,3.0,0.22187113761901855,1.8179090023040771,0.5906769395912794,87.0,525.0
R,U,"[4, 2]",1.0,4.0,0.30887317657470703,2.0535387992858887,0.7446025073834659,87.0,526.0
Y,R,"[4, 3]",1.0,5.0,0.2682979106903076,1.6451680660247803,0.38965950680647055,87.0,527.0
B,L,"[4, 2]",1.0,6.0,0.27141308784484863,1.5978739261627197,0.3210349114570776,87.0,528.0
,,"(3, 3)",,,,,,87.0,
G,D,"[4, 3]",1.0,1.0,0.5130350589752197,2.492828845977783,0.3805004047615413,,529.0
B,L,"[4, 2]",1.0,2.0,0.2644989490509033,1.7469449043273926,0.47728007815782253,88.0,530.0
G,D,"[5, 2]",1.0,3.0,0.20459985733032227,1.890017032623291,0.7003810366768466,88.0,531.0
R,U,"[4, 2]",1.0,4.0,0.21854400634765625,1.5275001525878906,0.29509850799263715,88.0,532.0
Y,R,"[4, 3]",1.0,5.0,0.25984716415405273,1.572829008102417,0.31788433016552325,88.0,533.0
B,L,"[4, 2]",1.0,6.0,0.2767949104309082,1.9432611465454102,0.6608895887026438,88.0,534.0
,,"(3, 3)",,,,,,88.0,
G,D,"[4, 3]",1.0,1.0,0.4877610206604004,2.3791990280151367,0.3736899347454523,,535.0
B,L,"[4, 2]",1.0,2.0,0.22805309295654297,1.7112891674041748,0.4849022410221382,89.0,536.0
G,D,"[5, 2]",1.0,3.0,0.2403419017791748,1.9699218273162842,0.7214080558645612,89.0,537.0
R,U,"[4, 2]",1.0,4.0,0.2485978603363037,1.7587218284606934,0.49702015970896024,89.0,538.0
Y,R,"[4, 3]",1.0,5.0,0.22252702713012695,1.727097988128662,0.4906765132942077,89.0,539.0
B,L,"[4, 2]",1.0,6.0,0.2505800724029541,1.7451789379119873,0.5026311250691878,89.0,540.0
,,"(3, 3)",,,,,,89.0,
G,D,"[4, 3]",1.0,1.0,0.5275928974151611,2.242610216140747,0.2621793413179875,,541.0
B,L,"[4, 2]",1.0,2.0,0.3411881923675537,1.61189603805542,0.2741065621743817,90.0,542.0
G,D,"[5, 2]",1.0,3.0,0.2456200122833252,1.6905319690704346,0.4478705391998752,90.0,543.0
R,U,"[4, 2]",1.0,4.0,0.22361207008361816,1.8448138236999512,0.6089860967791898,90.0,544.0
Y,R,"[4, 3]",1.0,5.0,0.2153761386871338,1.706510066986084,0.4990244469533054,90.0,545.0
B,L,"[4, 2]",1.0,6.0,0.22290492057800293,1.7736899852752686,0.5392958577364806,90.0,546.0
,,"(3, 3)",,,,,,90.0,
G,D,"[4, 3]",1.0,1.0,0.44182801246643066,2.2768640518188477,0.3332018332503461,,547.0
B,L,"[4, 2]",1.0,2.0,0.2630319595336914,1.8346059322357178,0.5674340425730906,91.0,548.0
G,D,"[5, 2]",1.0,3.0,0.17284107208251953,1.4899928569793701,0.307896430214052,91.0,549.0
R,U,"[4, 2]",1.0,4.0,0.3824961185455322,1.7601590156555176,0.3680933876076057,91.0,550.0
Y,R,"[4, 3]",1.0,5.0,0.20592498779296875,1.8529939651489258,0.6375115129968946,91.0,551.0
B,L,"[4, 2]",1.0,6.0,0.21586179733276367,1.6313109397888184,0.40218483162669866,91.0,552.0
,,"(3, 3)",,,,,,91.0,
G,D,"[4, 3]",1.0,1.0,0.3993039131164551,2.771327018737793,0.3903922639047884,,553.0
B,L,"[4, 2]",1.0,2.0,0.2799670696258545,1.7704598903656006,0.4940730654203153,92.0,554.0
G,D,"[5, 2]",1.0,3.0,0.27434396743774414,1.867501974105835,0.5948899380051518,92.0,555.0
R,U,"[4, 2]",1.0,4.0,0.22271418571472168,1.7209999561309814,0.49932465042129764,92.0,556.0
Y,R,"[4, 3]",1.0,5.0,0.21248507499694824,1.838252067565918,0.6209548341631149,92.0,557.0
B,L,"[4, 2]",1.0,6.0,0.23014593124389648,1.5629661083221436,0.3340848365855923,92.0,558.0
,,"(3, 3)",,,,,,92.0,
G,D,"[4, 3]",1.0,1.0,0.45137715339660645,2.3195250034332275,0.43699338001498106,,559.0
B,L,"[4, 2]",1.0,2.0,0.22908496856689453,1.8838348388671875,0.6538472298969675,93.0,560.0
G,D,"[5, 2]",1.0,3.0,0.19769811630249023,1.785141944885254,0.5891109254845378,93.0,561.0
R,U,"[4, 2]",1.0,4.0,0.2205650806427002,1.9171161651611328,0.6894847968257997,93.0,562.0
Y,R,"[4, 3]",1.0,5.0,0.2008969783782959,1.8257169723510742,0.615209247471366,93.0,563.0
B,L,"[4, 2]",1.0,6.0,0.19862604141235352,1.8440330028533936,0.6427086184876776,93.0,564.0
,,"(3, 3)",,,,,,93.0,
G,D,"[4, 3]",1.0,1.0,0.4690549373626709,2.6527280807495117,0.695465773250061,,565.0
B,L,"[4, 2]",1.0,2.0,0.19670796394348145,1.5329821109771729,0.3454691452074006,94.0,566.0
G,D,"[5, 2]",1.0,3.0,0.22607016563415527,1.9435338973999023,0.7217355327044218,94.0,567.0
R,U,"[4, 2]",1.0,4.0,0.2163698673248291,1.8915879726409912,0.6636670566889777,94.0,568.0
Y,R,"[4, 3]",1.0,5.0,0.21737909317016602,1.9825680255889893,0.7460522989512439,94.0,569.0
B,L,"[4, 2]",1.0,6.0,0.2399430274963379,1.9182631969451904,0.6645394067453185,94.0,570.0
,,"(3, 3)",,,,,,94.0,
G,D,"[4, 3]",1.0,1.0,0.4419980049133301,2.4464590549468994,0.47800250804767963,,571.0
B,L,"[4, 2]",1.0,2.0,0.2391369342803955,1.6508769989013672,0.41201282895535385,95.0,572.0
G,D,"[5, 2]",1.0,3.0,0.22835493087768555,1.772643804550171,0.5516012708304787,95.0,573.0
R,U,"[4, 2]",1.0,4.0,0.28496885299682617,1.964613914489746,0.6661074579880519,95.0,574.0
Y,R,"[4, 3]",1.0,5.0,0.22244000434875488,1.9204270839691162,0.686418124534829,95.0,575.0
B,L,"[4, 2]",1.0,6.0,0.21195197105407715,1.55104398727417,0.3378439776846037,95.0,576.0
,,"(3, 3)",,,,,,95.0,
G,D,"[4, 3]",1.0,1.0,0.5111532211303711,2.248141050338745,0.36954393677413366,,577.0
B,L,"[4, 2]",1.0,2.0,0.22384405136108398,1.717806100845337,0.4869151238500592,96.0,578.0
G,D,"[5, 2]",1.0,3.0,0.2072160243988037,1.624302864074707,0.4114508673999931,96.0,579.0
R,U,"[4, 2]",1.0,4.0,0.2656848430633545,2.011544942855835,0.7391803371055363,96.0,580.0
Y,R,"[4, 3]",1.0,5.0,0.2082810401916504,1.7008090019226074,0.49043905062748705,96.0,581.0
B,L,"[4, 2]",1.0,6.0,0.22126197814941406,1.6068620681762695,0.3807396066035723,96.0,582.0
,,"(3, 3)",,,,,,96.0,
G,D,"[4, 3]",1.0,1.0,0.45888495445251465,2.745666027069092,0.6598280868991536,,583.0
B,L,"[4, 2]",1.0,2.0,0.2061140537261963,1.632917881011963,0.4259482462972774,97.0,584.0
G,D,"[5, 2]",1.0,3.0,0.5509359836578369,1.9358768463134766,0.3786356026213091,97.0,585.0
R,U,"[4, 2]",1.0,4.0,0.3836829662322998,1.8153679370880127,0.4271825760904412,97.0,586.0
Y,R,"[4, 3]",1.0,5.0,0.3210289478302002,1.9973571300506592,0.6743442086276786,97.0,587.0
B,L,"[4, 2]",1.0,6.0,0.25120997428894043,1.5058801174163818,0.26411872741485093,97.0,588.0
,,"(3, 3)",,,,,,97.0,
G,D,"[4, 3]",1.0,1.0,0.442518949508667,2.6396100521087646,0.5867771590800754,,589.0
B,L,"[4, 2]",1.0,2.0,0.1963191032409668,1.734626054763794,0.538053630594314,98.0,590.0
G,D,"[5, 2]",1.0,3.0,0.19814014434814453,1.6647310256958008,0.46964294910871673,98.0,591.0
R,U,"[4, 2]",1.0,4.0,0.21226787567138672,1.9168570041656494,0.7027915647714564,98.0,592.0
Y,R,"[4, 3]",1.0,5.0,0.18802809715270996,1.84450101852417,0.6474320142690966,98.0,593.0
B,L,"[4, 2]",1.0,6.0,0.1960139274597168,1.8640251159667969,0.661350077666687,98.0,594.0
,,"(3, 3)",,,,,,98.0,
G,D,"[4, 3]",1.0,1.0,0.42476701736450195,2.103545904159546,0.3153302872194889,,595.0
B,L,"[4, 2]",1.0,2.0,0.20932412147521973,1.8585278987884521,0.6402819746392516,99.0,596.0
G,D,"[5, 2]",1.0,3.0,0.2023940086364746,1.6213290691375732,0.41192398383941564,99.0,597.0
R,U,"[4, 2]",1.0,4.0,0.35770392417907715,2.1006081104278564,0.7460422777412883,99.0,598.0
Y,R,"[4, 3]",1.0,5.0,0.19881606101989746,1.6778509616851807,0.47366130350070484,99.0,599.0
B,L,"[4, 2]",1.0,6.0,0.18167495727539062,1.4668629169464111,0.29098238927986564,99.0,600.0
,,"(3, 3)",,,,,,99.0,
G,D,"[4, 3]",1.0,1.0,0.45700502395629883,3.129857063293457,0.3705759557332536,,601.0
B,L,"[4, 2]",1.0,2.0,0.2576181888580322,1.7348527908325195,0.4720634624554751,100.0,602.0
G,D,"[5, 2]",1.0,3.0,0.18837308883666992,1.9213519096374512,0.7265173093015572,100.0,603.0
R,U,"[4, 2]",1.0,4.0,0.14673495292663574,1.6784820556640625,0.5386164487259052,100.0,604.0
Y,R,"[4, 3]",1.0,5.0,0.24846792221069336,1.8066577911376953,0.5619301499549667,100.0,605.0
B,L,"[4, 2]",1.0,6.0,0.2355358600616455,1.6441330909729004,0.40611595713925275,100.0,606.0
,,"(3, 3)",,,,,,100.0,
G,D,"[4, 3]",1.0,1.0,0.454470157623291,2.2205920219421387,0.4435710692358246,,607.0
B,L,"[4, 2]",1.0,2.0,0.2590019702911377,1.6883559226989746,0.4319185071544446,101.0,608.0
G,D,"[5, 2]",1.0,3.0,0.20607495307922363,1.6199541091918945,0.4185032019948815,101.0,609.0
R,U,"[4, 2]",1.0,4.0,0.5284409523010254,1.827376127243042,0.2960599391567488,101.0,610.0
Y,R,"[4, 3]",1.0,5.0,0.277846097946167,1.5943279266357422,0.32374878052108896,101.0,611.0
B,L,"[4, 2]",1.0,6.0,0.23919200897216797,1.6174290180206299,0.37440647749108963,101.0,612.0
,,"(3, 3)",,,,,,101.0,
G,D,"[4, 3]",1.0,1.0,0.4716658592224121,2.6785569190979004,0.5529538744918464,,613.0
B,L,"[4, 2]",1.0,2.0,0.2530860900878906,1.7502479553222656,0.48650862777967113,102.0,614.0
G,D,"[5, 2]",1.0,3.0,0.21807384490966797,1.6033780574798584,0.3900483233546859,102.0,615.0
R,U,"[4, 2]",1.0,4.0,0.22832798957824707,1.5077309608459473,0.28120346590368206,102.0,616.0
Y,R,"[4, 3]",1.0,5.0,0.25177621841430664,1.911059856414795,0.6419536170887017,102.0,617.0
B,L,"[4, 2]",1.0,6.0,0.29689884185791016,1.6135900020599365,0.3225690079763954,102.0,618.0
,,"(3, 3)",,,,,,102.0,
G,D,"[4, 3]",1.0,1.0,0.48972606658935547,2.3062660694122314,0.3622499699435375,,619.0
B,L,"[4, 2]",1.0,2.0,0.23326516151428223,1.7698509693145752,0.5319620534498426,103.0,620.0
G,D,"[5, 2]",1.0,3.0,0.19597911834716797,1.6874628067016602,0.4859120415405463,103.0,621.0
R,U,"[4, 2]",1.0,4.0,0.22350192070007324,1.9414310455322266,0.7107523483583338,103.0,622.0
Y,R,"[4, 3]",1.0,5.0,0.19719409942626953,1.9275078773498535,0.7382376288302333,103.0,623.0
B,L,"[4, 2]",1.0,6.0,0.23713898658752441,1.7473969459533691,0.502531739698225,103.0,624.0
,,"(3, 3)",,,,,,103.0,
G,D,"[4, 3]",1.0,1.0,0.5129261016845703,2.4796030521392822,0.36561519629158745,,625.0
B,L,"[4, 2]",1.0,2.0,0.18918299674987793,1.512718915939331,0.31178478854427505,104.0,626.0
G,D,"[5, 2]",1.0,3.0,0.21082115173339844,1.7206370830535889,0.5155072099043946,104.0,627.0
R,U,"[4, 2]",1.0,4.0,0.21785712242126465,1.619292974472046,0.3849223369514177,104.0,628.0
Y,R,"[4, 3]",1.0,5.0,0.21596503257751465,1.5022239685058594,0.28729247718183554,104.0,629.0
B,L,"[4, 2]",1.0,6.0,0.2135169506072998,1.8498029708862305,0.6367333149939894,104.0,630.0
,,"(3, 3)",,,,,,104.0,
G,D,"[4, 3]",1.0,1.0,0.4247009754180908,2.161350965499878,0.41508057474922655,,631.0
B,L,"[4, 2]",1.0,2.0,0.22541403770446777,1.984489917755127,0.7492468173193261,105.0,632.0
G,D,"[5, 2]",1.0,3.0,0.18836283683776855,1.852795124053955,0.652122946526404,105.0,633.0
R,U,"[4, 2]",1.0,4.0,0.21920990943908691,1.8692779541015625,0.6381131929227213,105.0,634.0
Y,R,"[4, 3]",1.0,5.0,0.28570079803466797,2.0058939456939697,0.7106472195763158,105.0,635.0
B,L,"[4, 2]",1.0,6.0,0.23377299308776855,1.9842290878295898,0.7449088535813722,105.0,636.0
,,"(3, 3)",,,,,,105.0,
G,D,"[4, 3]",1.0,1.0,0.4325082302093506,2.5265941619873047,0.4385652921372307,,637.0
B,L,"[4, 2]",1.0,2.0,0.2537407875061035,1.6802630424499512,0.4186720627627273,106.0,638.0
G,D,"[5, 2]",1.0,3.0,0.21501493453979492,1.5791409015655518,0.3312498374215224,106.0,639.0
R,U,"[4, 2]",1.0,4.0,0.27564191818237305,1.8354480266571045,0.5499240675349154,106.0,640.0
Y,R,"[4, 3]",1.0,5.0,0.2444608211517334,1.9303441047668457,0.680544918370323,106.0,641.0
B,L,"[4, 2]",1.0,6.0,0.19803309440612793,1.54091215133667,0.3382682321418952,106.0,642.0
,,"(3, 3)",,,,,,106.0,
G,D,"[4, 3]",1.0,1.0,0.45595502853393555,2.5743329524993896,0.7288276428649841,,643.0
B,L,"[4, 2]",1.0,2.0,0.35637807846069336,1.8160970211029053,0.46196278994912143,107.0,644.0
G,D,"[5, 2]",1.0,3.0,0.2647690773010254,1.6426739692687988,0.3879380852556493,107.0,645.0
R,U,"[4, 2]",1.0,4.0,0.34576416015625,1.9406490325927734,0.5951338724120212,107.0,646.0
Y,R,"[4, 3]",1.0,5.0,0.22777104377746582,1.6546111106872559,0.4332872244158713,107.0,647.0
B,L,"[4, 2]",1.0,6.0,0.25211596488952637,1.621786117553711,0.35507527314163245,107.0,648.0
,,"(3, 3)",,,,,,107.0,
G,D,"[4, 3]",1.0,1.0,0.5518581867218018,2.3012239933013916,0.2731568237175215,,649.0
B,L,"[4, 2]",1.0,2.0,0.2384018898010254,1.6481130123138428,0.40448077346640837,108.0,650.0
G,D,"[5, 2]",1.0,3.0,0.2132430076599121,1.93377685546875,0.7213804456103086,108.0,651.0
R,U,"[4, 2]",1.0,4.0,0.2071537971496582,1.9454560279846191,0.7333258643056565,108.0,652.0
Y,R,"[4, 3]",1.0,5.0,0.18329405784606934,1.45094895362854,0.25161165496265087,108.0,653.0
B,L,"[4, 2]",1.0,6.0,0.5932810306549072,2.2792880535125732,0.6805367305161123,108.0,654.0
,,"(3, 3)",,,,,,108.0,
G,D,"[4, 3]",1.0,1.0,0.5206201076507568,3.763201951980591,0.6105295001637887,,655.0
B,L,"[4, 2]",1.0,2.0,0.21499896049499512,1.623370885848999,0.41736517314896676,109.0,656.0
G,D,"[5, 2]",1.0,3.0,0.30867719650268555,1.6031889915466309,0.2873960760588214,109.0,657.0
R,U,"[4, 2]",1.0,4.0,0.23478007316589355,1.6091501712799072,0.3798109607922898,109.0,658.0
Y,R,"[4, 3]",1.0,5.0,0.21815896034240723,1.563277006149292,0.3265627072539938,109.0,659.0
B,L,"[4, 2]",1.0,6.0,0.22433805465698242,1.8667399883270264,0.6428967774060481,109.0,660.0
,,"(3, 3)",,,,,,109.0,
G,D,"[4, 3]",1.0,1.0,0.5946080684661865,2.453873872756958,0.5136142135154124,,661.0
B,L,"[4, 2]",1.0,2.0,0.22595000267028809,1.495393991470337,0.25917473029107413,110.0,662.0
R,U,"[3, 2]",-1.0,1.0,0.49674105644226074,1.9505338668823242,0.45963631022795853,110.0,663.0
Y,R,"[3, 3]",-2.0,-1.0,0.8852720260620117,2.4946858882904053,0.6041037348061782,110.0,664.0
G,D,"[4, 3]",1.0,0.0,0.1848609447479248,1.6569149494171143,0.4613925087446407,110.0,665.0
G,D,"[5, 3]",1.0,1.0,0.20612478256225586,1.5458569526672363,0.3573589173465461,110.0,666.0
,,"(3, 3)",,,,,,110.0,
G,D,"[4, 3]",1.0,1.0,0.46382999420166016,2.3321149349212646,0.4393248619904155,,667.0
B,L,"[4, 2]",1.0,2.0,0.2967109680175781,1.5882911682128906,0.29449347154365035,111.0,668.0
G,D,"[5, 2]",1.0,3.0,0.31665587425231934,1.8951890468597412,0.5727011947897666,111.0,669.0
R,U,"[4, 2]",1.0,4.0,0.34955286979675293,2.08298397064209,0.7223907574502022,111.0,670.0
Y,R,"[4, 3]",1.0,5.0,0.4432229995727539,1.8148739337921143,0.370873525324063,111.0,671.0
B,L,"[4, 2]",1.0,6.0,0.3737499713897705,1.6492671966552734,0.2703649684941624,111.0,672.0
,,"(3, 3)",,,,,,111.0,
G,D,"[4, 3]",1.0,1.0,0.48279786109924316,2.2744410037994385,0.39475063175133157,,673.0
B,L,"[4, 2]",1.0,2.0,0.26323795318603516,1.796264886856079,0.5407019959939371,112.0,674.0
G,D,"[5, 2]",1.0,3.0,0.21316099166870117,1.5478239059448242,0.3388500791822916,112.0,675.0
R,U,"[4, 2]",1.0,4.0,0.26050615310668945,1.8958988189697266,0.6343916595187977,112.0,676.0
Y,R,"[4, 3]",1.0,5.0,0.1952979564666748,1.5216538906097412,0.3231810031307005,112.0,677.0
B,L,"[4, 2]",1.0,6.0,0.25283288955688477,1.9146618843078613,0.6540503584118287,112.0,678.0
,,"(3, 3)",,,,,,112.0,
G,D,"[4, 3]",1.0,1.0,0.483104944229126,2.62152099609375,0.5259327511271297,,679.0
B,L,"[4, 2]",1.0,2.0,0.30153584480285645,1.8708760738372803,0.5634827035531713,113.0,680.0
G,D,"[5, 2]",1.0,3.0,0.2003650665283203,1.923961877822876,0.7039747357100445,113.0,681.0
R,U,"[4, 2]",1.0,4.0,0.20750880241394043,1.962693214416504,0.7498345722337931,113.0,682.0
Y,R,"[4, 3]",1.0,5.0,0.20740795135498047,1.7878639698028564,0.5711857954798351,113.0,683.0
B,L,"[4, 2]",1.0,6.0,0.23892807960510254,1.8142640590667725,0.568899633276748,113.0,684.0
,,"(3, 3)",,,,,,113.0,
G,D,"[4, 3]",1.0,1.0,0.5090460777282715,2.2820990085601807,0.26802010684956207,,685.0
B,L,"[4, 2]",1.0,2.0,0.23594999313354492,1.818742036819458,0.5864729926771861,114.0,686.0
G,D,"[5, 2]",1.0,3.0,0.1754310131072998,1.5755620002746582,0.39565139236142194,114.0,687.0
R,U,"[4, 2]",1.0,4.0,0.2606849670410156,1.9428668022155762,0.6882471802686663,114.0,688.0
Y,R,"[4, 3]",1.0,5.0,0.19283103942871094,1.596092939376831,0.40120378429709036,114.0,689.0
B,L,"[4, 2]",1.0,6.0,0.21974992752075195,1.6006131172180176,0.3684918703493125,114.0,690.0
,,"(3, 3)",,,,,,114.0,
G,D,"[4, 3]",1.0,1.0,0.4854910373687744,2.307013988494873,0.4088694786835638,,691.0
B,L,"[4, 2]",1.0,2.0,0.18286490440368652,1.604646921157837,0.41367557409879757,115.0,692.0
G,D,"[5, 2]",1.0,3.0,0.21326088905334473,1.9028761386871338,0.6828260664457408,115.0,693.0
R,U,"[4, 2]",1.0,4.0,0.22128701210021973,1.9391241073608398,0.7054188452582797,115.0,694.0
Y,R,"[4, 3]",1.0,5.0,0.214216947555542,1.6935999393463135,0.48256808534608653,115.0,695.0
B,L,"[4, 2]",1.0,6.0,0.22244596481323242,1.8474128246307373,0.6132569659287916,115.0,696.0
,,"(3, 3)",,,,,,115.0,
G,D,"[4, 3]",1.0,1.0,0.501396894454956,2.6933488845825195,0.6565335419114977,,697.0
B,L,"[4, 2]",1.0,2.0,0.20592904090881348,1.6113090515136719,0.4015315458174246,116.0,698.0
G,D,"[5, 2]",1.0,3.0,0.20847582817077637,1.6895430088043213,0.4742686054960975,116.0,699.0
R,U,"[4, 2]",1.0,4.0,0.2523081302642822,1.7278850078582764,0.46888965871918775,116.0,700.0
Y,R,"[4, 3]",1.0,5.0,0.2539949417114258,1.7094299793243408,0.4451149401222285,116.0,701.0
B,L,"[4, 2]",1.0,6.0,0.28901100158691406,1.9084479808807373,0.6198770265712965,116.0,702.0
,,"(3, 3)",,,,,,116.0,
G,D,"[4, 3]",1.0,1.0,0.7748861312866211,3.76931095123291,0.48953372159658926,,703.0
B,L,"[4, 2]",1.0,2.0,0.35366201400756836,1.6493170261383057,0.2891083620059902,117.0,704.0
G,D,"[5, 2]",1.0,3.0,0.38671016693115234,1.9380848407745361,0.543485373170004,117.0,705.0
R,U,"[4, 2]",1.0,4.0,0.22164177894592285,1.8957679271697998,0.6726367169307179,117.0,706.0
Y,R,"[4, 3]",1.0,5.0,0.2264721393585205,1.7809522151947021,0.5536758443055062,117.0,707.0
B,L,"[4, 2]",1.0,6.0,0.2442309856414795,1.609039068222046,0.36289214084445803,117.0,708.0
,,"(3, 3)",,,,,,117.0,
G,D,"[4, 3]",1.0,1.0,0.47833919525146484,3.337178945541382,0.3500334772907646,,709.0
B,L,"[4, 2]",1.0,2.0,0.2373950481414795,1.8101568222045898,0.560169283658463,118.0,710.0
G,D,"[5, 2]",1.0,3.0,0.22850799560546875,1.7253949642181396,0.5023099965288738,118.0,711.0
R,U,"[4, 2]",1.0,4.0,0.23629307746887207,1.5144939422607422,0.26697552450814455,118.0,712.0
Y,R,"[4, 3]",1.0,5.0,0.2787470817565918,1.7068629264831543,0.4236940359077816,118.0,713.0
B,L,"[4, 2]",1.0,6.0,0.22711515426635742,1.920531988143921,0.693953445170709,118.0,714.0
,,"(3, 3)",,,,,,118.0,
G,D,"[4, 3]",1.0,1.0,0.4406869411468506,2.7094309329986572,0.6368947196549077,,715.0
B,L,"[4, 2]",1.0,2.0,0.1984560489654541,1.672361135482788,0.4760809592898304,119.0,716.0
R,U,"[3, 2]",-1.0,1.0,0.3788449764251709,1.7100911140441895,0.33631980054532196,119.0,717.0
G,D,"[4, 2]",1.0,2.0,0.17622804641723633,1.4797630310058594,0.2994788809777534,119.0,718.0
G,D,"[5, 2]",1.0,3.0,0.16620707511901855,1.5373260974884033,0.3535581915315743,119.0,719.0
G,D,"[6, 2]",0.0,3.0,0.19608283042907715,1.8651330471038818,0.6683122594276412,119.0,720.0
,,"(3, 3)",,,,,,119.0,
G,D,"[4, 3]",1.0,1.0,0.4641258716583252,2.0560719966888428,0.25820841663674127,,721.0
B,L,"[4, 2]",1.0,2.0,0.20734214782714844,1.9444999694824219,0.7355687268526091,120.0,722.0
G,D,"[5, 2]",1.0,3.0,0.19724702835083008,1.8456690311431885,0.6479859805848606,120.0,723.0
R,U,"[4, 2]",1.0,4.0,0.20028996467590332,1.6309258937835693,0.41241088984195107,120.0,724.0
Y,R,"[4, 3]",1.0,5.0,0.20622777938842773,1.7367660999298096,0.5328193229867861,120.0,725.0
B,L,"[4, 2]",1.0,6.0,0.1946849822998047,1.7865760326385498,0.5857138821304979,120.0,726.0
,,"(3, 3)",,,,,,120.0,
G,D,"[4, 3]",1.0,1.0,0.5644268989562988,2.6285080909729004,0.36461743586893297,,727.0
B,L,"[4, 2]",1.0,2.0,0.20821690559387207,1.6851060390472412,0.46619066883312527,121.0,728.0
G,D,"[5, 2]",1.0,3.0,0.42209815979003906,2.05173397064209,0.6177939274164415,121.0,729.0
R,U,"[4, 2]",1.0,4.0,0.2050609588623047,1.535512924194336,0.32039097599752325,121.0,730.0
Y,R,"[4, 3]",1.0,5.0,0.22868895530700684,1.686551809310913,0.45678687856736505,121.0,731.0
B,L,"[4, 2]",1.0,6.0,0.19962501525878906,1.6618409156799316,0.4685292500160175,121.0,732.0
,,"(3, 3)",,,,,,121.0,
G,D,"[4, 3]",1.0,1.0,0.507343053817749,2.6497700214385986,0.7181464211930332,,733.0
B,L,"[4, 2]",1.0,2.0,0.19584202766418457,1.739142894744873,0.5409076246242976,122.0,734.0
G,D,"[5, 2]",1.0,3.0,0.23389005661010742,1.5744249820709229,0.332281863971833,122.0,735.0
R,U,"[4, 2]",1.0,4.0,0.6693508625030518,2.3019940853118896,0.6174039316062443,122.0,736.0
Y,R,"[4, 3]",1.0,5.0,0.2488410472869873,1.8774769306182861,0.6280781396948351,122.0,737.0
B,L,"[4, 2]",1.0,6.0,0.22793102264404297,1.4832239151000977,0.26163388663940507,122.0,738.0
,,"(3, 3)",,,,,,122.0,
G,D,"[4, 3]",1.0,1.0,0.4451138973236084,2.48889422416687,0.7002909934288235,,739.0
B,L,"[4, 2]",1.0,2.0,0.20679306983947754,1.557002067565918,0.3408820305281439,123.0,740.0
G,D,"[5, 2]",1.0,3.0,0.2056138515472412,1.9349150657653809,0.7254232257653919,123.0,741.0
R,U,"[4, 2]",1.0,4.0,0.20156598091125488,1.7725989818572998,0.5648454727348104,123.0,742.0
Y,R,"[4, 3]",1.0,5.0,0.2240760326385498,1.823909044265747,0.5887496870536209,123.0,743.0
B,L,"[4, 2]",1.0,6.0,0.20776605606079102,1.9014878273010254,0.6902060281038065,123.0,744.0
,,"(3, 3)",,,,,,123.0,
G,D,"[4, 3]",1.0,1.0,0.4807097911834717,2.237996816635132,0.4618079659613021,,745.0
B,L,"[4, 2]",1.0,2.0,0.234421968460083,1.8899168968200684,0.6682941572914289,124.0,746.0
R,U,"[3, 2]",-1.0,1.0,0.1943819522857666,1.721350908279419,0.5230976544089363,124.0,747.0
G,D,"[4, 2]",1.0,2.0,0.18973398208618164,1.9198930263519287,0.726631860092403,124.0,748.0
G,D,"[5, 2]",1.0,3.0,0.18612909317016602,1.8100090026855469,0.6197166520874736,124.0,749.0
G,D,"[6, 2]",0.0,3.0,0.18355298042297363,1.7736289501190186,0.5766831571742277,124.0,750.0
,,"(3, 3)",,,,,,124.0,
G,D,"[4, 3]",1.0,1.0,0.4501681327819824,2.574492931365967,0.5678999313187078,,751.0
B,L,"[4, 2]",1.0,2.0,0.18186688423156738,1.6450660228729248,0.4630449268353748,125.0,752.0
G,D,"[5, 2]",1.0,3.0,0.210676908493042,1.6697561740875244,0.4494728872934095,125.0,753.0
R,U,"[4, 2]",1.0,4.0,0.23508405685424805,1.8478550910949707,0.6139088411569886,125.0,754.0
Y,R,"[4, 3]",1.0,5.0,0.22436904907226562,1.527251958847046,0.29143949756267934,125.0,755.0
B,L,"[4, 2]",1.0,6.0,0.22086381912231445,1.871241807937622,0.6457515652528977,125.0,756.0
,,"(3, 3)",,,,,,125.0,
G,D,"[4, 3]",1.0,1.0,0.46563291549682617,2.2914249897003174,0.4873400465590775,,757.0
B,L,"[4, 2]",1.0,2.0,0.21305108070373535,1.9004759788513184,0.6880706952986462,126.0,758.0
G,D,"[5, 2]",1.0,3.0,0.21158504486083984,1.6409478187561035,0.4289171712551757,126.0,759.0
R,U,"[4, 2]",1.0,4.0,0.19780707359313965,1.712738037109375,0.5249699407427995,126.0,760.0
Y,R,"[4, 3]",1.0,5.0,0.2351820468902588,1.7153708934783936,0.473816077571399,126.0,761.0
B,L,"[4, 2]",1.0,6.0,0.2528080940246582,1.928098201751709,0.6847215350529645,126.0,762.0
,,"(3, 3)",,,,,,126.0,
G,D,"[4, 3]",1.0,1.0,0.4874000549316406,2.932060956954956,0.5837707389785707,,763.0
B,L,"[4, 2]",1.0,2.0,0.2393200397491455,1.9614570140838623,0.711923921625808,127.0,764.0
G,D,"[5, 2]",1.0,3.0,0.22211408615112305,1.526648998260498,0.30551198601866325,127.0,765.0
R,U,"[4, 2]",1.0,4.0,0.25606203079223633,1.5308310985565186,0.26980837367605964,127.0,766.0
Y,R,"[4, 3]",1.0,5.0,0.30269408226013184,1.6100780963897705,0.2965997925519752,127.0,767.0
B,L,"[4, 2]",1.0,6.0,0.24894309043884277,1.7630391120910645,0.49275512273294886,127.0,768.0
,,"(3, 3)",,,,,,127.0,
G,D,"[4, 3]",1.0,1.0,0.38997316360473633,2.568834066390991,0.7447176038999808,,769.0
B,L,"[4, 2]",1.0,2.0,0.25347185134887695,1.688140869140625,0.4332760679716679,128.0,770.0
G,D,"[5, 2]",1.0,3.0,0.4264709949493408,1.7659428119659424,0.3327185054866452,128.0,771.0
R,U,"[4, 2]",1.0,4.0,0.3048889636993408,1.8225879669189453,0.5049436592031825,128.0,772.0
Y,R,"[4, 3]",1.0,5.0,0.24448609352111816,1.72617506980896,0.4812273879012738,128.0,773.0
B,L,"[4, 2]",1.0,6.0,0.2711958885192871,1.6839590072631836,0.3987145989655819,128.0,774.0
,,"(3, 3)",,,,,,128.0,
G,D,"[4, 3]",1.0,1.0,0.66709303855896,2.9533300399780273,0.6182741768943707,,775.0
B,L,"[4, 2]",1.0,2.0,0.20803499221801758,1.6895999908447266,0.4748633084783245,129.0,776.0
G,D,"[5, 2]",1.0,3.0,0.2407369613647461,1.5617520809173584,0.32000950969105246,129.0,777.0
R,U,"[4, 2]",1.0,4.0,0.29991698265075684,1.5823118686676025,0.26926396317517703,129.0,778.0
Y,R,"[4, 3]",1.0,5.0,0.24285316467285156,1.944631814956665,0.6967119197923795,129.0,779.0
B,L,"[4, 2]",1.0,6.0,0.21312594413757324,1.5902249813079834,0.3706831185037568,129.0,780.0
,,"(3, 3)",,,,,,129.0,
G,D,"[4, 3]",1.0,1.0,0.37918615341186523,2.63753604888916,0.6913164202752904,,781.0
B,L,"[4, 2]",1.0,2.0,0.2292180061340332,1.6373591423034668,0.4123432420138024,130.0,782.0
G,D,"[5, 2]",1.0,3.0,0.2311229705810547,1.8531041145324707,0.6318626957512274,130.0,783.0
R,U,"[4, 2]",1.0,4.0,0.21427011489868164,1.8546290397644043,0.6366226767341365,130.0,784.0
Y,R,"[4, 3]",1.0,5.0,0.19834589958190918,1.5045361518859863,0.2912580678086853,130.0,785.0
B,L,"[4, 2]",1.0,6.0,0.21661686897277832,1.6555299758911133,0.43016321418527786,130.0,786.0
,,"(3, 3)",,,,,,130.0,
G,D,"[4, 3]",1.0,1.0,0.5201139450073242,3.2500481605529785,0.7301163374460884,,787.0
B,L,"[4, 2]",1.0,2.0,0.2268998622894287,1.767514944076538,0.5311022693720474,131.0,788.0
G,D,"[5, 2]",1.0,3.0,0.26807284355163574,1.594655990600586,0.32593454861154464,131.0,789.0
R,U,"[4, 2]",1.0,4.0,0.24423599243164062,1.5920500755310059,0.3514101284531493,131.0,790.0
Y,R,"[4, 3]",1.0,5.0,0.25706982612609863,1.7136471271514893,0.44830017777675496,131.0,791.0
B,L,"[4, 2]",1.0,6.0,0.2344379425048828,1.5974469184875488,0.3457574231178112,131.0,792.0
,,"(3, 3)",,,,,,131.0,
G,D,"[4, 3]",1.0,1.0,0.4255681037902832,2.3145599365234375,0.493659073421507,,793.0
B,L,"[4, 2]",1.0,2.0,0.2245960235595703,1.7445249557495117,0.5213881854759286,132.0,794.0
G,D,"[5, 2]",1.0,3.0,0.28775596618652344,1.5781400203704834,0.28312062315681297,132.0,795.0
R,U,"[4, 2]",1.0,4.0,0.2494039535522461,1.8816101551055908,0.5979036477505999,132.0,796.0
Y,R,"[4, 3]",1.0,5.0,0.19812393188476562,1.8658630847930908,0.6634435071866647,132.0,797.0
B,L,"[4, 2]",1.0,6.0,0.2606379985809326,1.8558590412139893,0.5861732357964509,132.0,798.0
,,"(3, 3)",,,,,,132.0,
G,D,"[4, 3]",1.0,1.0,0.3720569610595703,2.6523690223693848,0.6553724720041038,,799.0
B,L,"[4, 2]",1.0,2.0,0.2316138744354248,1.8477401733398438,0.6034166738156014,133.0,800.0
G,D,"[5, 2]",1.0,3.0,0.21471285820007324,1.7658700942993164,0.552359731667192,133.0,801.0
R,U,"[4, 2]",1.0,4.0,0.40830302238464355,2.0818278789520264,0.6674512997900206,133.0,802.0
Y,R,"[4, 3]",1.0,5.0,0.22583913803100586,1.815713882446289,0.5833056374787139,133.0,803.0
B,L,"[4, 2]",1.0,6.0,0.27980685234069824,1.9337389469146729,0.6503951396961669,133.0,804.0
,,"(3, 3)",,,,,,133.0,
G,D,"[4, 3]",-1.0,-1.0,0.2768378257751465,2.2908449172973633,0.3416173083457494,,805.0
R,U,"[3, 3]",-2.0,-1.0,6.554926872253418,8.159265995025635,0.5840486769504089,134.0,806.0
R,U,"[2, 3]",-2.0,-1.0,5.822407007217407,7.150030136108398,0.2845395151799265,134.0,807.0
R,U,"[1, 3]",-2.0,-1.0,4.555643796920776,5.852088928222656,0.2533762994347281,134.0,808.0
R,U,"[0, 3]",-2.0,-1.0,3.0468220710754395,4.52847695350647,0.4482508567364717,134.0,809.0
R,U,"[0, 3]",-2.0,-1.0,2.922719955444336,4.49876594543457,0.5304450685458337,134.0,810.0
,,"(3, 3)",,,,,,134.0,
R,U,"[2, 3]",1.0,1.0,0.35880208015441895,3.707444906234741,0.6876524880310501,,811.0
R,U,"[1, 3]",-1.0,0.0,0.27378320693969727,1.9938559532165527,0.7150943827759817,135.0,812.0
R,U,"[0, 3]",-2.0,0.0,5.112987995147705,6.8146820068359375,0.6628923504971025,135.0,813.0
R,U,"[0, 3]",-2.0,0.0,3.6954779624938965,5.47049617767334,0.733662788907866,135.0,814.0
R,U,"[0, 3]",-2.0,0.0,3.167001962661743,4.875335931777954,0.6755511619464698,135.0,815.0
R,U,"[0, 3]",-2.0,0.0,3.3255441188812256,4.730782985687256,0.37358148695902055,135.0,816.0
,,"(3, 3)",,,,,,135.0,
R,U,"[2, 3]",1.0,1.0,0.43202805519104004,3.7343719005584717,0.47439101602826994,,817.0
G,D,"[3, 3]",-2.0,-1.0,0.33011388778686523,1.8074228763580322,0.46526595099602897,136.0,818.0
G,D,"[4, 3]",-2.0,-1.0,3.8105478286743164,5.316817998886108,0.46565199834541,136.0,819.0
G,D,"[5, 3]",-2.0,-1.0,3.7629950046539307,5.230664968490601,0.4297135225822227,136.0,820.0
G,D,"[6, 3]",-2.0,-1.0,3.7968149185180664,5.423833131790161,0.5868231378894821,136.0,821.0
G,D,"[6, 3]",-2.0,-1.0,3.3354239463806152,4.681182146072388,0.31824577769688406,136.0,822.0
,,"(3, 3)",,,,,,136.0,
R,U,"[2, 3]",1.0,1.0,0.5261549949645996,3.52413010597229,0.6254507519693928,,823.0
B,L,"[2, 2]",1.0,2.0,0.20850491523742676,1.893908977508545,0.6860712320246509,137.0,824.0
R,U,"[1, 2]",1.0,3.0,0.2557539939880371,1.781883955001831,0.5348267658251356,137.0,825.0
Y,R,"[1, 3]",-1.0,2.0,0.3463749885559082,1.9796199798583984,0.6142676031691339,137.0,826.0
G,D,"[2, 3]",-2.0,2.0,4.050328969955444,5.512295961380005,0.4268211017306259,137.0,827.0
G,D,"[3, 3]",-2.0,2.0,3.4443650245666504,5.000121831893921,0.5270486560882621,137.0,828.0
,,"(3, 3)",,,,,,137.0,
R,U,"[2, 3]",1.0,1.0,0.42723512649536133,3.3915488719940186,0.7183622283276332,,829.0
Y,R,"[2, 4]",-1.0,0.0,0.29175710678100586,1.973477840423584,0.6752347527682027,138.0,830.0
R,U,"[1, 4]",-1.0,-1.0,0.28299903869628906,1.7755589485168457,0.4844182617502435,138.0,831.0
G,D,"[2, 4]",-2.0,-1.0,3.7927870750427246,5.199151039123535,0.3670416009145611,138.0,832.0
G,D,"[3, 4]",-2.0,-1.0,3.01790714263916,4.707854986190796,0.6580066521563465,138.0,833.0
G,D,"[4, 4]",-2.0,-1.0,2.74019193649292,4.2597010135650635,0.484696883960854,138.0,834.0
,,"(3, 3)",,,,,,138.0,
R,U,"[2, 3]",1.0,1.0,0.6056408882141113,3.5398521423339844,0.724372876796515,,835.0
B,L,"[2, 2]",1.0,2.0,0.2621951103210449,1.7853949069976807,0.5265692011430624,139.0,836.0
R,U,"[1, 2]",1.0,3.0,0.23609709739685059,1.8823819160461426,0.6588163309073944,139.0,837.0
G,D,"[2, 2]",1.0,4.0,0.2518501281738281,1.9275429248809814,0.6698435126556249,139.0,838.0
Y,R,"[2, 3]",1.0,5.0,0.30743980407714844,1.9393961429595947,0.6258816503785436,139.0,839.0
R,U,"[1, 3]",-1.0,4.0,0.9151949882507324,2.6384658813476562,0.7142417602683114,139.0,840.0
,,"(3, 3)",,,,,,139.0,
R,U,"[2, 3]",1.0,1.0,0.8800671100616455,3.1610660552978516,0.4921982722542835,,841.0
B,L,"[2, 2]",1.0,2.0,0.2517399787902832,1.6813349723815918,0.42383581822665783,140.0,842.0
G,D,"[3, 2]",-1.0,1.0,0.35811591148376465,1.6737542152404785,0.3144178353253201,140.0,843.0
B,L,"[3, 1]",-2.0,1.0,3.8131489753723145,5.147687911987305,0.29535682048918127,140.0,844.0
B,L,"[3, 0]",-2.0,1.0,2.7670671939849854,4.494659900665283,0.7064392219629003,140.0,845.0
B,L,"[3, 0]",-2.0,1.0,3.3699281215667725,5.102648973464966,0.7091750986054959,140.0,846.0
,,"(3, 3)",,,,,,140.0,
R,U,"[2, 3]",1.0,1.0,0.5887091159820557,3.5248239040374756,0.6511195006682478,,847.0
B,L,"[2, 2]",1.0,2.0,0.23476099967956543,1.751579999923706,0.5023768630554919,141.0,848.0
R,U,"[1, 2]",1.0,3.0,0.27380990982055664,1.6568388938903809,0.3760426933189265,141.0,849.0
G,D,"[2, 2]",1.0,4.0,0.2590031623840332,1.989089012145996,0.7316310994236784,141.0,850.0
Y,R,"[2, 3]",1.0,5.0,0.2550699710845947,1.7250339984893799,0.45694318695746444,141.0,851.0
R,U,"[1, 3]",-1.0,4.0,0.24132394790649414,1.5913639068603516,0.3483348838648814,141.0,852.0
,,"(3, 3)",,,,,,141.0,
R,U,"[2, 3]",1.0,1.0,0.6456220149993896,3.0553829669952393,0.453963714012816,,853.0
B,L,"[2, 2]",1.0,2.0,0.21051788330078125,1.8350450992584229,0.6220061364022196,142.0,854.0
R,U,"[1, 2]",1.0,3.0,0.24346017837524414,1.6271800994873047,0.3826535910494296,142.0,855.0
G,D,"[2, 2]",1.0,4.0,0.25094008445739746,1.7534000873565674,0.5027183280132383,142.0,856.0
Y,R,"[2, 3]",1.0,5.0,0.28116798400878906,1.9724299907684326,0.6915984535995432,142.0,857.0
G,D,"[3, 3]",-2.0,3.0,0.671442985534668,2.415292978286743,0.7407262679590447,142.0,858.0
,,"(3, 3)",,,,,,142.0,
R,U,"[2, 3]",1.0,1.0,0.523474931716919,2.1172330379486084,0.2578243270781315,,859.0
B,L,"[2, 2]",1.0,2.0,0.4693269729614258,2.194424867630005,0.7352711295073389,143.0,860.0
R,U,"[1, 2]",1.0,3.0,0.2742910385131836,1.5604441165924072,0.27960400102433663,143.0,861.0
G,D,"[2, 2]",1.0,4.0,0.21901798248291016,1.8179309368133545,0.5638915663733319,143.0,862.0
Y,R,"[2, 3]",1.0,5.0,0.26915407180786133,1.9705040454864502,0.6844477801768891,143.0,863.0
B,L,"[2, 2]",1.0,6.0,0.23843908309936523,1.630526065826416,0.38184060391228775,143.0,864.0
,,"(3, 3)",,,,,,143.0,
R,U,"[2, 3]",1.0,1.0,0.44567394256591797,2.472559928894043,0.4544345669331898,,865.0
B,L,"[2, 2]",1.0,2.0,0.23072195053100586,1.6549220085144043,0.425994637699862,144.0,866.0
R,U,"[1, 2]",1.0,3.0,0.3726379871368408,2.096081018447876,0.7218195423664474,144.0,867.0
G,D,"[2, 2]",1.0,4.0,0.21175503730773926,1.8895940780639648,0.6781153475610473,144.0,868.0
Y,R,"[2, 3]",1.0,5.0,0.23056793212890625,1.7861809730529785,0.5644328214887316,144.0,869.0
B,L,"[2, 2]",1.0,6.0,0.2315230369567871,1.9502818584442139,0.7146165268592835,144.0,870.0
,,"(3, 3)",,,,,,144.0,
R,U,"[2, 3]",1.0,1.0,0.4721798896789551,2.7465169429779053,0.6945602888970268,,871.0
B,L,"[2, 2]",1.0,2.0,0.21660208702087402,1.8696980476379395,0.6476485589838299,145.0,872.0
R,U,"[1, 2]",1.0,3.0,0.20321393013000488,1.7868821620941162,0.568026660523054,145.0,873.0
G,D,"[2, 2]",1.0,4.0,0.885807991027832,2.6478137969970703,0.7489567714008736,145.0,874.0
Y,R,"[2, 3]",1.0,5.0,0.27214789390563965,1.6613268852233887,0.37737704135931155,145.0,875.0
B,L,"[2, 2]",1.0,6.0,0.21693110466003418,1.7894649505615234,0.5666811034552461,145.0,876.0
,,"(3, 3)",,,,,,145.0,
R,U,"[2, 3]",1.0,1.0,0.40677309036254883,2.1735970973968506,0.42380187635012384,,877.0
B,L,"[2, 2]",1.0,2.0,0.21736788749694824,1.727005958557129,0.5008357370463234,146.0,878.0
R,U,"[1, 2]",1.0,3.0,0.2131199836730957,1.6011500358581543,0.385306809267377,146.0,879.0
G,D,"[2, 2]",1.0,4.0,0.23825502395629883,1.5148308277130127,0.2669818782128827,146.0,880.0
Y,R,"[2, 3]",1.0,5.0,0.27570390701293945,1.817051887512207,0.533889503428757,146.0,881.0
B,L,"[2, 2]",1.0,6.0,0.2531001567840576,1.8960731029510498,0.6299639548974811,146.0,882.0
,,"(3, 3)",,,,,,146.0,
R,U,"[2, 3]",1.0,1.0,0.737774133682251,2.400667190551758,0.3141805098328464,,883.0
B,L,"[2, 2]",1.0,2.0,0.2279958724975586,1.6098558902740479,0.3740228838085478,147.0,884.0
R,U,"[1, 2]",1.0,3.0,0.2511179447174072,1.5892448425292969,0.33006458691823143,147.0,885.0
G,D,"[2, 2]",1.0,4.0,0.19459199905395508,1.833704948425293,0.630060071059179,147.0,886.0
Y,R,"[2, 3]",1.0,5.0,0.3031291961669922,1.5912280082702637,0.27169193264201014,147.0,887.0
B,L,"[2, 2]",1.0,6.0,0.20560407638549805,1.820723056793213,0.6088227853114566,147.0,888.0
,,"(3, 3)",,,,,,147.0,
R,U,"[2, 3]",1.0,1.0,0.5753231048583984,2.59447979927063,0.4703263510846827,,889.0
B,L,"[2, 2]",1.0,2.0,0.23142099380493164,1.6868388652801514,0.4570946500535702,148.0,890.0
R,U,"[1, 2]",1.0,3.0,0.2179408073425293,1.8030588626861572,0.5767553405775029,148.0,891.0
Y,R,"[1, 3]",-1.0,2.0,0.21186494827270508,1.9544930458068848,0.7309449833786303,148.0,892.0
B,L,"[1, 2]",1.0,3.0,0.21348309516906738,1.72747802734375,0.49203510734948397,148.0,893.0
B,L,"[1, 1]",1.0,4.0,0.18369817733764648,1.8483428955078125,0.6569978848861109,148.0,894.0
,,"(3, 3)",,,,,,148.0,
R,U,"[2, 3]",1.0,1.0,0.44916677474975586,2.496182918548584,0.5366867944473475,,895.0
B,L,"[2, 2]",1.0,2.0,0.34186601638793945,1.6928260326385498,0.346323313453359,149.0,896.0
R,U,"[1, 2]",1.0,3.0,0.1870889663696289,1.53953218460083,0.33580328108033725,149.0,897.0
G,D,"[2, 2]",1.0,4.0,0.14257311820983887,1.793205976486206,0.6455418625981656,149.0,898.0
Y,R,"[2, 3]",1.0,5.0,0.2003629207611084,1.9165849685668945,0.7120273173062618,149.0,899.0
B,L,"[2, 2]",1.0,6.0,0.18576288223266602,1.5106170177459717,0.3230102459449594,149.0,900.0
,,"(3, 3)",,,,,,149.0,
R,U,"[2, 3]",1.0,1.0,0.46891188621520996,2.3595800399780273,0.3658755442806293,,901.0
B,L,"[2, 2]",1.0,2.0,0.24351096153259277,1.7605020999908447,0.5095736141268905,150.0,902.0
R,U,"[1, 2]",1.0,3.0,0.21866822242736816,1.684352159500122,0.46074614410844406,150.0,903.0
G,D,"[2, 2]",1.0,4.0,0.22726702690124512,1.5429680347442627,0.3205560533899101,150.0,904.0
Y,R,"[2, 3]",1.0,5.0,0.34360599517822266,1.8526690006256104,0.5063870749676185,150.0,905.0
B,L,"[2, 2]",1.0,6.0,0.24347686767578125,1.932446002960205,0.688675162403932,150.0,906.0
,,"(3, 3)",,,,,,150.0,
R,U,"[2, 3]",1.0,1.0,0.5265810489654541,2.397078037261963,0.4526091564054709,,907.0
B,L,"[2, 2]",1.0,2.0,0.19519591331481934,1.6231870651245117,0.425949416669954,151.0,908.0
R,U,"[1, 2]",1.0,3.0,0.26558709144592285,1.8675720691680908,0.5934497675031895,151.0,909.0
G,D,"[2, 2]",1.0,4.0,0.19595789909362793,1.5104138851165771,0.3207749788053146,151.0,910.0
Y,R,"[2, 3]",1.0,5.0,0.27853989601135254,1.7658910751342773,0.4866347265959085,151.0,911.0
B,L,"[2, 2]",1.0,6.0,0.19072794914245605,1.618208885192871,0.4214407670905312,151.0,912.0
,,"(3, 3)",,,,,,151.0,
R,U,"[2, 3]",1.0,1.0,0.5097689628601074,2.6442208290100098,0.5322746402303858,,913.0
B,L,"[2, 2]",1.0,2.0,0.19259285926818848,1.716270923614502,0.5153528417136785,152.0,914.0
R,U,"[1, 2]",1.0,3.0,0.20363116264343262,1.907485008239746,0.6889088257131748,152.0,915.0
G,D,"[2, 2]",1.0,4.0,0.2581908702850342,1.8943421840667725,0.6336937328210099,152.0,916.0
Y,R,"[2, 3]",1.0,5.0,0.20276093482971191,1.9159460067749023,0.6996902919786946,152.0,917.0
B,L,"[2, 2]",1.0,6.0,0.24314212799072266,1.6976020336151123,0.447572155366472,152.0,918.0
,,"(3, 3)",,,,,,152.0,
R,U,"[2, 3]",1.0,1.0,0.44634485244750977,2.2077269554138184,0.37197186502232027,,919.0
B,L,"[2, 2]",1.0,2.0,0.21243906021118164,1.7959420680999756,0.5844939183179014,153.0,920.0
R,U,"[1, 2]",1.0,3.0,0.2225499153137207,1.828484058380127,0.5963354674720933,153.0,921.0
Y,R,"[1, 3]",-1.0,2.0,0.2591209411621094,1.706908941268921,0.43677751300830775,153.0,922.0
B,L,"[1, 2]",-1.0,2.0,0.05841398239135742,5.777554035186768,0.5976083578729436,153.0,923.0
B,L,"[1, 1]",1.0,3.0,0.2140500545501709,1.9764389991760254,0.7404549604872355,153.0,924.0
,,"(3, 3)",,,,,,153.0,
R,U,"[2, 3]",1.0,1.0,0.5497980117797852,3.7362070083618164,0.6766659085645859,,925.0
B,L,"[2, 2]",1.0,2.0,0.3232250213623047,1.7640471458435059,0.44108540597451856,154.0,926.0
R,U,"[1, 2]",1.0,3.0,0.24466896057128906,1.7370729446411133,0.4948275514428803,154.0,927.0
G,D,"[2, 2]",1.0,4.0,0.22824597358703613,1.8741278648376465,0.652179587211934,154.0,928.0
Y,R,"[2, 3]",1.0,5.0,0.2599639892578125,1.6767640113830566,0.4124807796808249,154.0,929.0
B,L,"[2, 2]",1.0,6.0,0.3014049530029297,1.9548709392547607,0.6505669675976533,154.0,930.0
,,"(3, 3)",,,,,,154.0,
R,U,"[2, 3]",1.0,1.0,0.5311601161956787,2.4211909770965576,0.28876593800952455,,931.0
B,L,"[2, 2]",1.0,2.0,0.2583339214324951,1.6860899925231934,0.42478888402151693,155.0,932.0
R,U,"[1, 2]",1.0,3.0,0.22827482223510742,1.59617018699646,0.3711359009486098,155.0,933.0
G,D,"[2, 2]",1.0,4.0,0.23631596565246582,1.5830628871917725,0.33757712003414514,155.0,934.0
Y,R,"[2, 3]",1.0,5.0,0.2568380832672119,1.9565629959106445,0.6937581683260158,155.0,935.0
B,L,"[2, 2]",1.0,6.0,0.19293594360351562,1.783398151397705,0.593852545635913,155.0,936.0
,,"(3, 3)",,,,,,155.0,
R,U,"[2, 3]",1.0,1.0,0.5415217876434326,2.2983078956604004,0.35915721608590045,,937.0
B,L,"[2, 2]",1.0,2.0,0.2218949794769287,1.8669660091400146,0.6426197783367373,156.0,938.0
R,U,"[1, 2]",1.0,3.0,0.17699909210205078,1.4347219467163086,0.26109380263650855,156.0,939.0
G,D,"[2, 2]",1.0,4.0,0.2278451919555664,1.719714879989624,0.4971244254035158,156.0,940.0
Y,R,"[2, 3]",1.0,5.0,0.2334139347076416,1.9289920330047607,0.6763549162421831,156.0,941.0
B,L,"[2, 2]",1.0,6.0,0.19977688789367676,1.505444049835205,0.28191062286283186,156.0,942.0
,,"(3, 3)",,,,,,156.0,
R,U,"[2, 3]",1.0,1.0,0.3794369697570801,2.8568339347839355,0.5717447449075097,,943.0
B,L,"[2, 2]",1.0,2.0,0.20427298545837402,1.4837489128112793,0.2724669452574015,157.0,944.0
R,U,"[1, 2]",1.0,3.0,0.2619900703430176,1.6040401458740234,0.34318804091972877,157.0,945.0
G,D,"[2, 2]",1.0,4.0,0.21519899368286133,1.8166320323944092,0.6095879711965978,157.0,946.0
Y,R,"[2, 3]",1.0,5.0,0.20940899848937988,1.8075051307678223,0.6004879123353402,157.0,947.0
B,L,"[2, 2]",1.0,6.0,0.22003817558288574,1.6102290153503418,0.37769577596721854,157.0,948.0
,,"(3, 3)",,,,,,157.0,
R,U,"[2, 3]",1.0,1.0,0.440662145614624,2.3542850017547607,0.41536074080895485,,949.0
B,L,"[2, 2]",1.0,2.0,0.3165709972381592,1.8938629627227783,0.5590731531103552,158.0,950.0
R,U,"[1, 2]",1.0,3.0,0.19622302055358887,1.6039061546325684,0.412879941493258,158.0,951.0
G,D,"[2, 2]",1.0,4.0,0.19452500343322754,1.8679289817810059,0.6641359312383689,158.0,952.0
Y,R,"[2, 3]",1.0,5.0,0.2049880027770996,1.743199110031128,0.5241098459373024,158.0,953.0
B,L,"[2, 2]",1.0,6.0,0.23163318634033203,1.9813611507415771,0.7386272910856044,158.0,954.0
,,"(3, 3)",,,,,,158.0,
R,U,"[2, 3]",1.0,1.0,0.3934900760650635,2.374660015106201,0.6134264033505522,,955.0
B,L,"[2, 2]",1.0,2.0,0.185014009475708,1.6314959526062012,0.4285042952597996,159.0,956.0
R,U,"[1, 2]",1.0,3.0,0.19394302368164062,1.6904559135437012,0.5022176626174639,159.0,957.0
G,D,"[2, 2]",1.0,4.0,0.2536320686340332,1.753326177597046,0.505529065599646,159.0,958.0
Y,R,"[2, 3]",1.0,5.0,0.1897110939025879,1.5225379467010498,0.3283212363783183,159.0,959.0
B,L,"[2, 2]",1.0,6.0,0.2570369243621826,1.7473678588867188,0.4922003030553224,159.0,960.0
,,"(3, 3)",,,,,,159.0,
R,U,"[2, 3]",1.0,1.0,0.4745829105377197,2.827483892440796,0.48641793786567133,,961.0
B,L,"[2, 2]",1.0,2.0,0.2708580493927002,1.7054319381713867,0.4419704642220145,160.0,962.0
R,U,"[1, 2]",1.0,3.0,0.2118220329284668,1.9197280406951904,0.7113144133899768,160.0,963.0
G,D,"[2, 2]",1.0,4.0,0.20832395553588867,1.8166611194610596,0.6114874629910672,160.0,964.0
Y,R,"[2, 3]",1.0,5.0,0.1477200984954834,1.4586880207061768,0.32055349125138677,160.0,965.0
B,L,"[2, 2]",1.0,6.0,0.23389506340026855,1.6418230533599854,0.4123143824444078,160.0,966.0
,,"(3, 3)",,,,,,160.0,
R,U,"[2, 3]",1.0,1.0,0.5414841175079346,2.103661060333252,0.26605751626403135,,967.0
B,L,"[2, 2]",1.0,2.0,0.21217703819274902,1.6693007946014404,0.45205760064653255,161.0,968.0
R,U,"[1, 2]",1.0,3.0,0.20052695274353027,1.6938400268554688,0.4790009129363654,161.0,969.0
G,D,"[2, 2]",1.0,4.0,0.23448705673217773,1.7381579875946045,0.5005325786315797,161.0,970.0
Y,R,"[2, 3]",1.0,5.0,0.22135591506958008,1.9512391090393066,0.7182336532192928,161.0,971.0
B,L,"[2, 2]",1.0,6.0,0.25227808952331543,1.743690013885498,0.4790371709506428,161.0,972.0
,,"(3, 3)",,,,,,161.0,
R,U,"[2, 3]",1.0,1.0,0.5533411502838135,2.5762767791748047,0.6053458377859586,,973.0
B,L,"[2, 2]",-1.0,1.0,0.022029876708984375,5.432301998138428,0.2878195253136128,162.0,974.0
B,L,"[2, 1]",1.0,2.0,0.2356400489807129,1.8677570819854736,0.6220495412267814,162.0,975.0
R,U,"[1, 1]",1.0,3.0,0.2982020378112793,2.037903070449829,0.7431666285146998,162.0,976.0
G,D,"[2, 1]",1.0,4.0,0.21986889839172363,1.9475808143615723,0.7239867286682922,162.0,977.0
Y,R,"[2, 2]",1.0,5.0,0.23309588432312012,1.9340898990631104,0.6915517653916228,162.0,978.0
,,"(3, 3)",,,,,,162.0,
R,U,"[2, 3]",-2.0,0.0,1.0407650470733643,4.055345058441162,0.5305822611900337,,979.0
B,L,"[2, 2]",1.0,1.0,0.17131900787353516,1.6621050834655762,0.4760047842845666,163.0,980.0
R,U,"[1, 2]",1.0,2.0,0.2026050090789795,1.6946630477905273,0.48729366829098847,163.0,981.0
G,D,"[2, 2]",1.0,3.0,0.20709896087646484,1.9226999282836914,0.7097708266884724,163.0,982.0
Y,R,"[2, 3]",1.0,4.0,0.1954958438873291,1.4756309986114502,0.2859048196492454,163.0,983.0
B,L,"[2, 2]",1.0,5.0,0.327164888381958,1.8150238990783691,0.4840735639045715,163.0,984.0
,,"(3, 3)",,,,,,163.0,
R,U,"[2, 3]",1.0,1.0,0.45039987564086914,2.119577169418335,0.2872431783737525,,985.0
B,L,"[2, 2]",1.0,2.0,0.2671358585357666,1.8196580410003662,0.5400437446179682,164.0,986.0
R,U,"[1, 2]",-1.0,2.0,0.03266787528991699,5.410861015319824,0.2511894610769984,164.0,987.0
G,D,"[2, 2]",1.0,3.0,0.22528409957885742,1.6822609901428223,0.44996921284171165,164.0,988.0
Y,R,"[2, 3]",1.0,4.0,0.23864006996154785,1.8048279285430908,0.5546024556547529,164.0,989.0
B,L,"[2, 2]",1.0,5.0,0.22492313385009766,1.5450401306152344,0.31671419091410935,164.0,990.0
,,"(3, 3)",,,,,,164.0,
R,U,"[2, 3]",1.0,1.0,0.4634230136871338,2.328885078430176,0.37884795398132265,,991.0
B,L,"[2, 2]",1.0,2.0,0.2035679817199707,1.7855679988861084,0.5979207875662191,165.0,992.0
R,U,"[1, 2]",1.0,3.0,0.1964128017425537,1.5759000778198242,0.37384946595103924,165.0,993.0
G,D,"[2, 2]",1.0,4.0,0.21169590950012207,1.6076278686523438,0.39800198657146524,165.0,994.0
Y,R,"[2, 3]",1.0,5.0,0.2201249599456787,1.5211122035980225,0.28598227916108127,165.0,995.0
B,L,"[2, 2]",1.0,6.0,0.2455458641052246,1.5506339073181152,0.3032376999309151,165.0,996.0
,,"(3, 3)",,,,,,165.0,
R,U,"[2, 3]",1.0,1.0,0.47232890129089355,2.444192886352539,0.41410682677976846,,997.0
B,L,"[2, 2]",1.0,2.0,0.1897130012512207,1.7139191627502441,0.5112478489908794,166.0,998.0
R,U,"[1, 2]",1.0,3.0,0.20258307456970215,1.8418569564819336,0.636259923369171,166.0,999.0
G,D,"[2, 2]",1.0,4.0,0.21565485000610352,1.579880952835083,0.36657104066548307,166.0,1000.0
Y,R,"[2, 3]",1.0,5.0,0.32533884048461914,1.853114128112793,0.5194807517150866,166.0,1001.0
B,L,"[2, 2]",1.0,6.0,0.21437406539916992,1.735584020614624,0.5218472278122323,166.0,1002.0
,,"(3, 3)",,,,,,166.0,
R,U,"[2, 3]",1.0,1.0,0.4489760398864746,2.284852981567383,0.456798393293468,,1003.0
B,L,"[2, 2]",1.0,2.0,0.24904203414916992,1.5730290412902832,0.31334993402496575,167.0,1004.0
R,U,"[1, 2]",1.0,3.0,0.2485489845275879,1.9755859375,0.7050986444542094,167.0,1005.0
G,D,"[2, 2]",1.0,4.0,0.22496700286865234,1.8737051486968994,0.6455967964252973,167.0,1006.0
Y,R,"[2, 3]",1.0,5.0,0.21254992485046387,1.6252779960632324,0.4212638728844153,167.0,1007.0
B,L,"[2, 2]",1.0,6.0,0.2681300640106201,1.6683368682861328,0.3896684814028531,167.0,1008.0
,,"(3, 3)",,,,,,167.0,
R,U,"[2, 3]",1.0,1.0,0.3448469638824463,2.0961689949035645,0.3856747295324591,,1009.0
B,L,"[2, 2]",1.0,2.0,0.24954986572265625,1.6242620944976807,0.3600602399576854,168.0,1010.0
R,U,"[1, 2]",1.0,3.0,0.23433303833007812,1.959650993347168,0.7192724389070356,168.0,1011.0
G,D,"[2, 2]",1.0,4.0,0.4263160228729248,1.8394949436187744,0.4091717906470787,168.0,1012.0
Y,R,"[2, 3]",1.0,5.0,0.2593200206756592,1.6486499309539795,0.39119291395171957,168.0,1013.0
B,L,"[2, 2]",1.0,6.0,0.2633039951324463,1.5917720794677734,0.33309881241493783,168.0,1014.0
,,"(3, 3)",,,,,,168.0,
R,U,"[2, 3]",1.0,1.0,0.4381120204925537,2.321329116821289,0.40426469519362485,,1015.0
B,L,"[2, 2]",1.0,2.0,0.2837698459625244,1.5639369487762451,0.26833247541785915,169.0,1016.0
R,U,"[1, 2]",1.0,3.0,0.37619495391845703,1.9855608940124512,0.6037242900444642,169.0,1017.0
G,D,"[2, 2]",1.0,4.0,0.2638869285583496,1.742156982421875,0.47936362263626325,169.0,1018.0
Y,R,"[2, 3]",1.0,5.0,0.2704308032989502,1.9400060176849365,0.6691467763517488,169.0,1019.0
B,L,"[2, 2]",1.0,6.0,0.29059886932373047,1.6191191673278809,0.3218909518599052,169.0,1020.0
,,"(3, 3)",,,,,,169.0,
R,U,"[2, 3]",1.0,1.0,0.4880340099334717,2.800544023513794,0.5224300910904844,,1021.0
B,L,"[2, 2]",1.0,2.0,0.26371002197265625,1.6257200241088867,0.36497953563753627,170.0,1022.0
G,D,"[3, 2]",-1.0,1.0,0.2508530616760254,1.9192547798156738,0.6506033210083092,170.0,1023.0
B,L,"[3, 1]",1.0,2.0,0.23343992233276367,1.697072982788086,0.44734002449211474,170.0,1024.0
B,L,"[3, 0]",0.0,2.0,0.279127836227417,1.5975830554962158,0.3123620273589506,170.0,1025.0
B,L,"[3, 0]",0.0,2.0,0.2389509677886963,1.5846290588378906,0.34714694842877614,170.0,1026.0
,,"(3, 3)",,,,,,170.0,
R,U,"[2, 3]",1.0,1.0,0.5114388465881348,3.398685932159424,0.6121107902132465,,1027.0
B,L,"[2, 2]",1.0,2.0,0.2288827896118164,1.5277228355407715,0.3069743088207313,171.0,1028.0
R,U,"[1, 2]",1.0,3.0,0.2813889980316162,1.7782177925109863,0.4849589674177315,171.0,1029.0
G,D,"[2, 2]",1.0,4.0,0.39153480529785156,1.7451198101043701,0.34682428425387507,171.0,1030.0
Y,R,"[2, 3]",1.0,5.0,0.7892980575561523,2.1289968490600586,0.3259748257815449,171.0,1031.0
B,L,"[2, 2]",1.0,6.0,0.25371789932250977,1.5948429107666016,0.3374769114409204,171.0,1032.0
,,"(3, 3)",,,,,,171.0,
R,U,"[2, 3]",1.0,1.0,0.4684410095214844,2.9592528343200684,0.4797240639042458,,1033.0
B,L,"[2, 2]",1.0,2.0,0.29343700408935547,1.7253530025482178,0.42198019359590994,172.0,1034.0
R,U,"[1, 2]",1.0,3.0,0.30761003494262695,1.933258056640625,0.6217404624142041,172.0,1035.0
G,D,"[2, 2]",1.0,4.0,0.3512139320373535,1.9055171012878418,0.5441663315404617,172.0,1036.0
Y,R,"[2, 3]",1.0,5.0,0.47027015686035156,1.7289681434631348,0.25680220207564786,172.0,1037.0
B,L,"[2, 2]",1.0,6.0,0.49701905250549316,2.1460540294647217,0.6524171159398062,172.0,1038.0
,,"(3, 3)",,,,,,172.0,
R,U,"[2, 3]",1.0,1.0,0.47180700302124023,2.4948160648345947,0.33090971320857554,,1039.0
B,L,"[2, 2]",1.0,2.0,0.41416501998901367,2.129055976867676,0.7097015028701847,173.0,1040.0
R,U,"[1, 2]",1.0,3.0,0.34492993354797363,1.9134418964385986,0.5730776500199368,173.0,1041.0
G,D,"[2, 2]",1.0,4.0,0.6082961559295654,2.245310068130493,0.6352315122669154,173.0,1042.0
Y,R,"[2, 3]",1.0,5.0,0.2620580196380615,1.6785509586334229,0.4139716152295682,173.0,1043.0
B,L,"[2, 2]",1.0,6.0,0.4148368835449219,2.150357961654663,0.7306773519129836,173.0,1044.0
,,"(3, 3)",,,,,,173.0,
R,U,"[2, 3]",1.0,1.0,0.8328030109405518,2.9650330543518066,0.36279576559454263,,1045.0
B,L,"[2, 2]",1.0,2.0,0.6045539379119873,1.9475529193878174,0.3104879043786649,174.0,1046.0
R,U,"[1, 2]",1.0,3.0,0.5231587886810303,1.8789501190185547,0.3559945261667597,174.0,1047.0
G,D,"[2, 2]",1.0,4.0,0.27373600006103516,1.9186069965362549,0.6410576914409856,174.0,1048.0
Y,R,"[2, 3]",1.0,5.0,0.33619093894958496,1.8701448440551758,0.5280108726774773,174.0,1049.0
B,L,"[2, 2]",1.0,6.0,0.2779521942138672,1.8157908916473389,0.5437887159315178,174.0,1050.0
,,"(3, 3)",,,,,,174.0,
R,U,"[2, 3]",1.0,1.0,0.43001508712768555,2.767503023147583,0.5949146150098281,,1051.0
B,L,"[2, 2]",1.0,2.0,0.2772829532623291,1.600797176361084,0.32903331602230107,175.0,1052.0
R,U,"[1, 2]",1.0,3.0,0.5145289897918701,1.8907020092010498,0.3528842462912882,175.0,1053.0
G,D,"[2, 2]",1.0,4.0,0.32709288597106934,1.6264421939849854,0.29629022229356167,175.0,1054.0
Y,R,"[2, 3]",1.0,5.0,0.5635240077972412,1.853485107421875,0.28315796551933803,175.0,1055.0
B,L,"[2, 2]",1.0,6.0,0.8032598495483398,2.068934917449951,0.2521638278468314,175.0,1056.0
,,"(3, 3)",,,,,,175.0,
R,U,"[2, 3]",1.0,1.0,0.5187909603118896,3.0267210006713867,0.6454010290393024,,1057.0
B,L,"[2, 2]",1.0,2.0,0.3810760974884033,2.1174190044403076,0.7292485149207505,176.0,1058.0
R,U,"[1, 2]",1.0,3.0,0.22677111625671387,1.7673571109771729,0.53007168881625,176.0,1059.0
G,D,"[2, 2]",1.0,4.0,0.5042681694030762,1.8752119541168213,0.37216200088707,176.0,1060.0
Y,R,"[2, 3]",1.0,5.0,0.3595559597015381,2.0156049728393555,0.6543298933435581,176.0,1061.0
B,L,"[2, 2]",1.0,6.0,0.5119528770446777,2.187087059020996,0.6747405721285136,176.0,1062.0
,,"(3, 3)",,,,,,176.0,
R,U,"[2, 3]",1.0,1.0,0.4581770896911621,2.6706581115722656,0.7118621384737588,,1063.0
B,L,"[2, 2]",1.0,2.0,0.2922542095184326,1.632904052734375,0.3452890810914028,177.0,1064.0
G,D,"[3, 2]",-1.0,1.0,0.6278200149536133,2.3608131408691406,0.7394056408827742,177.0,1065.0
B,L,"[3, 1]",1.0,2.0,0.10726690292358398,1.4091448783874512,0.29877591614168003,177.0,1066.0
B,L,"[3, 0]",0.0,2.0,0.5679829120635986,1.9871349334716797,0.41902861558780313,177.0,1067.0
B,L,"[3, 0]",0.0,2.0,0.23842692375183105,1.9944519996643066,0.7465886155176659,177.0,1068.0
,,"(3, 3)",,,,,,177.0,
R,U,"[2, 3]",1.0,1.0,0.5417590141296387,2.32956600189209,0.4099021729406434,,1069.0
B,L,"[2, 2]",1.0,2.0,0.27603697776794434,1.8007290363311768,0.5271033144035135,178.0,1070.0
R,U,"[1, 2]",1.0,3.0,0.374920129776001,1.757098913192749,0.38434012453976046,178.0,1071.0
G,D,"[2, 2]",1.0,4.0,0.46335792541503906,1.976470947265625,0.5108553448102873,178.0,1072.0
Y,R,"[2, 3]",1.0,5.0,0.33168506622314453,1.6902530193328857,0.35118251856117777,178.0,1073.0
B,L,"[2, 2]",1.0,6.0,0.39270997047424316,2.0387580394744873,0.6397256983592841,178.0,1074.0
,,"(3, 3)",,,,,,178.0,
R,U,"[2, 3]",1.0,1.0,0.3894059658050537,2.996838092803955,0.4867525269761953,,1075.0
