button_choice,action_choice,coordinate_choice,reward,cumulative_reward,rt,total_trial_time,iti,block_n,trial_n
B,L,"[3, 2]",-2.0,0.0,2.0654561519622803,3.5007808208465576,0.4016091909650328,0.0,1.0
G,D,"[4, 2]",-1.0,-1.0,0.98471999168396,2.537034034729004,0.5386659871505365,0.0,2.0
Y,R,"[4, 3]",-2.0,-1.0,1.7051749229431152,3.4486429691314697,0.7201786351616339,0.0,3.0
R,U,"[3, 3]",0.0,-1.0,0.35711216926574707,1.6874070167541504,0.324496841910975,0.0,4.0
G,D,"[4, 3]",0.0,-1.0,0.34970712661743164,1.9171350002288818,0.5747906868394981,0.0,5.0
B,L,"[4, 2]",0.0,-1.0,0.330981969833374,1.7505221366882324,0.42533827527877976,0.0,6.0
,,"(3, 3)",,,,,,0.0,
B,L,"[3, 2]",1.0,1.0,0.9274158477783203,9.30729603767395,0.3825286885448713,,7.0
G,D,"[4, 2]",-1.0,0.0,0.5622091293334961,2.134510040283203,0.5501205187752607,1.0,8.0
B,L,"[4, 1]",-1.0,-1.0,0.6470701694488525,1.9248847961425781,0.27532674032514837,1.0,9.0
Y,R,"[4, 2]",0.0,-1.0,0.7971088886260986,2.2704389095306396,0.4786211101332933,1.0,10.0
R,U,"[3, 2]",0.0,-1.0,0.5494499206542969,2.2623372077941895,0.7240837503580952,1.0,11.0
G,D,"[4, 2]",0.0,-1.0,0.39780211448669434,1.8258259296417236,0.43337728973748846,1.0,12.0
,,"(3, 3)",,,,,,1.0,
Y,R,"[3, 4]",-1.0,-1.0,0.7509708404541016,8.137976884841919,0.587638236895766,,13.0
B,L,"[3, 3]",0.0,-1.0,0.4629678726196289,2.15513277053833,0.692422671175204,2.0,14.0
G,D,"[4, 3]",-1.0,-2.0,0.2781970500946045,1.5968499183654785,0.30639419427776377,2.0,15.0
R,U,"[3, 3]",0.0,-2.0,0.4648780822753906,1.822171926498413,0.3617081166009572,2.0,16.0
B,L,"[3, 2]",1.0,-1.0,0.2061479091644287,1.9190220832824707,0.7137214361857809,2.0,17.0
Y,R,"[3, 3]",0.0,-1.0,0.2899599075317383,1.6288621425628662,0.3261476549470704,2.0,18.0
,,"(3, 3)",,,,,,2.0,
B,L,"[3, 2]",1.0,1.0,0.5092360973358154,4.285465955734253,0.34493875482823955,,19.0
B,L,"[3, 1]",1.0,2.0,0.322829008102417,1.6592109203338623,0.33751325552102435,3.0,20.0
B,L,"[3, 0]",0.0,2.0,0.34201502799987793,1.6947507858276367,0.3486753003989803,3.0,21.0
G,D,"[4, 0]",0.0,2.0,0.44801878929138184,2.1314780712127686,0.6797950863192935,3.0,22.0
B,L,"[4, 0]",0.0,2.0,0.35961008071899414,1.7922379970550537,0.42200328000860593,3.0,23.0
R,U,"[3, 0]",0.0,2.0,0.3922281265258789,1.9839019775390625,0.5894622366756951,3.0,24.0
,,"(3, 3)",,,,,,3.0,
B,L,"[3, 2]",1.0,1.0,0.6643679141998291,7.705931901931763,0.594832430705641,,25.0
B,L,"[3, 1]",1.0,2.0,0.2878909111022949,1.9589848518371582,0.6704479599371249,4.0,26.0
B,L,"[3, 0]",0.0,2.0,0.341094970703125,1.6863679885864258,0.3404184826132559,4.0,27.0
Y,R,"[3, 1]",0.0,2.0,0.5878109931945801,2.320380926132202,0.7270081306001138,4.0,28.0
G,D,"[4, 1]",-1.0,1.0,0.7230441570281982,2.2808849811553955,0.5578758017328471,4.0,29.0
Y,R,"[4, 2]",-1.0,0.0,0.41168999671936035,1.70438814163208,0.29596999737123253,4.0,30.0
,,"(3, 3)",,,,,,4.0,
B,L,"[3, 2]",1.0,1.0,0.5021858215332031,6.042298078536987,0.5209537124166552,,31.0
B,L,"[3, 1]",1.0,2.0,0.2794928550720215,1.8426120281219482,0.563846682945456,5.0,32.0
B,L,"[3, 0]",0.0,2.0,0.38257789611816406,2.0663530826568604,0.6798144991491496,5.0,33.0
Y,R,"[3, 1]",0.0,2.0,0.7918481826782227,2.1032350063323975,0.29997401360956594,5.0,34.0
Y,R,"[3, 2]",0.0,2.0,0.6808109283447266,1.9972100257873535,0.31372997407521286,5.0,35.0
G,D,"[4, 2]",-1.0,1.0,0.5328397750854492,2.0925228595733643,0.5394071186667349,5.0,36.0
,,"(3, 3)",,,,,,5.0,
B,L,"[3, 2]",1.0,1.0,0.8177080154418945,4.5073630809783936,0.4966115469123028,,37.0
B,L,"[3, 1]",1.0,2.0,0.24876093864440918,1.647603988647461,0.3774903882644101,6.0,38.0
B,L,"[3, 0]",0.0,2.0,0.6892800331115723,2.291985034942627,0.6024162952936771,6.0,39.0
Y,R,"[3, 1]",0.0,2.0,0.7752399444580078,2.361480951309204,0.5807547282166517,6.0,40.0
B,L,"[3, 0]",0.0,2.0,0.38559889793395996,1.7446510791778564,0.3588997920189983,6.0,41.0
B,L,"[3, 0]",0.0,2.0,0.3902888298034668,2.031975030899048,0.6404654544590396,6.0,42.0
,,"(3, 3)",,,,,,6.0,
B,L,"[3, 2]",1.0,1.0,0.6548898220062256,3.411597967147827,0.26910042708700305,,43.0
B,L,"[3, 1]",1.0,2.0,0.48336005210876465,1.8122291564941406,0.33110754572950823,7.0,44.0
B,L,"[3, 0]",0.0,2.0,0.6926100254058838,2.0379838943481445,0.3356920753220186,7.0,45.0
Y,R,"[3, 1]",0.0,2.0,0.3372011184692383,1.6940560340881348,0.36301778515628014,7.0,46.0
B,L,"[3, 0]",0.0,2.0,0.31705617904663086,1.824186086654663,0.5036633874265453,7.0,47.0
Y,R,"[3, 1]",0.0,2.0,0.3093698024749756,1.8277299404144287,0.5146689602986866,7.0,48.0
,,"(3, 3)",,,,,,7.0,
B,L,"[3, 2]",1.0,1.0,0.5949540138244629,3.4683618545532227,0.6829345082485709,,49.0
B,L,"[3, 1]",1.0,2.0,0.19231891632080078,1.5059809684753418,0.30557662872783187,8.0,50.0
B,L,"[3, 0]",0.0,2.0,0.38225889205932617,1.8273530006408691,0.44975238805766654,8.0,51.0
Y,R,"[3, 1]",0.0,2.0,0.2960190773010254,1.781329870223999,0.4806450713347209,8.0,52.0
B,L,"[3, 0]",0.0,2.0,0.30454587936401367,1.7493488788604736,0.43010863513132985,8.0,53.0
Y,R,"[3, 1]",0.0,2.0,0.4284210205078125,1.9961731433868408,0.5592416450655897,8.0,54.0
,,"(3, 3)",,,,,,8.0,
B,L,"[3, 2]",-2.0,0.0,1.0570218563079834,3.6332521438598633,0.5260987012472571,,55.0
B,L,"[3, 1]",1.0,1.0,0.4567539691925049,1.828693151473999,0.3713679983813032,9.0,56.0
B,L,"[3, 0]",0.0,1.0,0.23378705978393555,1.8608269691467285,0.6322086431593483,9.0,57.0
Y,R,"[3, 1]",0.0,1.0,0.25571489334106445,1.994575023651123,0.7263776801400739,9.0,58.0
B,L,"[3, 0]",0.0,1.0,0.20138812065124512,1.5415818691253662,0.3516820523251037,9.0,59.0
Y,R,"[3, 1]",0.0,1.0,0.30933284759521484,1.7523648738861084,0.43713338344287395,9.0,60.0
,,"(3, 3)",,,,,,9.0,
B,L,"[3, 2]",1.0,1.0,0.2814748287200928,3.328786849975586,0.7487345644348568,,61.0
B,L,"[3, 1]",1.0,2.0,0.18803620338439941,1.4865851402282715,0.28576715949848125,10.0,62.0
B,L,"[3, 0]",0.0,2.0,0.33953285217285156,1.8100311756134033,0.46231033396634186,10.0,63.0
Y,R,"[3, 1]",0.0,2.0,0.23581600189208984,1.8176031112670898,0.5962367345894404,10.0,64.0
B,L,"[3, 0]",0.0,2.0,0.19816112518310547,1.8499500751495361,0.6461324122388852,10.0,65.0
Y,R,"[3, 1]",0.0,2.0,0.2251148223876953,1.8287379741668701,0.5916075792234146,10.0,66.0
,,"(3, 3)",,,,,,10.0,
B,L,"[3, 2]",1.0,1.0,0.2845590114593506,2.848098039627075,0.7226480294137838,,67.0
B,L,"[3, 1]",1.0,2.0,0.21740484237670898,1.7991609573364258,0.588620414870476,11.0,68.0
Y,R,"[3, 2]",0.0,2.0,0.2514021396636963,1.5246708393096924,0.2636746102949737,11.0,69.0
B,L,"[3, 1]",0.0,2.0,0.1250770092010498,1.7505970001220703,0.6138602470035077,11.0,70.0
Y,R,"[3, 2]",0.0,2.0,0.21502900123596191,1.807379961013794,0.5879011984079006,11.0,71.0
B,L,"[3, 1]",0.0,2.0,0.40946507453918457,1.6629931926727295,0.2509643884934286,11.0,72.0
,,"(3, 3)",,,,,,11.0,
B,L,"[3, 2]",1.0,1.0,0.7720310688018799,3.3071000576019287,0.40796839513462313,,73.0
B,L,"[3, 1]",1.0,2.0,0.17620110511779785,1.7660160064697266,0.5904704210404863,12.0,74.0
Y,R,"[3, 2]",0.0,2.0,0.17156314849853516,1.8816571235656738,0.7049957332301828,12.0,75.0
B,L,"[3, 1]",0.0,2.0,0.3363640308380127,1.672590970993042,0.3280784348715748,12.0,76.0
Y,R,"[3, 2]",0.0,2.0,0.3635280132293701,2.096158027648926,0.7402973616220347,12.0,77.0
B,L,"[3, 1]",0.0,2.0,0.5414750576019287,1.8680598735809326,0.32538272762250225,12.0,78.0
,,"(3, 3)",,,,,,12.0,
B,L,"[3, 2]",1.0,1.0,0.6129491329193115,2.901416063308716,0.4433256028715924,,79.0
B,L,"[3, 1]",1.0,2.0,0.31562304496765137,1.871661901473999,0.5646920919766648,13.0,80.0
Y,R,"[3, 2]",0.0,2.0,0.41036391258239746,1.785125970840454,0.3668768228149602,13.0,81.0
B,L,"[3, 1]",0.0,2.0,0.36801886558532715,1.9925711154937744,0.6258976012707413,13.0,82.0
Y,R,"[3, 2]",0.0,2.0,0.3666419982910156,1.734009027481079,0.3766494310131688,13.0,83.0
B,L,"[3, 1]",0.0,2.0,0.5824248790740967,1.9061100482940674,0.3326242024140973,13.0,84.0
,,"(3, 3)",,,,,,13.0,
B,L,"[3, 2]",1.0,1.0,0.9400231838226318,3.396763801574707,0.4457281257977573,,85.0
B,L,"[3, 1]",1.0,2.0,0.47479891777038574,1.9471838474273682,0.45966744308044105,14.0,86.0
Y,R,"[3, 2]",0.0,2.0,0.3391458988189697,1.6917510032653809,0.351444023927566,14.0,87.0
B,L,"[3, 1]",0.0,2.0,0.27112889289855957,1.8143391609191895,0.5488121264128223,14.0,88.0
Y,R,"[3, 2]",0.0,2.0,0.24049901962280273,1.508997917175293,0.2580281822001124,14.0,89.0
B,L,"[3, 1]",0.0,2.0,0.26943302154541016,1.687626838684082,0.4288947889421585,14.0,90.0
,,"(3, 3)",,,,,,14.0,
B,L,"[3, 2]",1.0,1.0,0.41002583503723145,2.2952749729156494,0.3240995883497794,,91.0
B,L,"[3, 1]",1.0,2.0,0.23201894760131836,1.5847949981689453,0.35895489803652997,15.0,92.0
Y,R,"[3, 2]",0.0,2.0,0.3197329044342041,1.6788098812103271,0.3542585906589505,15.0,93.0
B,L,"[3, 1]",0.0,2.0,0.21425604820251465,1.825537919998169,0.6126675401137971,15.0,94.0
Y,R,"[3, 2]",0.0,2.0,0.2200310230255127,1.916301965713501,0.6789212830224121,15.0,95.0
B,L,"[3, 1]",0.0,2.0,0.1945018768310547,1.5731899738311768,0.3691744384505008,15.0,96.0
,,"(3, 3)",,,,,,15.0,
B,L,"[3, 2]",1.0,1.0,0.4424760341644287,2.494176149368286,0.279856409435844,,97.0
B,L,"[3, 1]",1.0,2.0,0.15746212005615234,1.4927010536193848,0.32273657876122686,16.0,98.0
Y,R,"[3, 2]",0.0,2.0,0.24024295806884766,1.651474952697754,0.4072020782361719,16.0,99.0
B,L,"[3, 1]",0.0,2.0,0.1371288299560547,1.6229619979858398,0.4799618286508629,16.0,100.0
Y,R,"[3, 2]",0.0,2.0,0.12120294570922852,1.8655009269714355,0.7284769419206829,16.0,101.0
B,L,"[3, 1]",0.0,2.0,0.25267601013183594,1.8262758255004883,0.5884513822999609,16.0,102.0
,,"(3, 3)",,,,,,16.0,
B,L,"[3, 2]",1.0,1.0,0.5353500843048096,6.872010946273804,0.41018895810156003,,103.0
B,L,"[3, 1]",1.0,2.0,0.18959403038024902,1.8052661418914795,0.6318778500776366,17.0,104.0
Y,R,"[3, 2]",0.0,2.0,0.1350419521331787,1.7157189846038818,0.5642632752468957,17.0,105.0
B,L,"[3, 1]",0.0,2.0,0.18928289413452148,1.6654179096221924,0.4629746865662726,17.0,106.0
Y,R,"[3, 2]",0.0,2.0,0.18958592414855957,1.6103529930114746,0.40684710146719566,17.0,107.0
B,L,"[3, 1]",0.0,2.0,0.19657397270202637,1.5133450031280518,0.32009029123547894,17.0,108.0
,,"(3, 3)",,,,,,17.0,
B,L,"[3, 2]",1.0,1.0,0.535646915435791,3.1706409454345703,0.7401012563186296,,109.0
B,L,"[3, 1]",1.0,2.0,0.2411050796508789,1.9742648601531982,0.7310569632459735,18.0,110.0
Y,R,"[3, 2]",-1.0,2.0,0.023761987686157227,5.626462936401367,0.4742198144047238,18.0,111.0
B,L,"[3, 1]",0.0,2.0,0.43498706817626953,1.9042749404907227,0.46196916014182776,18.0,112.0
Y,R,"[3, 2]",0.0,2.0,0.30495285987854004,1.9356310367584229,0.6472189324694104,18.0,113.0
B,L,"[3, 1]",0.0,2.0,0.22328495979309082,1.5743610858917236,0.33851100191842726,18.0,114.0
,,"(3, 3)",,,,,,18.0,
B,L,"[3, 2]",1.0,1.0,0.745265007019043,3.599745988845825,0.5044783252734266,,115.0
B,L,"[3, 1]",1.0,2.0,0.23429107666015625,1.9652738571166992,0.7201388748711601,19.0,116.0
Y,R,"[3, 2]",0.0,2.0,0.280515193939209,1.9974250793457031,0.7169033174523493,19.0,117.0
B,L,"[3, 1]",0.0,2.0,0.25050997734069824,1.6466410160064697,0.39716605656294307,19.0,118.0
B,L,"[3, 0]",0.0,2.0,0.3064601421356201,1.837317943572998,0.5176476017727744,19.0,119.0
Y,R,"[3, 1]",0.0,2.0,0.2770860195159912,1.8705999851226807,0.5886377005163093,19.0,120.0
,,"(3, 3)",,,,,,19.0,
B,L,"[3, 2]",1.0,1.0,0.6645379066467285,3.038931131362915,0.4937225491900057,,121.0
B,L,"[3, 1]",1.0,2.0,0.22098803520202637,1.457948923110962,0.25180231241544426,20.0,122.0
Y,R,"[3, 2]",0.0,2.0,0.4334070682525635,1.926806926727295,0.49507850115642726,20.0,123.0
B,L,"[3, 1]",0.0,2.0,0.5077121257781982,1.9200291633605957,0.4151124503898559,20.0,124.0
Y,R,"[3, 2]",0.0,2.0,0.28937387466430664,1.8165290355682373,0.5148080606524696,20.0,125.0
B,L,"[3, 1]",0.0,2.0,0.22878599166870117,1.499333143234253,0.2644005386849193,20.0,126.0
,,"(3, 3)",,,,,,20.0,
B,L,"[3, 2]",1.0,1.0,0.6994490623474121,2.9867560863494873,0.45070707442664404,,127.0
B,L,"[3, 1]",1.0,2.0,0.2121891975402832,1.539236068725586,0.323581746576125,21.0,128.0
Y,R,"[3, 2]",0.0,2.0,0.30086398124694824,1.7183871269226074,0.4084984838562134,21.0,129.0
B,L,"[3, 1]",0.0,2.0,0.18854212760925293,1.7285170555114746,0.5366874157181534,21.0,130.0
B,L,"[3, 0]",0.0,2.0,0.19898509979248047,1.5980660915374756,0.401678344250123,21.0,131.0
Y,R,"[3, 1]",0.0,2.0,0.2087721824645996,1.5496301651000977,0.33454527611976786,21.0,132.0
,,"(3, 3)",,,,,,21.0,
B,L,"[3, 2]",1.0,1.0,0.8330070972442627,3.455759048461914,0.6398919804311034,,133.0
B,L,"[3, 1]",1.0,2.0,0.48360705375671387,2.227109909057617,0.7335567149743603,22.0,134.0
Y,R,"[3, 2]",0.0,2.0,0.1934340000152588,1.547806978225708,0.3482292792156879,22.0,135.0
B,L,"[3, 1]",0.0,2.0,0.23424100875854492,1.5788500308990479,0.34366448478961936,22.0,136.0
B,L,"[3, 0]",0.0,2.0,0.2535738945007324,1.9596498012542725,0.71965410770364,22.0,137.0
Y,R,"[3, 1]",0.0,2.0,0.2232048511505127,1.5063190460205078,0.29299528705848643,22.0,138.0
,,"(3, 3)",,,,,,22.0,
B,L,"[3, 2]",1.0,1.0,0.5442690849304199,3.3044509887695312,0.4304173254103105,,139.0
B,L,"[3, 1]",1.0,2.0,0.1762828826904297,1.6159172058105469,0.42960902307158727,23.0,140.0
Y,R,"[3, 2]",0.0,2.0,0.3335111141204834,2.0868821144104004,0.7497450117568606,23.0,141.0
B,L,"[3, 1]",0.0,2.0,0.2682020664215088,1.6354949474334717,0.3687223755910761,23.0,142.0
Y,R,"[3, 2]",0.0,2.0,0.3017880916595459,1.9178919792175293,0.6196603342920068,23.0,143.0
B,L,"[3, 1]",0.0,2.0,0.22108793258666992,1.6555190086364746,0.42549154882840473,23.0,144.0
,,"(3, 3)",,,,,,23.0,
B,L,"[3, 2]",1.0,1.0,0.5121679306030273,2.7707419395446777,0.6789123417490885,,145.0
B,L,"[3, 1]",1.0,2.0,0.2168891429901123,1.7611730098724365,0.5402407382622054,24.0,146.0
Y,R,"[3, 2]",0.0,2.0,0.22771406173706055,1.9370639324188232,0.7103135031165974,24.0,147.0
B,L,"[3, 1]",0.0,2.0,0.1343381404876709,1.8711819648742676,0.7481625395821304,24.0,148.0
Y,R,"[3, 2]",0.0,2.0,0.2528870105743408,1.9201180934906006,0.66830193391199,24.0,149.0
B,L,"[3, 1]",0.0,2.0,0.2382650375366211,1.9486749172210693,0.7003786007278134,24.0,150.0
,,"(3, 3)",,,,,,24.0,
B,L,"[3, 2]",1.0,1.0,0.6112139225006104,2.681286096572876,0.448270777322854,,151.0
B,L,"[3, 1]",1.0,2.0,0.21578478813171387,1.908276081085205,0.6898300828709321,25.0,152.0
Y,R,"[3, 2]",0.0,2.0,0.22188997268676758,1.7194170951843262,0.4923986343697662,25.0,153.0
B,L,"[3, 1]",0.0,2.0,0.26416611671447754,1.9964330196380615,0.7390332717808625,25.0,154.0
Y,R,"[3, 2]",0.0,2.0,0.20805001258850098,1.7185959815979004,0.5073257480311462,25.0,155.0
B,L,"[3, 1]",0.0,2.0,0.2373800277709961,1.5632190704345703,0.3208508397803455,25.0,156.0
,,"(3, 3)",,,,,,25.0,
B,L,"[3, 2]",1.0,1.0,0.4451909065246582,2.4784739017486572,0.31584316512560073,,157.0
B,L,"[3, 1]",1.0,2.0,0.5275390148162842,2.1451079845428467,0.6106294664537014,26.0,158.0
Y,R,"[3, 2]",0.0,2.0,0.2839679718017578,1.8338770866394043,0.5611309119158607,26.0,159.0
B,L,"[3, 1]",0.0,2.0,0.28101086616516113,1.7347190380096436,0.46255331900666613,26.0,160.0
Y,R,"[3, 2]",0.0,2.0,0.2545969486236572,1.577739953994751,0.3068127603965745,26.0,161.0
B,L,"[3, 1]",-2.0,2.0,1.9549140930175781,3.5455589294433594,0.5688010957802401,26.0,162.0
,,"(3, 3)",,,,,,26.0,
B,L,"[3, 2]",1.0,1.0,0.396604061126709,2.5556318759918213,0.5744689571309829,,163.0
B,L,"[3, 1]",1.0,2.0,0.3571648597717285,1.8983402252197266,0.5394079608370518,27.0,164.0
Y,R,"[3, 2]",0.0,2.0,0.2879021167755127,1.6873540878295898,0.3935156965684908,27.0,165.0
B,L,"[3, 1]",0.0,2.0,0.30638599395751953,1.6600620746612549,0.3535628306678758,27.0,166.0
Y,R,"[3, 2]",0.0,2.0,0.35170507431030273,2.0966579914093018,0.7499553511330854,27.0,167.0
Y,R,"[3, 3]",0.0,2.0,0.30580997467041016,1.7038860321044922,0.3873863617827635,27.0,168.0
,,"(3, 3)",,,,,,27.0,
B,L,"[3, 2]",1.0,1.0,0.4604930877685547,2.5167670249938965,0.40412702205081924,,169.0
B,L,"[3, 1]",1.0,2.0,0.2190859317779541,1.48944091796875,0.27662283470740007,28.0,170.0
Y,R,"[3, 2]",0.0,2.0,0.263638973236084,1.579690933227539,0.3231796690562654,28.0,171.0
B,L,"[3, 1]",0.0,2.0,0.19536113739013672,1.732194185256958,0.5382363654492124,28.0,172.0
B,L,"[3, 0]",0.0,2.0,0.1618640422821045,1.4761300086975098,0.3147904501476612,28.0,173.0
Y,R,"[3, 1]",0.0,2.0,0.31351804733276367,1.8017761707305908,0.4829887060001755,28.0,174.0
,,"(3, 3)",,,,,,28.0,
B,L,"[3, 2]",1.0,1.0,0.34169697761535645,2.410681962966919,0.5266783261906894,,175.0
B,L,"[3, 1]",1.0,2.0,0.14554691314697266,1.7347338199615479,0.5946058520913045,29.0,176.0
Y,R,"[3, 2]",0.0,2.0,0.282055139541626,1.9917128086090088,0.7194640366263599,29.0,177.0
B,L,"[3, 1]",0.0,2.0,0.18503689765930176,1.9012789726257324,0.7206086452762963,29.0,178.0
Y,R,"[3, 2]",0.0,2.0,0.18715310096740723,1.4508211612701416,0.27204913906323325,29.0,179.0
B,L,"[3, 1]",0.0,2.0,0.562255859375,2.2307369709014893,0.6687898255574469,29.0,180.0
,,"(3, 3)",,,,,,29.0,
B,L,"[3, 2]",1.0,1.0,0.48087406158447266,2.7158420085906982,0.6013380918306377,,181.0
B,L,"[3, 1]",1.0,2.0,0.24491286277770996,1.8839390277862549,0.6353197721646029,30.0,182.0
Y,R,"[3, 2]",0.0,2.0,0.2085709571838379,1.5474419593811035,0.3328966796137887,30.0,183.0
B,L,"[3, 1]",0.0,2.0,0.22357797622680664,1.8620319366455078,0.6282086175844528,30.0,184.0
Y,R,"[3, 2]",0.0,2.0,0.21281194686889648,1.6619410514831543,0.4567104142239807,30.0,185.0
B,L,"[3, 1]",0.0,2.0,0.2218940258026123,1.7422621250152588,0.5156520062146295,30.0,186.0
,,"(3, 3)",,,,,,30.0,
B,L,"[3, 2]",1.0,1.0,0.5719499588012695,3.7411341667175293,0.5232084106083801,,187.0
Y,R,"[3, 3]",0.0,1.0,0.3174610137939453,1.6518070697784424,0.34158512246827893,31.0,188.0
B,L,"[3, 2]",-1.0,1.0,0.010694026947021484,5.672478914260864,0.5471925634822411,31.0,189.0
B,L,"[3, 1]",1.0,2.0,0.367966890335083,1.9750070571899414,0.5890493981011886,31.0,190.0
B,L,"[3, 0]",0.0,2.0,0.24936199188232422,1.8756659030914307,0.6143198911874915,31.0,191.0
Y,R,"[3, 1]",0.0,2.0,0.23293089866638184,1.7995400428771973,0.5640115086309907,31.0,192.0
,,"(3, 3)",,,,,,31.0,
B,L,"[3, 2]",1.0,1.0,0.8317458629608154,3.3801639080047607,0.7103013276200344,,193.0
B,L,"[3, 1]",1.0,2.0,0.23415803909301758,1.4979948997497559,0.27548228049204343,32.0,194.0
Y,R,"[3, 2]",0.0,2.0,0.27922797203063965,1.9204578399658203,0.6456509991081689,32.0,195.0
B,L,"[3, 1]",0.0,2.0,0.22549009323120117,1.9206039905548096,0.6992700747207634,32.0,196.0
Y,R,"[3, 2]",0.0,2.0,0.20806217193603516,1.5675981044769287,0.35049306509089445,32.0,197.0
B,L,"[3, 1]",0.0,2.0,0.24242210388183594,1.536689043045044,0.28706722309947613,32.0,198.0
,,"(3, 3)",,,,,,32.0,
B,L,"[3, 2]",1.0,1.0,0.7968199253082275,3.7180261611938477,0.48842846357800257,,199.0
B,L,"[3, 1]",1.0,2.0,0.26847410202026367,1.89628005027771,0.6342792253108984,33.0,200.0
Y,R,"[3, 2]",0.0,2.0,0.17852401733398438,1.5743670463562012,0.39202421017246336,33.0,201.0
B,L,"[3, 1]",0.0,2.0,0.2425520420074463,1.7041521072387695,0.4628813320524523,33.0,202.0
Y,R,"[3, 2]",0.0,2.0,0.2439110279083252,1.8079650402069092,0.5539854673447391,33.0,203.0
B,L,"[3, 1]",0.0,2.0,0.22996902465820312,1.777066946029663,0.5477064193411938,33.0,204.0
,,"(3, 3)",,,,,,33.0,
B,L,"[3, 2]",1.0,1.0,0.5227501392364502,2.705247163772583,0.4698396295008036,,205.0
Y,R,"[3, 3]",0.0,1.0,0.22051000595092773,1.600950002670288,0.3707903247989675,34.0,206.0
B,L,"[3, 2]",-2.0,1.0,1.006469964981079,2.3116350173950195,0.2657725349541397,34.0,207.0
B,L,"[3, 1]",1.0,2.0,0.9468479156494141,2.5111567974090576,0.5434814080748993,34.0,208.0
B,L,"[3, 0]",0.0,2.0,0.20699214935302734,1.7608158588409424,0.5538010680531835,34.0,209.0
Y,R,"[3, 1]",0.0,2.0,0.21653294563293457,1.5200250148773193,0.3074733560509882,34.0,210.0
,,"(3, 3)",,,,,,34.0,
B,L,"[3, 2]",1.0,1.0,0.4321320056915283,2.8415169715881348,0.46535891934986406,,211.0
B,L,"[3, 1]",1.0,2.0,0.2913050651550293,2.0123109817504883,0.710527695692849,35.0,212.0
Y,R,"[3, 2]",0.0,2.0,0.18125486373901367,1.8514161109924316,0.6785878863484962,35.0,213.0
B,L,"[3, 1]",0.0,2.0,0.18734288215637207,1.8452420234680176,0.6738207961073399,35.0,214.0
Y,R,"[3, 2]",0.0,2.0,0.20560288429260254,1.5617961883544922,0.35278129903562533,35.0,215.0
B,L,"[3, 1]",0.0,2.0,0.33571791648864746,1.6148760318756104,0.28404998385803293,35.0,216.0
,,"(3, 3)",,,,,,35.0,
B,L,"[3, 2]",1.0,1.0,0.37885308265686035,2.748821973800659,0.7491061705683502,,217.0
B,L,"[3, 1]",1.0,2.0,0.2268660068511963,1.6926310062408447,0.4587072756561939,36.0,218.0
Y,R,"[3, 2]",0.0,2.0,0.2384350299835205,1.594351053237915,0.36970765116387255,36.0,219.0
Y,R,"[3, 3]",0.0,2.0,0.2876107692718506,1.5317230224609375,0.25149599289181757,36.0,220.0
B,L,"[3, 2]",0.0,2.0,0.2590599060058594,1.8284151554107666,0.5628174955411799,36.0,221.0
Y,R,"[3, 3]",0.0,2.0,0.20667600631713867,1.5415210723876953,0.3211605363719712,36.0,222.0
,,"(3, 3)",,,,,,36.0,
B,L,"[3, 2]",1.0,1.0,0.3685269355773926,2.576970100402832,0.581148854526415,,223.0
B,L,"[3, 1]",1.0,2.0,0.19903802871704102,1.5391850471496582,0.33711943567196506,37.0,224.0
B,L,"[3, 0]",0.0,2.0,0.23555898666381836,1.821984052658081,0.5756007848819973,37.0,225.0
Y,R,"[3, 1]",0.0,2.0,0.17498517036437988,1.835433006286621,0.6609859926612629,37.0,226.0
B,L,"[3, 0]",0.0,2.0,0.46471500396728516,2.1639740467071533,0.7084232864440718,37.0,227.0
B,L,"[3, 0]",-2.0,2.0,1.2751410007476807,3.044426918029785,0.7357882262406769,37.0,228.0
,,"(3, 3)",,,,,,37.0,
B,L,"[3, 2]",1.0,1.0,0.47587108612060547,3.250718832015991,0.719610880336415,,229.0
B,L,"[3, 1]",-2.0,1.0,1.54795503616333,3.3196349143981934,0.7392256074780559,38.0,230.0
B,L,"[3, 0]",0.0,1.0,0.40876007080078125,1.803480863571167,0.3928380726527722,38.0,231.0
B,L,"[3, 0]",0.0,1.0,0.23102903366088867,1.8958609104156494,0.6718252390061934,38.0,232.0
Y,R,"[3, 1]",0.0,1.0,0.22497010231018066,1.7098019123077393,0.481606331236006,38.0,233.0
B,L,"[3, 0]",0.0,1.0,0.46643805503845215,1.7851271629333496,0.3169858624194796,38.0,234.0
,,"(3, 3)",,,,,,38.0,
B,L,"[3, 2]",1.0,1.0,0.4538278579711914,2.4185938835144043,0.35200892559931085,,235.0
B,L,"[3, 1]",1.0,2.0,0.2552199363708496,1.6666700839996338,0.4020095530051834,39.0,236.0
Y,R,"[3, 2]",0.0,2.0,0.20991802215576172,1.8317029476165771,0.6169584783026935,39.0,237.0
B,L,"[3, 1]",0.0,2.0,0.2052609920501709,1.780674934387207,0.5807568978314264,39.0,238.0
Y,R,"[3, 2]",0.0,2.0,0.19192004203796387,1.6510920524597168,0.44861088712312397,39.0,239.0
B,L,"[3, 1]",0.0,2.0,0.23177599906921387,1.6108901500701904,0.37624044198021145,39.0,240.0
,,"(3, 3)",,,,,,39.0,
B,L,"[3, 2]",1.0,1.0,0.522042989730835,3.3161699771881104,0.6585231975993847,,241.0
B,L,"[3, 1]",1.0,2.0,0.22613215446472168,1.5922729969024658,0.36796136422990594,40.0,242.0
Y,R,"[3, 2]",0.0,2.0,0.3511199951171875,1.9928019046783447,0.626763322525749,40.0,243.0
B,L,"[3, 1]",0.0,2.0,0.20276403427124023,1.8302488327026367,0.6405480057748865,40.0,244.0
B,L,"[3, 0]",0.0,2.0,0.20447993278503418,1.6015069484710693,0.4087928049901588,40.0,245.0
B,L,"[3, 0]",0.0,2.0,0.29938697814941406,1.584670066833496,0.29336480365823475,40.0,246.0
,,"(3, 3)",,,,,,40.0,
Y,R,"[3, 4]",-1.0,-1.0,0.48357701301574707,3.2304108142852783,0.556906922996047,,247.0
B,L,"[3, 3]",0.0,-1.0,0.20756292343139648,1.5724070072174072,0.3627633502947884,41.0,248.0
B,L,"[3, 2]",1.0,0.0,0.2392408847808838,1.5105819702148438,0.2566677496379475,41.0,249.0
Y,R,"[3, 3]",0.0,0.0,0.3701498508453369,1.680860996246338,0.3042665347963336,41.0,250.0
B,L,"[3, 2]",0.0,0.0,0.19284605979919434,1.6768090724945068,0.4806747747690774,41.0,251.0
B,L,"[3, 1]",1.0,1.0,0.15756988525390625,1.919363021850586,0.7497719300820651,41.0,252.0
,,"(3, 3)",,,,,,41.0,
B,L,"[3, 2]",1.0,1.0,0.31053900718688965,2.6768410205841064,0.5935068927574747,,253.0
B,L,"[3, 1]",1.0,2.0,0.647230863571167,2.124093770980835,0.48400679204160607,42.0,254.0
B,L,"[3, 0]",0.0,2.0,0.19277000427246094,1.8828949928283691,0.6834527066811676,42.0,255.0
B,L,"[3, 0]",0.0,2.0,0.4734640121459961,1.7817940711975098,0.298888176661624,42.0,256.0
B,L,"[3, 0]",0.0,2.0,0.21403789520263672,1.9302589893341064,0.7120464093797917,42.0,257.0
B,L,"[3, 0]",0.0,2.0,0.20125699043273926,1.5762028694152832,0.388689238551354,42.0,258.0
,,"(3, 3)",,,,,,42.0,
B,L,"[3, 2]",1.0,1.0,0.3270559310913086,2.6713738441467285,0.6596336989632867,,259.0
B,L,"[3, 1]",1.0,2.0,0.1663661003112793,1.5054998397827148,0.33191053934878884,43.0,260.0
B,L,"[3, 0]",0.0,2.0,0.11753296852111816,1.6140880584716797,0.4792512998347357,43.0,261.0
Y,R,"[3, 1]",0.0,2.0,0.18195199966430664,1.791651964187622,0.6040293263196647,43.0,262.0
Y,R,"[3, 2]",0.0,2.0,0.3365211486816406,1.9140079021453857,0.5846307779240824,43.0,263.0
B,L,"[3, 1]",0.0,2.0,0.11556506156921387,1.7127950191497803,0.5974184844765946,43.0,264.0
,,"(3, 3)",,,,,,43.0,
B,L,"[3, 2]",1.0,1.0,0.4811539649963379,2.457412004470825,0.28832420620779964,,265.0
B,L,"[3, 1]",1.0,2.0,0.2661597728729248,1.6546540260314941,0.3762658410595066,44.0,266.0
Y,R,"[3, 2]",0.0,2.0,0.2221689224243164,1.8162341117858887,0.5921202739459501,44.0,267.0
B,L,"[3, 1]",0.0,2.0,0.17832303047180176,1.7084770202636719,0.5338264907492833,44.0,268.0
Y,R,"[3, 2]",0.0,2.0,0.1976468563079834,1.6096417903900146,0.41024373832975425,44.0,269.0
B,L,"[3, 1]",0.0,2.0,0.18063592910766602,1.8036229610443115,0.6302648893624109,44.0,270.0
,,"(3, 3)",,,,,,44.0,
B,L,"[3, 2]",1.0,1.0,0.8337109088897705,3.427950143814087,0.40838285337440083,,271.0
B,L,"[3, 1]",1.0,2.0,0.218458890914917,1.4814338684082031,0.27321491415371946,45.0,272.0
Y,R,"[3, 2]",0.0,2.0,0.3169281482696533,1.8511898517608643,0.5241279524167645,45.0,273.0
B,L,"[3, 1]",0.0,2.0,0.46790099143981934,1.7367188930511475,0.2775492646502844,45.0,274.0
Y,R,"[3, 2]",0.0,2.0,0.14552807807922363,1.5798120498657227,0.44051523200238785,45.0,275.0
Y,R,"[3, 3]",0.0,2.0,0.20731806755065918,1.4642550945281982,0.25489016983924057,45.0,276.0
,,"(3, 3)",,,,,,45.0,
B,L,"[3, 2]",1.0,1.0,0.6442310810089111,3.289560079574585,0.6273423789019639,,277.0
B,L,"[3, 1]",1.0,2.0,0.2230370044708252,1.61552095413208,0.3931268466676614,46.0,278.0
B,L,"[3, 0]",0.0,2.0,0.3097541332244873,1.8844327926635742,0.5770978079347118,46.0,279.0
Y,R,"[3, 1]",0.0,2.0,0.20695090293884277,1.4576938152313232,0.251944007660755,46.0,280.0
B,L,"[3, 0]",0.0,2.0,0.21439814567565918,1.6272578239440918,0.4122059833516084,46.0,281.0
Y,R,"[3, 1]",0.0,2.0,0.22158312797546387,1.6543149948120117,0.43325513665269255,46.0,282.0
,,"(3, 3)",,,,,,46.0,
B,L,"[3, 2]",1.0,1.0,0.46745896339416504,4.46141505241394,0.644226892278903,,283.0
B,L,"[3, 1]",1.0,2.0,0.1649019718170166,1.4555790424346924,0.30011454808921156,47.0,284.0
Y,R,"[3, 2]",0.0,2.0,0.22313380241394043,1.8203840255737305,0.5870374211743455,47.0,285.0
B,L,"[3, 1]",0.0,2.0,0.18248796463012695,1.8549389839172363,0.6749966889744808,47.0,286.0
Y,R,"[3, 2]",0.0,2.0,0.22951602935791016,1.5210800170898438,0.2964087825339648,47.0,287.0
B,L,"[3, 1]",0.0,2.0,0.21707415580749512,1.5429298877716064,0.3225610773061776,47.0,288.0
,,"(3, 3)",,,,,,47.0,
B,L,"[3, 2]",1.0,1.0,0.37699103355407715,2.356015920639038,0.4949103143730431,,289.0
B,L,"[3, 1]",1.0,2.0,0.18769502639770508,1.7748770713806152,0.5863185915746016,48.0,290.0
B,L,"[3, 0]",0.0,2.0,0.2733170986175537,1.649550199508667,0.3694454364250381,48.0,291.0
Y,R,"[3, 1]",0.0,2.0,0.25037312507629395,1.7155890464782715,0.46820497366445923,48.0,292.0
B,L,"[3, 0]",0.0,2.0,0.43489980697631836,2.0256590843200684,0.593738326561273,48.0,293.0
B,L,"[3, 0]",-1.0,2.0,0.07100319862365723,5.62247896194458,0.41628653759888357,48.0,294.0
,,"(3, 3)",,,,,,48.0,
B,L,"[3, 2]",1.0,1.0,0.4392390251159668,2.965364933013916,0.5645126926103317,,295.0
B,L,"[3, 1]",1.0,2.0,0.21004414558410645,1.8820672035217285,0.663091782040518,49.0,296.0
Y,R,"[3, 2]",0.0,2.0,0.22441792488098145,1.717461109161377,0.4807254256428379,49.0,297.0
Y,R,"[3, 3]",0.0,2.0,0.21074604988098145,1.694309949874878,0.47491408493829884,49.0,298.0
Y,R,"[3, 4]",-1.0,1.0,0.26564598083496094,1.6402652263641357,0.3653361347718891,49.0,299.0
B,L,"[3, 3]",0.0,1.0,0.22034096717834473,1.6202030181884766,0.3854790615331222,49.0,300.0
,,"(3, 3)",,,,,,49.0,
B,L,"[3, 2]",1.0,1.0,0.3874790668487549,3.2220380306243896,0.30753561910807153,,301.0
B,L,"[3, 1]",1.0,2.0,0.558056116104126,2.135512113571167,0.5759370883877146,50.0,302.0
B,L,"[3, 0]",0.0,2.0,0.4827098846435547,1.94992995262146,0.4593853037766224,50.0,303.0
Y,R,"[3, 1]",0.0,2.0,0.202545166015625,1.851017951965332,0.660064026800257,50.0,304.0
B,L,"[3, 0]",0.0,2.0,0.20854401588439941,1.9225070476531982,0.7157880037038169,50.0,305.0
Y,R,"[3, 1]",0.0,2.0,0.22710895538330078,1.768347978591919,0.5342278162034186,50.0,306.0
,,"(3, 3)",,,,,,50.0,
B,L,"[3, 2]",1.0,1.0,0.6959531307220459,2.708860158920288,0.3265770592557915,,307.0
B,L,"[3, 1]",1.0,2.0,0.22441983222961426,1.5246529579162598,0.30106946147446356,51.0,308.0
Y,R,"[3, 2]",0.0,2.0,0.32703709602355957,1.83433198928833,0.5019724357328927,51.0,309.0
B,L,"[3, 1]",0.0,2.0,0.18281197547912598,1.8027398586273193,0.6211117142551879,51.0,310.0
Y,R,"[3, 2]",0.0,2.0,0.21878600120544434,1.815114974975586,0.6029761559517814,51.0,311.0
B,L,"[3, 1]",0.0,2.0,0.18003201484680176,1.7636399269104004,0.5834775652859343,51.0,312.0
,,"(3, 3)",,,,,,51.0,
B,L,"[3, 2]",1.0,1.0,0.43156909942626953,2.695091962814331,0.6115180806317349,,313.0
B,L,"[3, 1]",1.0,2.0,0.20090293884277344,1.7058510780334473,0.5007909478537329,52.0,314.0
B,L,"[3, 0]",0.0,2.0,0.19647216796875,1.7583410739898682,0.5591834403319362,52.0,315.0
Y,R,"[3, 1]",0.0,2.0,0.22423815727233887,1.5288951396942139,0.3047718429856682,52.0,316.0
B,L,"[3, 0]",0.0,2.0,0.2319660186767578,1.5674340724945068,0.3386117804429428,52.0,317.0
B,L,"[3, 0]",0.0,2.0,0.3442189693450928,1.6375651359558105,0.2929198701180778,52.0,318.0
,,"(3, 3)",,,,,,52.0,
B,L,"[3, 2]",1.0,1.0,0.7565009593963623,3.0901761054992676,0.6659468202486128,,319.0
B,L,"[3, 1]",1.0,2.0,0.21073293685913086,1.640383005142212,0.4231633619073707,53.0,320.0
B,L,"[3, 0]",0.0,2.0,0.690526008605957,2.3599791526794434,0.6663681547788523,53.0,321.0
Y,R,"[3, 1]",0.0,2.0,0.19997310638427734,1.8404250144958496,0.639793092833864,53.0,322.0
B,L,"[3, 0]",0.0,2.0,0.3252890110015869,1.7794129848480225,0.45280062369121,53.0,323.0
Y,R,"[3, 1]",0.0,2.0,0.2939620018005371,2.0462710857391357,0.748748935635887,53.0,324.0
,,"(3, 3)",,,,,,53.0,
B,L,"[3, 2]",1.0,1.0,0.3661980628967285,2.4693710803985596,0.5515148587748772,,325.0
B,L,"[3, 1]",1.0,2.0,0.18521904945373535,1.6756439208984375,0.47713386283004855,54.0,326.0
Y,R,"[3, 2]",0.0,2.0,0.293536901473999,1.7757048606872559,0.4860496738162905,54.0,327.0
B,L,"[3, 1]",0.0,2.0,0.21656489372253418,1.6303229331970215,0.4163602330863046,54.0,328.0
Y,R,"[3, 2]",0.0,2.0,0.2478189468383789,1.8553709983825684,0.6049632435245627,54.0,329.0
B,L,"[3, 1]",0.0,2.0,0.2338881492614746,1.6558189392089844,0.42745974300665524,54.0,330.0
,,"(3, 3)",,,,,,54.0,
B,L,"[3, 2]",1.0,1.0,0.34795093536376953,2.535719156265259,0.6129110121100425,,331.0
Y,R,"[3, 3]",0.0,1.0,0.6634819507598877,2.370181083679199,0.6997178439228173,55.0,332.0
B,L,"[3, 2]",0.0,1.0,0.22001886367797852,1.6378440856933594,0.4045249885377293,55.0,333.0
Y,R,"[3, 3]",0.0,1.0,0.35672616958618164,1.905867099761963,0.5601151042332706,55.0,334.0
B,L,"[3, 2]",0.0,1.0,0.2116549015045166,1.882539987564087,0.675760378345141,55.0,335.0
B,L,"[3, 1]",1.0,2.0,0.24521493911743164,1.7380092144012451,0.4971352278289172,55.0,336.0
,,"(3, 3)",,,,,,55.0,
B,L,"[3, 2]",1.0,1.0,0.3712730407714844,2.3191230297088623,0.31643026775361005,,337.0
B,L,"[3, 1]",1.0,2.0,0.4926319122314453,2.0179660320281982,0.517422823647157,56.0,338.0
Y,R,"[3, 2]",0.0,2.0,0.1928398609161377,1.8533730506896973,0.653908263775935,56.0,339.0
B,L,"[3, 1]",0.0,2.0,0.20324301719665527,1.7393851280212402,0.5433564114897143,56.0,340.0
B,L,"[3, 0]",0.0,2.0,0.33847904205322266,2.0327420234680176,0.6926481358830571,56.0,341.0
Y,R,"[3, 1]",0.0,2.0,0.21409916877746582,1.8946161270141602,0.6871094230987478,56.0,342.0
,,"(3, 3)",,,,,,56.0,
B,L,"[3, 2]",-2.0,0.0,1.3312461376190186,3.719844102859497,0.6230543227844803,,343.0
B,L,"[3, 1]",1.0,1.0,0.8246040344238281,2.3993492126464844,0.5729862668486918,57.0,344.0
B,L,"[3, 0]",0.0,1.0,0.3123159408569336,2.0559520721435547,0.7454901359356438,57.0,345.0
Y,R,"[3, 1]",0.0,1.0,0.29729199409484863,1.984802007675171,0.6967046243496405,57.0,346.0
B,L,"[3, 0]",0.0,1.0,0.2914438247680664,1.796422004699707,0.49356642886472885,57.0,347.0
Y,R,"[3, 1]",0.0,1.0,0.27793097496032715,1.9119060039520264,0.6382792780544764,57.0,348.0
,,"(3, 3)",,,,,,57.0,
B,L,"[3, 2]",1.0,1.0,0.4379267692565918,2.7581629753112793,0.7296949414999501,,349.0
B,L,"[3, 1]",1.0,2.0,0.20449113845825195,1.7653758525848389,0.5619351996621427,58.0,350.0
Y,R,"[3, 2]",0.0,2.0,0.2266690731048584,1.6452929973602295,0.4239005855492408,58.0,351.0
B,L,"[3, 1]",0.0,2.0,0.20257902145385742,1.7630159854888916,0.5701177038499134,58.0,352.0
Y,R,"[3, 2]",0.0,2.0,0.24476981163024902,1.7778561115264893,0.5311534855217368,58.0,353.0
B,L,"[3, 1]",0.0,2.0,0.2134559154510498,1.6026289463043213,0.38385477213322683,58.0,354.0
,,"(3, 3)",,,,,,58.0,
B,L,"[3, 2]",1.0,1.0,0.7473559379577637,3.059067964553833,0.7091617163640431,,355.0
B,L,"[3, 1]",1.0,2.0,0.18769407272338867,1.8709321022033691,0.680042518014498,59.0,356.0
B,L,"[3, 0]",0.0,2.0,0.2580859661102295,1.608755111694336,0.3393501548800891,59.0,357.0
Y,R,"[3, 1]",0.0,2.0,0.16631388664245605,1.636240005493164,0.47530519986499775,59.0,358.0
Y,R,"[3, 2]",0.0,2.0,0.20272207260131836,1.7112109661102295,0.5196031927350642,59.0,359.0
Y,R,"[3, 3]",0.0,2.0,0.313870906829834,1.853666067123413,0.5399167599058585,59.0,360.0
,,"(3, 3)",,,,,,59.0,
B,L,"[3, 2]",1.0,1.0,0.37032103538513184,3.3648059368133545,0.5379013390363465,,361.0
B,L,"[3, 1]",1.0,2.0,0.20236992835998535,1.8536159992218018,0.658017518129316,60.0,362.0
Y,R,"[3, 2]",0.0,2.0,0.366178035736084,1.8765499591827393,0.5180181408967549,60.0,363.0
B,L,"[3, 1]",0.0,2.0,0.2287280559539795,1.8937859535217285,0.6615567455577307,60.0,364.0
B,L,"[3, 0]",0.0,2.0,0.2375810146331787,1.6388299465179443,0.4005034332036806,60.0,365.0
B,L,"[3, 0]",0.0,2.0,0.20438504219055176,1.6284120082855225,0.3958623117535123,60.0,366.0
,,"(3, 3)",,,,,,60.0,
B,L,"[3, 2]",1.0,1.0,0.36534905433654785,2.2595951557159424,0.45515901773727946,,367.0
B,L,"[3, 1]",1.0,2.0,0.21097111701965332,1.935802936553955,0.7240487839386156,61.0,368.0
Y,R,"[3, 2]",0.0,2.0,0.19467806816101074,1.5056569576263428,0.31322873302166815,61.0,369.0
Y,R,"[3, 3]",0.0,2.0,0.2659900188446045,1.6340019702911377,0.36384488577598617,61.0,370.0
Y,R,"[3, 4]",-1.0,1.0,0.28717994689941406,1.7552289962768555,0.4522889659627902,61.0,371.0
B,L,"[3, 3]",0.0,1.0,0.23655104637145996,1.5822598934173584,0.3345405184914807,61.0,372.0
,,"(3, 3)",,,,,,61.0,
B,L,"[3, 2]",1.0,1.0,0.4961121082305908,2.728196859359741,0.4625879441126229,,373.0
B,L,"[3, 1]",1.0,2.0,0.19079899787902832,1.915482997894287,0.7111316679834767,62.0,374.0
Y,R,"[3, 2]",0.0,2.0,0.2848999500274658,1.524665117263794,0.2527740038014273,62.0,375.0
Y,R,"[3, 3]",0.0,2.0,0.2554359436035156,1.9668309688568115,0.7026453318851182,62.0,376.0
B,L,"[3, 2]",0.0,2.0,0.19576597213745117,1.9008328914642334,0.7033993416764684,62.0,377.0
Y,R,"[3, 3]",0.0,2.0,0.20975017547607422,1.8038380146026611,0.5905780544426035,62.0,378.0
,,"(3, 3)",,,,,,62.0,
B,L,"[3, 2]",1.0,1.0,0.5258758068084717,2.8934459686279297,0.6837430163761156,,379.0
B,L,"[3, 1]",1.0,2.0,0.19758391380310059,1.9098742008209229,0.7101349011415272,63.0,380.0
Y,R,"[3, 2]",0.0,2.0,0.2537391185760498,1.8217840194702148,0.5821941350844866,63.0,381.0
Y,R,"[3, 3]",0.0,2.0,0.221235990524292,1.9262919425964355,0.6915403534278148,63.0,382.0
B,L,"[3, 2]",0.0,2.0,0.2018890380859375,1.8580708503723145,0.6663865912294347,63.0,383.0
B,L,"[3, 1]",0.0,2.0,0.4719250202178955,2.160888195037842,0.6771249151211283,63.0,384.0
,,"(3, 3)",,,,,,63.0,
B,L,"[3, 2]",-2.0,0.0,1.018460988998413,3.4147400856018066,0.49186296035315075,,385.0
B,L,"[3, 1]",1.0,1.0,0.1741039752960205,1.7902750968933105,0.6151842008647117,64.0,386.0
B,L,"[3, 0]",0.0,1.0,0.16922783851623535,1.5525410175323486,0.36796145189276663,64.0,387.0
Y,R,"[3, 1]",0.0,1.0,0.2501490116119385,1.917558193206787,0.6684149655033901,64.0,388.0
B,L,"[3, 0]",0.0,1.0,0.1913158893585205,1.7511200904846191,0.5530778382341726,64.0,389.0
Y,R,"[3, 1]",0.0,1.0,0.222337007522583,1.7754080295562744,0.54494793120318,64.0,390.0
,,"(3, 3)",,,,,,64.0,
B,L,"[3, 2]",1.0,1.0,0.36788415908813477,2.335667133331299,0.33068608858960985,,391.0
B,L,"[3, 1]",1.0,2.0,0.2745850086212158,1.7746710777282715,0.48863350582418885,65.0,392.0
B,L,"[3, 0]",0.0,2.0,0.19292497634887695,1.6573591232299805,0.4625519193189824,65.0,393.0
Y,R,"[3, 1]",0.0,2.0,0.2553739547729492,1.9858949184417725,0.7148622865253164,65.0,394.0
B,L,"[3, 0]",0.0,2.0,0.25418686866760254,1.5705618858337402,0.30246058479863736,65.0,395.0
B,L,"[3, 0]",0.0,2.0,0.32317090034484863,1.83235502243042,0.501118861227232,65.0,396.0
,,"(3, 3)",,,,,,65.0,
B,L,"[3, 2]",1.0,1.0,0.37932395935058594,2.801102876663208,0.7185566112661507,,397.0
B,L,"[3, 1]",1.0,2.0,0.19206500053405762,1.482038974761963,0.28429169974196805,66.0,398.0
B,L,"[3, 0]",0.0,2.0,0.4835999011993408,1.955237865447998,0.45602072974732505,66.0,399.0
Y,R,"[3, 1]",0.0,2.0,0.20034408569335938,1.8206520080566406,0.6264938674770546,66.0,400.0
B,L,"[3, 0]",0.0,2.0,0.23806095123291016,1.8615550994873047,0.6380184089804923,66.0,401.0
B,L,"[3, 0]",0.0,2.0,0.1730818748474121,1.632277011871338,0.45351965269043615,66.0,402.0
,,"(3, 3)",,,,,,66.0,
B,L,"[3, 2]",-1.0,-1.0,0.35411500930786133,2.5972979068756104,0.5341166787362432,,403.0
Y,R,"[3, 3]",-2.0,-3.0,0.31273698806762695,2.081454038619995,0.7481556172628341,67.0,404.0
B,L,"[3, 2]",-2.0,-3.0,1.3092679977416992,2.811846971511841,0.4608774720728025,67.0,405.0
B,L,"[3, 1]",1.0,-2.0,0.23772311210632324,1.8035728931427002,0.5642175519016448,67.0,406.0
B,L,"[3, 0]",0.0,-2.0,0.1735091209411621,1.706449031829834,0.5204707740352973,67.0,407.0
B,L,"[3, 0]",0.0,-2.0,0.17456912994384766,1.66438889503479,0.48497059652281915,67.0,408.0
,,"(3, 3)",,,,,,67.0,
B,L,"[3, 2]",-1.0,-1.0,0.3222770690917969,2.3012149333953857,0.26981463761499086,,409.0
Y,R,"[3, 3]",-2.0,-3.0,0.32519102096557617,1.7757189273834229,0.44518164334170507,68.0,410.0
B,L,"[3, 2]",-1.0,-3.0,0.09228110313415527,5.853469133377075,0.6147993962731337,68.0,411.0
B,L,"[3, 1]",1.0,-2.0,0.3163580894470215,1.8598759174346924,0.5413408740549395,68.0,412.0
B,L,"[3, 0]",0.0,-2.0,0.35724711418151855,1.8684778213500977,0.5098904959139157,68.0,413.0
B,L,"[3, 0]",0.0,-2.0,0.21566987037658691,1.551252841949463,0.3445990281211988,68.0,414.0
,,"(3, 3)",,,,,,68.0,
B,L,"[3, 2]",-1.0,-1.0,0.392056941986084,2.674717903137207,0.4191991751110468,,415.0
B,L,"[3, 1]",-1.0,-1.0,0.020676851272583008,5.721890926361084,0.5740321983096609,69.0,416.0
G,D,"[4, 1]",1.0,0.0,0.6737339496612549,2.2567830085754395,0.5807461659866759,69.0,417.0
B,L,"[4, 0]",0.0,0.0,0.9493119716644287,2.352775812149048,0.3835272469562877,69.0,418.0
Y,R,"[4, 1]",1.0,1.0,0.23570919036865234,1.6519908905029297,0.4022745085764782,69.0,419.0
Y,R,"[4, 2]",1.0,2.0,0.26467204093933105,1.6169419288635254,0.35245161408778913,69.0,420.0
,,"(3, 3)",,,,,,69.0,
B,L,"[3, 2]",-1.0,-1.0,0.4114809036254883,2.7635691165924072,0.5159126039025954,,421.0
Y,R,"[3, 3]",-2.0,-3.0,0.19128084182739258,1.8247151374816895,0.6237897949261633,70.0,422.0
Y,R,"[3, 4]",-1.0,-3.0,0.009181976318359375,5.853994131088257,0.7272351682027254,70.0,423.0
B,L,"[3, 3]",-2.0,-5.0,0.2984459400177002,1.5618910789489746,0.2561985517065091,70.0,424.0
Y,R,"[3, 4]",-1.0,-6.0,0.25882506370544434,1.8538391590118408,0.5765712088033472,70.0,425.0
B,L,"[3, 3]",-1.0,-6.0,0.058077096939086914,5.501921892166138,0.32864078089603116,70.0,426.0
,,"(3, 3)",,,,,,70.0,
G,D,"[4, 3]",1.0,1.0,0.722999095916748,2.974226951599121,0.668987703744016,,427.0
B,L,"[4, 2]",1.0,2.0,0.20429778099060059,1.899463176727295,0.6849027054294827,71.0,428.0
G,D,"[5, 2]",1.0,3.0,0.24032187461853027,1.6751010417938232,0.42690372723650505,71.0,429.0
B,L,"[5, 1]",-1.0,2.0,0.23063182830810547,1.781538963317871,0.5416574907547635,71.0,430.0
B,L,"[5, 0]",0.0,2.0,0.22922205924987793,1.8668198585510254,0.6416242927262162,71.0,431.0
G,D,"[6, 0]",0.0,2.0,0.2785990238189697,1.8486268520355225,0.5736217837906374,71.0,432.0
,,"(3, 3)",,,,,,71.0,
G,D,"[4, 3]",1.0,1.0,0.5495429039001465,2.606678009033203,0.3969926403511023,,433.0
B,L,"[4, 2]",1.0,2.0,0.23976683616638184,1.7732000350952148,0.5200500123334773,72.0,434.0
G,D,"[5, 2]",1.0,3.0,0.2061929702758789,1.5704700946807861,0.37384726002907603,72.0,435.0
B,L,"[5, 1]",-1.0,2.0,0.2624521255493164,1.8993420600891113,0.623041364569207,72.0,436.0
G,D,"[6, 1]",0.0,2.0,0.17558789253234863,1.9110851287841797,0.7338102894907466,72.0,437.0
G,D,"[6, 1]",0.0,2.0,0.2106928825378418,1.4696950912475586,0.2540201226296718,72.0,438.0
,,"(3, 3)",,,,,,72.0,
G,D,"[4, 3]",1.0,1.0,0.4058260917663574,2.8585751056671143,0.6786691397724378,,439.0
B,L,"[4, 2]",1.0,2.0,0.22395992279052734,1.7135989665985107,0.492599098022822,73.0,440.0
B,L,"[4, 1]",1.0,3.0,0.2017230987548828,1.6591429710388184,0.4681738809356973,73.0,441.0
Y,R,"[4, 2]",1.0,4.0,0.20085501670837402,1.8002021312713623,0.5848026247569182,73.0,442.0
B,L,"[4, 1]",1.0,5.0,0.2275559902191162,1.771017074584961,0.5393567749754307,73.0,443.0
Y,R,"[4, 2]",1.0,6.0,0.19387078285217285,1.6374809741973877,0.443447168729582,73.0,444.0
,,"(3, 3)",,,,,,73.0,
B,L,"[3, 2]",-1.0,-1.0,0.3005669116973877,2.414206027984619,0.4741799440980975,,445.0
G,D,"[4, 2]",1.0,0.0,0.1937549114227295,1.7356219291687012,0.5432460499237732,74.0,446.0
Y,R,"[4, 3]",-1.0,0.0,0.05677008628845215,5.60747218132019,0.4337823545077625,74.0,447.0
Y,R,"[4, 4]",-1.0,-1.0,0.25881004333496094,1.5758509635925293,0.309588095726444,74.0,448.0
R,U,"[3, 4]",-1.0,-2.0,0.31200480461120605,1.8927948474884033,0.5856629798819524,74.0,449.0
B,L,"[3, 3]",-2.0,-4.0,0.19522309303283691,1.916961908340454,0.7021452157152137,74.0,450.0
,,"(3, 3)",,,,,,74.0,
G,D,"[4, 3]",1.0,1.0,0.49462103843688965,2.8851189613342285,0.6538900779433698,,451.0
B,L,"[4, 2]",1.0,2.0,0.2000441551208496,1.6604280471801758,0.46424130844964373,75.0,452.0
Y,R,"[4, 3]",1.0,3.0,0.21120905876159668,1.4742579460144043,0.25572449358056043,75.0,453.0
G,D,"[5, 3]",1.0,4.0,0.45856714248657227,2.0244300365448,0.5630392084086855,75.0,454.0
B,L,"[5, 2]",-1.0,4.0,0.02963089942932129,5.69985818862915,0.5295216088953018,75.0,455.0
G,D,"[6, 2]",0.0,4.0,0.5800981521606445,2.1326279640197754,0.5451722140966901,75.0,456.0
,,"(3, 3)",,,,,,75.0,
G,D,"[4, 3]",1.0,1.0,0.7462120056152344,3.5041019916534424,0.6824707425673986,,457.0
B,L,"[4, 2]",1.0,2.0,0.193770170211792,1.60154390335083,0.40093827745078997,76.0,458.0
Y,R,"[4, 3]",1.0,3.0,0.22862005233764648,1.6233270168304443,0.3910734877844,76.0,459.0
G,D,"[5, 3]",1.0,4.0,0.3081648349761963,1.640949010848999,0.3316498430376347,76.0,460.0
B,L,"[5, 2]",1.0,5.0,0.18604397773742676,1.6385900974273682,0.4368058162393238,76.0,461.0
Y,R,"[5, 3]",1.0,6.0,0.18356800079345703,1.6342291831970215,0.43783613933497195,76.0,462.0
,,"(3, 3)",,,,,,76.0,
G,D,"[4, 3]",1.0,1.0,0.334989070892334,2.69071102142334,0.744697463183375,,463.0
B,L,"[4, 2]",-1.0,1.0,0.023144006729125977,5.616671085357666,0.47832741213518026,77.0,464.0
B,L,"[4, 1]",1.0,2.0,0.27010488510131836,1.8205549716949463,0.5485736453190618,77.0,465.0
Y,R,"[4, 2]",1.0,3.0,0.21570086479187012,1.6098828315734863,0.37521749887895467,77.0,466.0
G,D,"[5, 2]",1.0,4.0,0.438723087310791,1.7004618644714355,0.2756423305070381,77.0,467.0
B,L,"[5, 1]",-1.0,3.0,0.3236370086669922,1.9097528457641602,0.5850928371017938,77.0,468.0
,,"(3, 3)",,,,,,77.0,
G,D,"[4, 3]",1.0,1.0,0.7014100551605225,3.3462300300598145,0.6977987566574138,,469.0
B,L,"[4, 2]",1.0,2.0,0.18397092819213867,1.5256080627441406,0.3235820407189284,78.0,470.0
Y,R,"[4, 3]",1.0,3.0,0.18151593208312988,1.5787169933319092,0.4023483223934996,78.0,471.0
G,D,"[5, 3]",1.0,4.0,0.21482014656066895,1.932873010635376,0.7181245138215329,78.0,472.0
B,L,"[5, 2]",1.0,5.0,0.16962099075317383,1.6280739307403564,0.446363814129284,78.0,473.0
Y,R,"[5, 3]",1.0,6.0,0.284182071685791,1.7603189945220947,0.47323193266494573,78.0,474.0
,,"(3, 3)",,,,,,78.0,
G,D,"[4, 3]",1.0,1.0,0.6505990028381348,4.210007905960083,0.566413197048693,,475.0
B,L,"[4, 2]",1.0,2.0,0.1994621753692627,1.7452809810638428,0.528397669539379,79.0,476.0
Y,R,"[4, 3]",1.0,3.0,0.1889951229095459,1.4922311305999756,0.3041656448268446,79.0,477.0
G,D,"[5, 3]",1.0,4.0,0.227247953414917,1.6890220642089844,0.45945114046058727,79.0,478.0
B,L,"[5, 2]",1.0,5.0,0.18308401107788086,1.5951061248779297,0.40469196213379643,79.0,479.0
Y,R,"[5, 3]",1.0,6.0,0.19762611389160156,1.650136947631836,0.45465544999495244,79.0,480.0
,,"(3, 3)",,,,,,79.0,
G,D,"[4, 3]",1.0,1.0,0.46488213539123535,3.099716901779175,0.25465120791791107,,481.0
B,L,"[4, 2]",-1.0,1.0,0.08370804786682129,5.6848671436309814,0.4724022265731994,80.0,482.0
B,L,"[4, 1]",1.0,2.0,0.5452098846435547,2.030224084854126,0.4857067507419101,80.0,483.0
Y,R,"[4, 2]",1.0,3.0,0.1987771987915039,1.9059040546417236,0.6750163060566163,80.0,484.0
G,D,"[5, 2]",1.0,4.0,0.21496105194091797,1.7572572231292725,0.532068558494585,80.0,485.0
B,L,"[5, 1]",-1.0,3.0,0.20906305313110352,1.7843809127807617,0.5663519533720469,80.0,486.0
,,"(3, 3)",,,,,,80.0,
G,D,"[4, 3]",1.0,1.0,0.6606318950653076,3.7406578063964844,0.7072870206447948,,487.0
B,L,"[4, 2]",1.0,2.0,0.1574099063873291,1.5444440841674805,0.38481059580853044,81.0,488.0
Y,R,"[4, 3]",1.0,3.0,0.25634098052978516,1.9306681156158447,0.6656258617643747,81.0,489.0
G,D,"[5, 3]",1.0,4.0,0.22992801666259766,1.747262954711914,0.512559055095595,81.0,490.0
B,L,"[5, 2]",1.0,5.0,0.23109817504882812,1.5688328742980957,0.3314709664189464,81.0,491.0
Y,R,"[5, 3]",1.0,6.0,0.2702460289001465,1.5566890239715576,0.271441006209099,81.0,492.0
,,"(3, 3)",,,,,,81.0,
G,D,"[4, 3]",1.0,1.0,0.8194642066955566,3.8824679851531982,0.6700830973393312,,493.0
B,L,"[4, 2]",1.0,2.0,0.20083189010620117,1.889235019683838,0.6759667210561721,82.0,494.0
Y,R,"[4, 3]",1.0,3.0,0.22846198081970215,1.9334299564361572,0.7093532576217043,82.0,495.0
G,D,"[5, 3]",1.0,4.0,0.2391049861907959,1.7669050693511963,0.5431285945637954,82.0,496.0
B,L,"[5, 2]",1.0,5.0,0.22754287719726562,1.7706570625305176,0.5468103441564734,82.0,497.0
Y,R,"[5, 3]",1.0,6.0,0.26201796531677246,1.8052730560302734,0.5354922469516737,82.0,498.0
,,"(3, 3)",,,,,,82.0,
G,D,"[4, 3]",1.0,1.0,0.7053420543670654,3.7574050426483154,0.7096875529149385,,499.0
B,L,"[4, 2]",-1.0,1.0,0.019851207733154297,5.664484977722168,0.5238066428632804,83.0,500.0
G,D,"[5, 2]",1.0,2.0,0.6832859516143799,1.9955909252166748,0.30285463013480696,83.0,501.0
B,L,"[5, 1]",-1.0,1.0,0.45136213302612305,1.8149850368499756,0.3509459800606164,83.0,502.0
Y,R,"[5, 2]",1.0,2.0,0.2194838523864746,1.5991950035095215,0.3836087774447985,83.0,503.0
G,D,"[6, 2]",0.0,2.0,0.2274930477142334,1.7825860977172852,0.5492640650408258,83.0,504.0
,,"(3, 3)",,,,,,83.0,
G,D,"[4, 3]",1.0,1.0,0.7588958740234375,3.5806729793548584,0.32996338419820415,,505.0
B,L,"[4, 2]",1.0,2.0,0.27887606620788574,1.9700360298156738,0.6831862867496235,84.0,506.0
Y,R,"[4, 3]",1.0,3.0,0.2180640697479248,1.897982120513916,0.6809386161301845,84.0,507.0
G,D,"[5, 3]",1.0,4.0,0.20014500617980957,1.6696481704711914,0.46721118661773614,84.0,508.0
B,L,"[5, 2]",1.0,5.0,0.2202451229095459,1.971846103668213,0.7388196237547022,84.0,509.0
Y,R,"[5, 3]",1.0,6.0,0.18372011184692383,1.5536420345306396,0.3760100729006915,84.0,510.0
,,"(3, 3)",,,,,,84.0,
G,D,"[4, 3]",1.0,1.0,0.7202608585357666,4.014484167098999,0.4236217174602964,,511.0
B,L,"[4, 2]",1.0,2.0,0.1858670711517334,1.837825059890747,0.6447016787291555,85.0,512.0
Y,R,"[4, 3]",1.0,3.0,0.18557500839233398,1.5513911247253418,0.36289365808066887,85.0,513.0
G,D,"[5, 3]",1.0,4.0,0.2238938808441162,1.4998669624328613,0.2625988220583015,85.0,514.0
B,L,"[5, 2]",1.0,5.0,0.3107609748840332,2.04199481010437,0.7208390277931129,85.0,515.0
Y,R,"[5, 3]",-1.0,5.0,0.006305217742919922,5.722040891647339,0.5929236933507269,85.0,516.0
,,"(3, 3)",,,,,,85.0,
G,D,"[4, 3]",1.0,1.0,0.7448201179504395,3.5028250217437744,0.36239607541364993,,517.0
B,L,"[4, 2]",1.0,2.0,0.19657397270202637,1.8004109859466553,0.6125136201901962,86.0,518.0
Y,R,"[4, 3]",1.0,3.0,0.20688486099243164,1.9576420783996582,0.7368262455320594,86.0,519.0
G,D,"[5, 3]",1.0,4.0,0.26846909523010254,1.7833499908447266,0.5201412288864287,86.0,520.0
B,L,"[5, 2]",1.0,5.0,0.17147588729858398,1.5070388317108154,0.3273143414409918,86.0,521.0
Y,R,"[5, 3]",1.0,6.0,0.16750884056091309,1.5500788688659668,0.3939650678119318,86.0,522.0
,,"(3, 3)",,,,,,86.0,
G,D,"[4, 3]",1.0,1.0,0.6537890434265137,3.269294023513794,0.3632420884661443,,523.0
B,L,"[4, 2]",1.0,2.0,0.19416093826293945,1.610719919204712,0.40739258415717966,87.0,524.0
Y,R,"[4, 3]",1.0,3.0,0.17720484733581543,1.575294017791748,0.3991988472604221,87.0,525.0
G,D,"[5, 3]",1.0,4.0,0.21871709823608398,1.890070915222168,0.6555280567478803,87.0,526.0
B,L,"[5, 2]",1.0,5.0,0.2554450035095215,1.555265188217163,0.2944052926687114,87.0,527.0
Y,R,"[5, 3]",1.0,6.0,0.20728802680969238,1.560025930404663,0.354376590686265,87.0,528.0
,,"(3, 3)",,,,,,87.0,
G,D,"[4, 3]",1.0,1.0,0.7577519416809082,3.1685290336608887,0.28945734869289186,,529.0
B,L,"[4, 2]",1.0,2.0,0.21491503715515137,1.7629461288452148,0.5520518258293203,88.0,530.0
Y,R,"[4, 3]",1.0,3.0,0.2192089557647705,1.6163110733032227,0.385152156277853,88.0,531.0
G,D,"[5, 3]",1.0,4.0,0.2096700668334961,1.8770430088043213,0.6621755091946818,88.0,532.0
B,L,"[5, 2]",1.0,5.0,0.19384098052978516,1.6685209274291992,0.4806296566828207,88.0,533.0
Y,R,"[5, 3]",1.0,6.0,0.2387838363647461,1.7578730583190918,0.5218304385271575,88.0,534.0
,,"(3, 3)",,,,,,88.0,
G,D,"[4, 3]",1.0,1.0,0.6426191329956055,3.464815139770508,0.6362047072555623,,535.0
B,L,"[4, 2]",1.0,2.0,0.19483709335327148,1.609015941619873,0.41199959449291623,89.0,536.0
Y,R,"[4, 3]",1.0,3.0,0.20588397979736328,1.7414720058441162,0.5367063068947893,89.0,537.0
G,D,"[5, 3]",1.0,4.0,0.20070505142211914,1.7553839683532715,0.542082459810075,89.0,538.0
B,L,"[5, 2]",-1.0,4.0,0.06719613075256348,5.624752044677734,0.43339528295961993,89.0,539.0
G,D,"[6, 2]",0.0,4.0,0.7103109359741211,2.3110949993133545,0.5942525254874875,89.0,540.0
,,"(3, 3)",,,,,,89.0,
B,L,"[3, 2]",-1.0,-1.0,0.6408140659332275,4.083096981048584,0.7271684764746245,,541.0
B,L,"[3, 1]",-1.0,-1.0,0.05984783172607422,5.797554969787598,0.6245930260811858,90.0,542.0
Y,R,"[3, 2]",-1.0,-2.0,0.24370312690734863,1.8476829528808594,0.6055507062606098,90.0,543.0
G,D,"[4, 2]",1.0,-1.0,0.249769926071167,1.988645076751709,0.7440823684921059,90.0,544.0
B,L,"[4, 1]",1.0,0.0,0.19943690299987793,1.7886269092559814,0.5826467088952574,90.0,545.0
Y,R,"[4, 2]",1.0,1.0,0.2493739128112793,1.8441758155822754,0.5935279793159712,90.0,546.0
,,"(3, 3)",,,,,,90.0,
G,D,"[4, 3]",1.0,1.0,0.916923999786377,3.9137260913848877,0.490534224907189,,547.0
B,L,"[4, 2]",1.0,2.0,0.21823596954345703,1.681689977645874,0.4553650490061757,91.0,548.0
Y,R,"[4, 3]",1.0,3.0,0.27587103843688965,1.6260170936584473,0.3483249335667815,91.0,549.0
G,D,"[5, 3]",1.0,4.0,0.2536191940307617,1.6713180541992188,0.40280796198618835,91.0,550.0
B,L,"[5, 2]",1.0,5.0,0.20582294464111328,1.5265049934387207,0.3126691200484656,91.0,551.0
Y,R,"[5, 3]",1.0,6.0,0.3734719753265381,1.8554279804229736,0.4678777369039037,91.0,552.0
,,"(3, 3)",,,,,,91.0,
G,D,"[4, 3]",1.0,1.0,0.7765967845916748,3.3092892169952393,0.44375601739198706,,553.0
B,L,"[4, 2]",1.0,2.0,0.44640207290649414,1.848322868347168,0.4086436712139886,92.0,554.0
Y,R,"[4, 3]",1.0,3.0,0.21650195121765137,1.4879498481750488,0.28009887821652574,92.0,555.0
G,D,"[5, 3]",1.0,4.0,0.2813289165496826,1.6276800632476807,0.3409233762881268,92.0,556.0
B,L,"[5, 2]",1.0,5.0,0.19263195991516113,1.940659999847412,0.7477246166034349,92.0,557.0
Y,R,"[5, 3]",1.0,6.0,0.23765301704406738,1.8755671977996826,0.6235504432897911,92.0,558.0
,,"(3, 3)",,,,,,92.0,
G,D,"[4, 3]",1.0,1.0,0.9187359809875488,3.5260169506073,0.38284348413058206,,559.0
B,L,"[4, 2]",1.0,2.0,0.1904890537261963,1.8353769779205322,0.6347539523310233,93.0,560.0
Y,R,"[4, 3]",1.0,3.0,0.19428396224975586,1.6592209339141846,0.4608735464173147,93.0,561.0
G,D,"[5, 3]",1.0,4.0,0.25218892097473145,1.9079139232635498,0.6518228184271163,93.0,562.0
B,L,"[5, 2]",1.0,5.0,0.19389700889587402,1.7802770137786865,0.5820071879673634,93.0,563.0
Y,R,"[5, 3]",1.0,6.0,0.20409607887268066,1.8704028129577637,0.6521969061499224,93.0,564.0
,,"(3, 3)",,,,,,93.0,
G,D,"[4, 3]",1.0,1.0,0.8636069297790527,3.4929380416870117,0.4951737445610215,,565.0
B,L,"[4, 2]",1.0,2.0,0.47217392921447754,1.8605079650878906,0.3890998836596138,94.0,566.0
Y,R,"[4, 3]",1.0,3.0,0.22240376472473145,1.5731821060180664,0.3457757213334033,94.0,567.0
G,D,"[5, 3]",1.0,4.0,0.24909400939941406,1.6717851161956787,0.417442463689482,94.0,568.0
B,L,"[5, 2]",1.0,5.0,0.2983229160308838,1.744771957397461,0.44534491632602347,94.0,569.0
Y,R,"[5, 3]",1.0,6.0,0.29389190673828125,1.6396138668060303,0.35169254636086855,94.0,570.0
,,"(3, 3)",,,,,,94.0,
G,D,"[4, 3]",1.0,1.0,0.7498419284820557,3.8836920261383057,0.6015398614108717,,571.0
B,L,"[4, 2]",1.0,2.0,0.17551302909851074,1.5933330059051514,0.41176990159580323,95.0,572.0
Y,R,"[4, 3]",1.0,3.0,0.20214009284973145,1.4921941757202148,0.28730516158367403,95.0,573.0
G,D,"[5, 3]",1.0,4.0,0.8761758804321289,2.573014974594116,0.6932130975248535,95.0,574.0
B,L,"[5, 2]",1.0,5.0,0.10570192337036133,1.5262799263000488,0.41968208275683466,95.0,575.0
Y,R,"[5, 3]",1.0,6.0,0.22203898429870605,1.6891469955444336,0.4587804665915622,95.0,576.0
,,"(3, 3)",,,,,,95.0,
G,D,"[4, 3]",1.0,1.0,0.8300988674163818,3.739114999771118,0.44785464983177575,,577.0
B,L,"[4, 2]",1.0,2.0,0.20389294624328613,1.6079559326171875,0.4057126574686238,96.0,578.0
Y,R,"[4, 3]",1.0,3.0,0.15172815322875977,1.7721989154815674,0.6108592049739976,96.0,579.0
G,D,"[5, 3]",1.0,4.0,0.21093392372131348,1.9235749244689941,0.7176235285915008,96.0,580.0
B,L,"[5, 2]",1.0,5.0,0.1806638240814209,1.747189998626709,0.5647511979537112,96.0,581.0
Y,R,"[5, 3]",1.0,6.0,0.2095320224761963,1.788902997970581,0.5706674071348041,96.0,582.0
,,"(3, 3)",,,,,,96.0,
G,D,"[4, 3]",1.0,1.0,0.632443904876709,3.2021560668945312,0.273054103681529,,583.0
B,L,"[4, 2]",1.0,2.0,0.222121000289917,1.9234280586242676,0.6958174040201652,97.0,584.0
Y,R,"[4, 3]",1.0,3.0,0.1968991756439209,1.8394520282745361,0.6353678760137111,97.0,585.0
G,D,"[5, 3]",1.0,4.0,0.24454402923583984,1.8438160419464111,0.5957360048718325,97.0,586.0
B,L,"[5, 2]",1.0,5.0,0.19738006591796875,1.889017105102539,0.6846319096178366,97.0,587.0
Y,R,"[5, 3]",1.0,6.0,0.17300796508789062,1.849510908126831,0.6674053711478825,97.0,588.0
,,"(3, 3)",,,,,,97.0,
G,D,"[4, 3]",1.0,1.0,0.5968508720397949,3.4433271884918213,0.6772834543455606,,589.0
B,L,"[4, 2]",1.0,2.0,0.46175503730773926,2.1689300537109375,0.7128498502155609,98.0,590.0
Y,R,"[4, 3]",1.0,3.0,0.25221800804138184,1.5348360538482666,0.2647594946857591,98.0,591.0
G,D,"[5, 3]",1.0,4.0,0.3390040397644043,2.064188003540039,0.7118686522373938,98.0,592.0
B,L,"[5, 2]",1.0,5.0,0.21183085441589355,1.5366690158843994,0.33221295932174055,98.0,593.0
Y,R,"[5, 3]",1.0,6.0,0.2218620777130127,1.6600430011749268,0.4417804149018725,98.0,594.0
,,"(3, 3)",,,,,,98.0,
G,D,"[4, 3]",1.0,1.0,0.5296540260314941,3.3802969455718994,0.6218261120333952,,595.0
B,L,"[4, 2]",1.0,2.0,0.20942211151123047,1.8929460048675537,0.6812866956516539,99.0,596.0
Y,R,"[4, 3]",1.0,3.0,0.22240400314331055,1.5624349117279053,0.32760507087953705,99.0,597.0
G,D,"[5, 3]",1.0,4.0,0.228348970413208,1.9642741680145264,0.7412533913673949,99.0,598.0
B,L,"[5, 2]",-1.0,4.0,0.0617680549621582,5.472064971923828,0.28031007235617106,99.0,599.0
B,L,"[5, 1]",-2.0,4.0,1.9433131217956543,3.4779880046844482,0.49133021663718784,99.0,600.0
,,"(3, 3)",,,,,,99.0,
G,D,"[4, 3]",1.0,1.0,0.554610013961792,3.8515310287475586,0.6092171471528298,,601.0
B,L,"[4, 2]",1.0,2.0,0.27150487899780273,1.674288034439087,0.40034836260884327,100.0,602.0
Y,R,"[4, 3]",1.0,3.0,0.24516701698303223,1.9253251552581787,0.6752632084988867,100.0,603.0
G,D,"[5, 3]",1.0,4.0,0.22151803970336914,1.5491209030151367,0.3414256174568094,100.0,604.0
B,L,"[5, 2]",1.0,5.0,0.23346710205078125,1.5883128643035889,0.3464772784103126,100.0,605.0
Y,R,"[5, 3]",1.0,6.0,0.20838403701782227,1.9600818157196045,0.7391752937735352,100.0,606.0
,,"(3, 3)",,,,,,100.0,
G,D,"[4, 3]",1.0,1.0,0.6447889804840088,2.9899299144744873,0.2962917370461918,,607.0
B,L,"[4, 2]",1.0,2.0,0.22235393524169922,1.641455888748169,0.40415116670714835,101.0,608.0
Y,R,"[4, 3]",1.0,3.0,0.21812796592712402,1.6241281032562256,0.3948095464329627,101.0,609.0
G,D,"[5, 3]",1.0,4.0,0.19350504875183105,1.8418021202087402,0.6529874412566418,101.0,610.0
B,L,"[5, 2]",1.0,5.0,0.19121694564819336,1.6691100597381592,0.4724160038504915,101.0,611.0
Y,R,"[5, 3]",1.0,6.0,0.19974398612976074,1.7762119770050049,0.5820259520293345,101.0,612.0
,,"(3, 3)",,,,,,101.0,
G,D,"[4, 3]",1.0,1.0,0.9549648761749268,3.4031269550323486,0.25161732638043666,,613.0
B,L,"[4, 2]",1.0,2.0,0.33043599128723145,1.766775131225586,0.43489289595471853,102.0,614.0
Y,R,"[4, 3]",1.0,3.0,0.20441317558288574,1.5843210220336914,0.3692048420714691,102.0,615.0
G,D,"[5, 3]",1.0,4.0,0.22407889366149902,1.6772048473358154,0.44626324644385484,102.0,616.0
B,L,"[5, 2]",1.0,5.0,0.20779800415039062,1.6779890060424805,0.4576590559206586,102.0,617.0
Y,R,"[5, 3]",1.0,6.0,0.18828105926513672,1.5961148738861084,0.4036743741950353,102.0,618.0
,,"(3, 3)",,,,,,102.0,
G,D,"[4, 3]",1.0,1.0,0.6309659481048584,2.959179162979126,0.42931827360993496,,619.0
B,L,"[4, 2]",1.0,2.0,0.31928110122680664,1.689521074295044,0.3522871802292736,103.0,620.0
Y,R,"[4, 3]",1.0,3.0,0.19903182983398438,1.804408073425293,0.5897760296957609,103.0,621.0
G,D,"[5, 3]",1.0,4.0,0.22919297218322754,1.5493760108947754,0.32247945040957976,103.0,622.0
B,L,"[5, 2]",1.0,5.0,0.17319297790527344,1.7226672172546387,0.5450187139875641,103.0,623.0
Y,R,"[5, 3]",1.0,6.0,0.21519804000854492,1.5109169483184814,0.2894706255556245,103.0,624.0
,,"(3, 3)",,,,,,103.0,
G,D,"[4, 3]",1.0,1.0,0.5534458160400391,3.33817195892334,0.7103773499931548,,625.0
B,L,"[4, 2]",1.0,2.0,0.23707818984985352,1.8394689559936523,0.6000079135445766,104.0,626.0
Y,R,"[4, 3]",1.0,3.0,0.22354888916015625,1.5495109558105469,0.3163372256809469,104.0,627.0
G,D,"[5, 3]",1.0,4.0,0.2581911087036133,1.5817251205444336,0.3146808953531799,104.0,628.0
B,L,"[5, 2]",1.0,5.0,0.18674397468566895,1.718306064605713,0.5160879991086857,104.0,629.0
Y,R,"[5, 3]",1.0,6.0,0.18111705780029297,1.53718900680542,0.3533986867772305,104.0,630.0
,,"(3, 3)",,,,,,104.0,
G,D,"[4, 3]",1.0,1.0,0.932941198348999,3.4678280353546143,0.6044483947068199,,631.0
B,L,"[4, 2]",1.0,2.0,0.22104191780090332,1.5637328624725342,0.3514329478599581,105.0,632.0
Y,R,"[4, 3]",1.0,3.0,0.18823909759521484,1.8622050285339355,0.6632682196104449,105.0,633.0
G,D,"[5, 3]",1.0,4.0,0.26957178115844727,1.9220969676971436,0.6354533943077689,105.0,634.0
B,L,"[5, 2]",1.0,5.0,0.16283798217773438,1.4738671779632568,0.30964083609763865,105.0,635.0
Y,R,"[5, 3]",1.0,6.0,0.19929909706115723,1.4686450958251953,0.2780654386096204,105.0,636.0
,,"(3, 3)",,,,,,105.0,
G,D,"[4, 3]",1.0,1.0,0.5536379814147949,3.122852087020874,0.6507415548205872,,637.0
B,L,"[4, 2]",1.0,2.0,0.6662569046020508,2.4152750968933105,0.7321300700643922,106.0,638.0
Y,R,"[4, 3]",1.0,3.0,0.19720792770385742,1.800309181213379,0.5993122799321644,106.0,639.0
G,D,"[5, 3]",1.0,4.0,0.2423539161682129,1.611833095550537,0.3615270615705385,106.0,640.0
B,L,"[5, 2]",1.0,5.0,0.8574960231781006,2.478071928024292,0.6224328959694378,106.0,641.0
Y,R,"[5, 3]",1.0,6.0,0.19950604438781738,1.5746221542358398,0.36386277012169455,106.0,642.0
,,"(3, 3)",,,,,,106.0,
G,D,"[4, 3]",1.0,1.0,0.7663249969482422,3.398159980773926,0.3953537893254222,,643.0
B,L,"[4, 2]",1.0,2.0,0.21525907516479492,1.9380030632019043,0.7161707692848791,107.0,644.0
Y,R,"[4, 3]",-1.0,2.0,0.0751500129699707,5.8339550495147705,0.6169491524503626,107.0,645.0
G,D,"[5, 3]",1.0,3.0,0.2808420658111572,1.8069438934326172,0.5241238952733629,107.0,646.0
B,L,"[5, 2]",1.0,4.0,0.1738719940185547,1.7080810070037842,0.5317975170429232,107.0,647.0
Y,R,"[5, 3]",1.0,5.0,0.3041400909423828,1.7377338409423828,0.4362619847509284,107.0,648.0
,,"(3, 3)",,,,,,107.0,
G,D,"[4, 3]",1.0,1.0,0.9238929748535156,3.8689768314361572,0.35515131844047604,,649.0
B,L,"[4, 2]",1.0,2.0,0.30425190925598145,1.994215965270996,0.682271070120853,108.0,650.0
Y,R,"[4, 3]",1.0,3.0,0.38906097412109375,1.899604082107544,0.498858962964464,108.0,651.0
G,D,"[5, 3]",1.0,4.0,0.26500701904296875,1.6257050037384033,0.3576358686275236,108.0,652.0
B,L,"[5, 2]",1.0,5.0,0.20027399063110352,1.8132190704345703,0.604188142867593,108.0,653.0
Y,R,"[5, 3]",1.0,6.0,0.25469303131103516,1.5934388637542725,0.33127171182722814,108.0,654.0
,,"(3, 3)",,,,,,108.0,
G,D,"[4, 3]",1.0,1.0,0.5177059173583984,4.031797885894775,0.44588702518860995,,655.0
B,L,"[4, 2]",1.0,2.0,0.2171189785003662,1.9172239303588867,0.6796874132122459,109.0,656.0
Y,R,"[4, 3]",1.0,3.0,0.22256803512573242,1.5570340156555176,0.32019274029576894,109.0,657.0
G,D,"[5, 3]",1.0,4.0,0.8244960308074951,2.081960916519165,0.2522031111132707,109.0,658.0
B,L,"[5, 2]",1.0,5.0,0.259066104888916,1.776237964630127,0.5114061989251504,109.0,659.0
Y,R,"[5, 3]",1.0,6.0,0.17456507682800293,1.7131829261779785,0.541282764429749,109.0,660.0
,,"(3, 3)",,,,,,109.0,
G,D,"[4, 3]",1.0,1.0,0.5524778366088867,3.139842987060547,0.3978181910017717,,661.0
B,L,"[4, 2]",1.0,2.0,0.18762803077697754,1.479053020477295,0.2767849829737973,110.0,662.0
Y,R,"[4, 3]",1.0,3.0,0.3370969295501709,1.7245898246765137,0.38469759760291017,110.0,663.0
G,D,"[5, 3]",1.0,4.0,0.24354290962219238,1.9939179420471191,0.7448578258218699,110.0,664.0
B,L,"[5, 2]",1.0,5.0,0.2253129482269287,1.9638731479644775,0.7421768719666757,110.0,665.0
Y,R,"[5, 3]",1.0,6.0,0.19190692901611328,1.5904450416564941,0.3993004256838202,110.0,666.0
,,"(3, 3)",,,,,,110.0,
G,D,"[4, 3]",1.0,1.0,0.8284189701080322,3.990586996078491,0.5397223434099829,,667.0
B,L,"[4, 2]",1.0,2.0,0.25311994552612305,1.61506986618042,0.35470060049216673,111.0,668.0
Y,R,"[4, 3]",1.0,3.0,0.5843977928161621,2.19038987159729,0.6117241571888616,111.0,669.0
G,D,"[5, 3]",1.0,4.0,0.540045976638794,1.9109442234039307,0.37268207228897543,111.0,670.0
B,L,"[5, 2]",1.0,5.0,0.26640820503234863,1.634127140045166,0.3569789214636593,111.0,671.0
B,L,"[5, 1]",-1.0,4.0,0.25993895530700684,1.6700339317321777,0.41017156227867796,111.0,672.0
,,"(3, 3)",,,,,,111.0,
G,D,"[4, 3]",1.0,1.0,0.37460780143737793,3.5665128231048584,0.5096374106387107,,673.0
B,L,"[4, 2]",1.0,2.0,0.20767712593078613,1.5153958797454834,0.30860544152303865,112.0,674.0
Y,R,"[4, 3]",-1.0,2.0,0.0973050594329834,5.905730962753296,0.6808502519492954,112.0,675.0
G,D,"[5, 3]",1.0,3.0,0.37848496437072754,2.0684759616851807,0.6822721666407774,112.0,676.0
B,L,"[5, 2]",1.0,4.0,0.23253607749938965,1.6727759838104248,0.4383875261817925,112.0,677.0
Y,R,"[5, 3]",1.0,5.0,0.21683907508850098,1.7998099327087402,0.5880077054743007,112.0,678.0
,,"(3, 3)",,,,,,112.0,
G,D,"[4, 3]",1.0,1.0,0.8715200424194336,3.67470121383667,0.4796580842898983,,679.0
B,L,"[4, 2]",1.0,2.0,0.4353518486022949,1.9444360733032227,0.4903867764483875,113.0,680.0
Y,R,"[4, 3]",1.0,3.0,0.21111202239990234,1.5262980461120605,0.3168296296900047,113.0,681.0
G,D,"[5, 3]",1.0,4.0,0.21976900100708008,1.6186621189117432,0.38542462176980524,113.0,682.0
B,L,"[5, 2]",1.0,5.0,0.4188849925994873,2.095747947692871,0.6641094467691955,113.0,683.0
B,L,"[5, 1]",-2.0,5.0,1.2079899311065674,2.8760759830474854,0.6234762302979664,113.0,684.0
,,"(3, 3)",,,,,,113.0,
G,D,"[4, 3]",1.0,1.0,0.551934003829956,3.430398941040039,0.5040625713859905,,685.0
B,L,"[4, 2]",1.0,2.0,0.21399998664855957,1.8211259841918945,0.6083507651823907,114.0,686.0
Y,R,"[4, 3]",1.0,3.0,0.22513079643249512,1.6302170753479004,0.4051931476741633,114.0,687.0
G,D,"[5, 3]",1.0,4.0,0.2427661418914795,1.7115161418914795,0.4666268615127954,114.0,688.0
B,L,"[5, 2]",1.0,5.0,0.2370471954345703,1.7891831398010254,0.539227560055466,114.0,689.0
Y,R,"[5, 3]",1.0,6.0,0.24278903007507324,1.7015130519866943,0.4571835487684925,114.0,690.0
,,"(3, 3)",,,,,,114.0,
G,D,"[4, 3]",1.0,1.0,0.585158109664917,2.956104040145874,0.6629949484581417,,691.0
B,L,"[4, 2]",1.0,2.0,0.20997095108032227,1.6101140975952148,0.3899710470116946,115.0,692.0
Y,R,"[4, 3]",1.0,3.0,0.22994589805603027,1.6069071292877197,0.3803821197773816,115.0,693.0
G,D,"[5, 3]",1.0,4.0,0.2413771152496338,1.7617120742797852,0.5083847163354358,115.0,694.0
B,L,"[5, 2]",1.0,5.0,0.20322394371032715,1.589233160018921,0.3811778824038981,115.0,695.0
Y,R,"[5, 3]",1.0,6.0,0.23422598838806152,1.6042470932006836,0.3518990691315447,115.0,696.0
,,"(3, 3)",,,,,,115.0,
G,D,"[4, 3]",1.0,1.0,0.536937952041626,3.0781590938568115,0.5633633401532989,,697.0
B,L,"[4, 2]",1.0,2.0,0.2258310317993164,1.6778841018676758,0.44102186903270246,116.0,698.0
Y,R,"[4, 3]",1.0,3.0,0.2013559341430664,1.5294930934906006,0.3366629493698817,116.0,699.0
G,D,"[5, 3]",1.0,4.0,0.2926828861236572,1.8437390327453613,0.5474558311778688,116.0,700.0
B,L,"[5, 2]",1.0,5.0,0.18476414680480957,1.6142101287841797,0.411777876209776,116.0,701.0
Y,R,"[5, 3]",1.0,6.0,0.19081902503967285,1.7090399265289307,0.5205332603141295,116.0,702.0
,,"(3, 3)",,,,,,116.0,
G,D,"[4, 3]",1.0,1.0,0.8301169872283936,3.2232918739318848,0.676896260231796,,703.0
B,L,"[4, 2]",1.0,2.0,0.1892690658569336,1.7896668910980225,0.6000001658022845,117.0,704.0
Y,R,"[4, 3]",1.0,3.0,0.1863398551940918,1.6829760074615479,0.48294141878686847,117.0,705.0
G,D,"[5, 3]",1.0,4.0,0.39801621437072754,1.896193027496338,0.49606362450995867,117.0,706.0
B,L,"[5, 2]",1.0,5.0,0.19602203369140625,1.659754991531372,0.4555331431544529,117.0,707.0
Y,R,"[5, 3]",1.0,6.0,0.2177870273590088,1.4951858520507812,0.2676124182403915,117.0,708.0
,,"(3, 3)",,,,,,117.0,
G,D,"[4, 3]",1.0,1.0,0.6831231117248535,3.235198974609375,0.5025419919046479,,709.0
B,L,"[4, 2]",1.0,2.0,0.20345497131347656,1.8113269805908203,0.5970454146168339,118.0,710.0
Y,R,"[4, 3]",1.0,3.0,0.18076014518737793,1.8828270435333252,0.6963393793374053,118.0,711.0
G,D,"[5, 3]",1.0,4.0,0.24033808708190918,1.772860050201416,0.5192246955299977,118.0,712.0
B,L,"[5, 2]",1.0,5.0,0.21970605850219727,1.7374370098114014,0.5065604673468156,118.0,713.0
Y,R,"[5, 3]",1.0,6.0,0.24335098266601562,1.5336720943450928,0.29038409184243646,118.0,714.0
,,"(3, 3)",,,,,,118.0,
G,D,"[4, 3]",1.0,1.0,0.525810956954956,2.5085721015930176,0.5653736077722881,,715.0
B,L,"[4, 2]",1.0,2.0,0.1952991485595703,1.6264770030975342,0.4253923946348872,119.0,716.0
Y,R,"[4, 3]",1.0,3.0,0.2777249813079834,2.012265920639038,0.7376427211334151,119.0,717.0
G,D,"[5, 3]",1.0,4.0,0.22597813606262207,1.6344671249389648,0.4051548516093567,119.0,718.0
B,L,"[5, 2]",1.0,5.0,0.17252898216247559,1.7336461544036865,0.5554273099144181,119.0,719.0
Y,R,"[5, 3]",1.0,6.0,0.1941850185394287,1.5335779190063477,0.33917098340567325,119.0,720.0
,,"(3, 3)",,,,,,119.0,
G,D,"[4, 3]",1.0,1.0,0.5199651718139648,2.5878498554229736,0.5766234808083869,,721.0
B,L,"[4, 2]",1.0,2.0,0.18971800804138184,1.511786937713623,0.3218500337958424,120.0,722.0
Y,R,"[4, 3]",1.0,3.0,0.22073793411254883,1.749547004699707,0.5211362275995239,120.0,723.0
G,D,"[5, 3]",1.0,4.0,0.22498703002929688,1.7079849243164062,0.479267413764335,120.0,724.0
B,L,"[5, 2]",1.0,5.0,0.18659687042236328,1.7515687942504883,0.5474271656809241,120.0,725.0
Y,R,"[5, 3]",1.0,6.0,0.19399785995483398,1.6799349784851074,0.47735444621099365,120.0,726.0
,,"(3, 3)",,,,,,120.0,
G,D,"[4, 3]",1.0,1.0,0.463425874710083,2.1267881393432617,0.32082375906447214,,727.0
B,L,"[4, 2]",1.0,2.0,0.27301692962646484,1.7540569305419922,0.47470515055800483,121.0,728.0
Y,R,"[4, 3]",1.0,3.0,0.22890305519104004,1.8174898624420166,0.591866474221447,121.0,729.0
G,D,"[5, 3]",1.0,4.0,0.28217005729675293,1.7477328777313232,0.4731870461981007,121.0,730.0
B,L,"[5, 2]",1.0,5.0,0.16018986701965332,1.8639118671417236,0.7034056491249849,121.0,731.0
Y,R,"[5, 3]",1.0,6.0,0.282804012298584,1.9996109008789062,0.7030098972127975,121.0,732.0
,,"(3, 3)",,,,,,121.0,
G,D,"[4, 3]",1.0,1.0,0.7423958778381348,2.747267007827759,0.6334190774118651,,733.0
B,L,"[4, 2]",1.0,2.0,0.2915918827056885,2.0051279067993164,0.7050653294854387,122.0,734.0
Y,R,"[4, 3]",1.0,3.0,0.6673309803009033,2.3699140548706055,0.6916194605592443,122.0,735.0
G,D,"[5, 3]",1.0,4.0,0.38779306411743164,1.9829378128051758,0.5913454612848811,122.0,736.0
B,L,"[5, 2]",-2.0,4.0,1.0463368892669678,2.5958518981933594,0.5205790531295376,122.0,737.0
G,D,"[6, 2]",-2.0,4.0,1.8948471546173096,3.5140509605407715,0.5843484325982471,122.0,738.0
,,"(3, 3)",,,,,,122.0,
G,D,"[4, 3]",1.0,1.0,0.5635671615600586,3.3455820083618164,0.413245790425387,,739.0
B,L,"[4, 2]",1.0,2.0,0.23152685165405273,1.836690902709961,0.5997102816269062,123.0,740.0
Y,R,"[4, 3]",1.0,3.0,0.2301959991455078,1.8079781532287598,0.5743653877314742,123.0,741.0
G,D,"[5, 3]",1.0,4.0,0.23110413551330566,1.73744797706604,0.5118580314081805,123.0,742.0
B,L,"[5, 2]",1.0,5.0,0.15697503089904785,1.6198790073394775,0.4651404841462947,123.0,743.0
Y,R,"[5, 3]",1.0,6.0,0.2314589023590088,1.8154048919677734,0.5804833120121271,123.0,744.0
,,"(3, 3)",,,,,,123.0,
G,D,"[4, 3]",1.0,1.0,0.7919330596923828,2.8096399307250977,0.673089686667753,,745.0
B,L,"[4, 2]",1.0,2.0,0.20581507682800293,1.6880621910095215,0.47807755766818677,124.0,746.0
Y,R,"[4, 3]",1.0,3.0,0.13147902488708496,1.8417198657989502,0.7194233099082079,124.0,747.0
G,D,"[5, 3]",1.0,4.0,0.3032870292663574,1.614560842514038,0.31753998027532915,124.0,748.0
B,L,"[5, 2]",1.0,5.0,0.295849084854126,1.949012041091919,0.6495961589853398,124.0,749.0
Y,R,"[5, 3]",1.0,6.0,0.22289395332336426,1.9360289573669434,0.7021445802877662,124.0,750.0
,,"(3, 3)",,,,,,124.0,
G,D,"[4, 3]",1.0,1.0,0.8201110363006592,3.1003189086914062,0.469335141886785,,751.0
B,L,"[4, 2]",1.0,2.0,0.2032790184020996,1.5743792057037354,0.37688541985116736,125.0,752.0
Y,R,"[4, 3]",1.0,3.0,0.2356569766998291,1.8654279708862305,0.6254706181964514,125.0,753.0
G,D,"[5, 3]",1.0,4.0,0.2227919101715088,1.5231761932373047,0.29914087856873595,125.0,754.0
B,L,"[5, 2]",1.0,5.0,0.4274430274963379,1.9840059280395508,0.5494901208910258,125.0,755.0
Y,R,"[5, 3]",1.0,6.0,0.1861112117767334,1.8120059967041016,0.6113648896523044,125.0,756.0
,,"(3, 3)",,,,,,125.0,
G,D,"[4, 3]",1.0,1.0,0.6638109683990479,2.5775859355926514,0.27258686590649706,,757.0
B,L,"[4, 2]",1.0,2.0,0.228715181350708,1.7587599754333496,0.5306552285160158,126.0,758.0
Y,R,"[4, 3]",1.0,3.0,0.20607495307922363,1.70524001121521,0.4859115427579135,126.0,759.0
G,D,"[5, 3]",1.0,4.0,0.22431397438049316,1.904378890991211,0.6734815404659035,126.0,760.0
B,L,"[5, 2]",1.0,5.0,0.1719670295715332,1.426328182220459,0.2668681366631802,126.0,761.0
Y,R,"[5, 3]",1.0,6.0,0.2397768497467041,1.8975961208343506,0.64733805391673,126.0,762.0
,,"(3, 3)",,,,,,126.0,
G,D,"[4, 3]",1.0,1.0,0.8124370574951172,3.1820600032806396,0.6458421728136211,,763.0
B,L,"[4, 2]",1.0,2.0,0.19531798362731934,1.7549231052398682,0.5508499645910367,127.0,764.0
Y,R,"[4, 3]",1.0,3.0,0.7171289920806885,2.4609830379486084,0.7281785510842511,127.0,765.0
G,D,"[5, 3]",1.0,4.0,0.4281289577484131,1.9698970317840576,0.548220043915367,127.0,766.0
B,L,"[5, 2]",1.0,5.0,0.24985003471374512,1.6794099807739258,0.4111515414832045,127.0,767.0
Y,R,"[5, 3]",1.0,6.0,0.25403618812561035,1.9573979377746582,0.7017246300862059,127.0,768.0
,,"(3, 3)",,,,,,127.0,
G,D,"[4, 3]",1.0,1.0,0.6958491802215576,3.449043035507202,0.6004824318281736,,769.0
B,L,"[4, 2]",1.0,2.0,0.36428380012512207,2.0218238830566406,0.6555859736749406,128.0,770.0
Y,R,"[4, 3]",1.0,3.0,0.2196500301361084,1.5444190502166748,0.33361000304653377,128.0,771.0
G,D,"[5, 3]",1.0,4.0,0.27919602394104004,1.6281890869140625,0.3450468789802906,128.0,772.0
B,L,"[5, 2]",1.0,5.0,0.24698591232299805,1.7249469757080078,0.4864885732292831,128.0,773.0
Y,R,"[5, 3]",1.0,6.0,0.17263102531433105,1.7576987743377686,0.5771983007495465,128.0,774.0
,,"(3, 3)",,,,,,128.0,
G,D,"[4, 3]",1.0,1.0,0.5146150588989258,3.6922459602355957,0.6859701825625903,,775.0
B,L,"[4, 2]",1.0,2.0,0.6607608795166016,2.266832113265991,0.6028186883400621,129.0,776.0
Y,R,"[4, 3]",1.0,3.0,0.2517828941345215,1.9447410106658936,0.6807238826766178,129.0,777.0
G,D,"[5, 3]",1.0,4.0,0.25171804428100586,1.8175339698791504,0.565073401796446,129.0,778.0
B,L,"[5, 2]",1.0,5.0,0.30614781379699707,1.8567309379577637,0.5383371938684165,129.0,779.0
Y,R,"[5, 3]",1.0,6.0,0.3082997798919678,2.0137228965759277,0.7019452790943882,129.0,780.0
,,"(3, 3)",,,,,,129.0,
G,D,"[4, 3]",1.0,1.0,0.5917959213256836,3.185959815979004,0.4881870886204166,,781.0
B,L,"[4, 2]",1.0,2.0,0.24590492248535156,1.8778228759765625,0.6323209153543796,130.0,782.0
Y,R,"[4, 3]",1.0,3.0,0.18166613578796387,1.5409269332885742,0.3567937397886144,130.0,783.0
G,D,"[5, 3]",1.0,4.0,0.30120205879211426,1.6711452007293701,0.3610803837173248,130.0,784.0
B,L,"[5, 2]",1.0,5.0,0.2774691581726074,1.9317960739135742,0.6592361968104896,130.0,785.0
Y,R,"[5, 3]",-1.0,5.0,0.0703589916229248,5.8890368938446045,0.6814483039153867,130.0,786.0
,,"(3, 3)",,,,,,130.0,
G,D,"[4, 3]",1.0,1.0,0.7072579860687256,3.7316930294036865,0.5796926547011785,,787.0
B,L,"[4, 2]",1.0,2.0,0.20177793502807617,1.8997061252593994,0.6793598677153782,131.0,788.0
Y,R,"[4, 3]",1.0,3.0,0.2176659107208252,1.9080619812011719,0.6707868893628692,131.0,789.0
G,D,"[5, 3]",1.0,4.0,0.21964406967163086,1.631080150604248,0.401887059910891,131.0,790.0
B,L,"[5, 2]",1.0,5.0,0.26842284202575684,1.6348700523376465,0.3536666905684255,131.0,791.0
Y,R,"[5, 3]",1.0,6.0,0.25289392471313477,1.7898249626159668,0.5264735517496539,131.0,792.0
,,"(3, 3)",,,,,,131.0,
G,D,"[4, 3]",1.0,1.0,0.813129186630249,3.2480878829956055,0.5909220841033226,,793.0
B,L,"[4, 2]",1.0,2.0,0.1276860237121582,1.5817620754241943,0.4561458652832002,132.0,794.0
Y,R,"[4, 3]",1.0,3.0,0.14722013473510742,1.7135930061340332,0.5695389665204715,132.0,795.0
G,D,"[5, 3]",1.0,4.0,0.6329789161682129,1.8913178443908691,0.2613786286479262,132.0,796.0
B,L,"[5, 2]",1.0,5.0,0.327225923538208,1.8875250816345215,0.564988919045725,132.0,797.0
Y,R,"[5, 3]",1.0,6.0,0.2900230884552002,1.6059629917144775,0.30444570845546065,132.0,798.0
,,"(3, 3)",,,,,,132.0,
G,D,"[4, 3]",1.0,1.0,0.8354067802429199,3.763723134994507,0.26824037449383287,,799.0
B,L,"[4, 2]",1.0,2.0,0.2404308319091797,1.6769490242004395,0.42838683927810856,133.0,800.0
Y,R,"[4, 3]",1.0,3.0,0.19464778900146484,1.7771401405334473,0.588454579170528,133.0,801.0
G,D,"[5, 3]",1.0,4.0,0.21437406539916992,1.9270200729370117,0.7153027856653638,133.0,802.0
B,L,"[5, 2]",1.0,5.0,0.1798851490020752,1.4612681865692139,0.2769449478678393,133.0,803.0
Y,R,"[5, 3]",1.0,6.0,0.2799191474914551,1.5615839958190918,0.2885042132182478,133.0,804.0
,,"(3, 3)",,,,,,133.0,
G,D,"[4, 3]",-1.0,-1.0,0.537667989730835,3.146569013595581,0.6013761136644611,,805.0
B,L,"[4, 2]",-1.0,-2.0,0.18332600593566895,1.5149731636047363,0.3165186532867238,134.0,806.0
Y,R,"[4, 3]",-1.0,-3.0,0.2787320613861084,1.8242039680480957,0.5404205238096175,134.0,807.0
R,U,"[3, 3]",-2.0,-3.0,1.0171608924865723,2.4135329723358154,0.37088243848723434,134.0,808.0
R,U,"[2, 3]",1.0,-2.0,0.2846040725708008,1.8238561153411865,0.5444365501250541,134.0,809.0
G,D,"[3, 3]",-2.0,-4.0,0.17743396759033203,1.783634901046753,0.5778192907281443,134.0,810.0
,,"(3, 3)",,,,,,134.0,
R,U,"[2, 3]",1.0,1.0,0.47215914726257324,3.285282850265503,0.3798547968734082,,811.0
B,L,"[2, 2]",1.0,2.0,0.20703601837158203,1.5643408298492432,0.34427992609212127,135.0,812.0
Y,R,"[2, 3]",1.0,3.0,0.27805209159851074,1.804555892944336,0.5321077228055585,135.0,813.0
R,U,"[1, 3]",-1.0,2.0,0.3983030319213867,2.0408358573913574,0.6392288663933547,135.0,814.0
B,L,"[1, 2]",1.0,3.0,0.21688008308410645,1.7225730419158936,0.5117721306699707,135.0,815.0
Y,R,"[1, 3]",-1.0,2.0,0.18341612815856934,1.468228816986084,0.2801968678643917,135.0,816.0
,,"(3, 3)",,,,,,135.0,
R,U,"[2, 3]",1.0,1.0,0.6900389194488525,3.7975008487701416,0.7105960777808248,,817.0
B,L,"[2, 2]",1.0,2.0,0.1974630355834961,1.6072678565979004,0.4179762707825227,136.0,818.0
Y,R,"[2, 3]",1.0,3.0,0.23897218704223633,1.691361904144287,0.44260482156449893,136.0,819.0
G,D,"[3, 3]",-2.0,1.0,0.1864480972290039,1.7710459232330322,0.580118334892108,136.0,820.0
B,L,"[3, 2]",-1.0,0.0,0.18420004844665527,1.47635817527771,0.27349158750176,136.0,821.0
Y,R,"[3, 3]",-2.0,-2.0,0.4054110050201416,1.7675869464874268,0.35754424002980445,136.0,822.0
,,"(3, 3)",,,,,,136.0,
R,U,"[2, 3]",1.0,1.0,0.524522066116333,2.9093539714813232,0.4667369501035521,,823.0
B,L,"[2, 2]",1.0,2.0,0.2349700927734375,1.7234220504760742,0.49003634701902904,137.0,824.0
Y,R,"[2, 3]",1.0,3.0,0.1922619342803955,1.882080078125,0.68852588366456,137.0,825.0
Y,R,"[2, 4]",-1.0,2.0,0.1858668327331543,1.8749830722808838,0.6801878514304458,137.0,826.0
B,L,"[2, 3]",-1.0,2.0,0.06948089599609375,5.526893138885498,0.30717721323678904,137.0,827.0
R,U,"[1, 3]",-2.0,2.0,1.4017889499664307,2.8386499881744385,0.4122971841719256,137.0,828.0
,,"(3, 3)",,,,,,137.0,
R,U,"[2, 3]",1.0,1.0,0.45073509216308594,3.262704849243164,0.6913038453404454,,829.0
B,L,"[2, 2]",1.0,2.0,0.1857898235321045,1.5707130432128906,0.3789214446049845,138.0,830.0
Y,R,"[2, 3]",1.0,3.0,0.19799113273620605,1.6655309200286865,0.4447823127645056,138.0,831.0
G,D,"[3, 3]",-2.0,1.0,0.18141508102416992,1.8875038623809814,0.6982554621428878,138.0,832.0
G,D,"[4, 3]",-1.0,0.0,0.14844202995300293,1.4512219429016113,0.2997629197793139,138.0,833.0
G,D,"[5, 3]",-1.0,-1.0,0.2092139720916748,1.9485070705413818,0.7310552092788491,138.0,834.0
,,"(3, 3)",,,,,,138.0,
R,U,"[2, 3]",1.0,1.0,0.5221641063690186,3.2882111072540283,0.6027967250351643,,835.0
B,L,"[2, 2]",-1.0,1.0,0.0020499229431152344,5.7484400272369385,0.6176997754627174,139.0,836.0
B,L,"[2, 1]",1.0,2.0,0.42381715774536133,1.814100980758667,0.38209462270583916,139.0,837.0
Y,R,"[2, 2]",1.0,3.0,0.2351059913635254,1.7812271118164062,0.5295645193610412,139.0,838.0
R,U,"[1, 2]",1.0,4.0,0.4637410640716553,2.0592470169067383,0.5888283554552605,139.0,839.0
B,L,"[1, 1]",1.0,5.0,0.6556570529937744,2.0416789054870605,0.3806481360262238,139.0,840.0
,,"(3, 3)",,,,,,139.0,
R,U,"[2, 3]",1.0,1.0,0.4994678497314453,3.1363260746002197,0.6997438304394055,,841.0
B,L,"[2, 2]",1.0,2.0,0.19124102592468262,1.6595590114593506,0.4594567424035581,140.0,842.0
Y,R,"[2, 3]",-1.0,2.0,0.07079410552978516,5.790427923202515,0.5995824426479235,140.0,843.0
Y,R,"[2, 4]",-1.0,1.0,0.7382030487060547,2.0685369968414307,0.31827873353356423,140.0,844.0
R,U,"[1, 4]",-1.0,0.0,0.767448902130127,2.448780059814453,0.6667578728326959,140.0,845.0
G,D,"[2, 4]",-1.0,-1.0,0.23748397827148438,1.8707900047302246,0.6208456793872961,140.0,846.0
,,"(3, 3)",,,,,,140.0,
R,U,"[2, 3]",1.0,1.0,0.4542810916900635,3.749130964279175,0.5700947212464105,,847.0
B,L,"[2, 2]",1.0,2.0,0.28781700134277344,1.5495810508728027,0.25312975324162673,141.0,848.0
B,L,"[2, 1]",-1.0,2.0,0.08585810661315918,5.594986200332642,0.3810019094453294,141.0,849.0
B,L,"[2, 0]",0.0,2.0,0.5020160675048828,1.9663310050964355,0.4472391751032257,141.0,850.0
R,U,"[1, 0]",0.0,2.0,0.48801398277282715,2.1837809085845947,0.6807867306893607,141.0,851.0
B,L,"[1, 0]",0.0,2.0,0.2874910831451416,1.6552531719207764,0.3361881977793025,141.0,852.0
,,"(3, 3)",,,,,,141.0,
R,U,"[2, 3]",1.0,1.0,0.9752769470214844,3.8938050270080566,0.39646907245629537,,853.0
B,L,"[2, 2]",1.0,2.0,0.22051501274108887,1.6299190521240234,0.3931266443138221,142.0,854.0
Y,R,"[2, 3]",1.0,3.0,0.19064807891845703,1.8324267864227295,0.6421088751398181,142.0,855.0
R,U,"[1, 3]",-1.0,2.0,0.2874488830566406,1.5500590801239014,0.27565013305236274,142.0,856.0
B,L,"[1, 2]",1.0,3.0,0.5683438777923584,2.0464119911193848,0.4884841441759024,142.0,857.0
Y,R,"[1, 3]",-1.0,2.0,0.2853050231933594,1.9952800273895264,0.7000233504039655,142.0,858.0
,,"(3, 3)",,,,,,142.0,
R,U,"[2, 3]",1.0,1.0,0.4529130458831787,4.549354076385498,0.5829156600931882,,859.0
B,L,"[2, 2]",1.0,2.0,0.19736003875732422,1.5397391319274902,0.33934353930084915,143.0,860.0
Y,R,"[2, 3]",1.0,3.0,0.20184111595153809,1.496859073638916,0.28624467900276307,143.0,861.0
R,U,"[1, 3]",-1.0,2.0,0.22893214225769043,1.493920087814331,0.26329724108991553,143.0,862.0
B,L,"[1, 2]",1.0,3.0,0.20178604125976562,1.9593610763549805,0.7389589135429031,143.0,863.0
B,L,"[1, 1]",1.0,4.0,0.42598891258239746,1.9061930179595947,0.47872523548774043,143.0,864.0
,,"(3, 3)",,,,,,143.0,
B,L,"[3, 2]",-1.0,-1.0,0.9944050312042236,3.695941925048828,0.39107649540273626,,865.0
G,D,"[4, 2]",-1.0,-2.0,0.6275069713592529,2.039961099624634,0.41452336664243755,144.0,866.0
B,L,"[4, 1]",-1.0,-3.0,0.3667778968811035,1.8675081729888916,0.4820112966875356,144.0,867.0
R,U,"[3, 1]",-1.0,-3.0,0.058244943618774414,5.44863486289978,0.2638129201849549,144.0,868.0
G,D,"[4, 1]",-1.0,-4.0,0.9809000492095947,2.6212239265441895,0.6347598456907506,144.0,869.0
B,L,"[4, 0]",0.0,-4.0,0.2801949977874756,1.7669811248779297,0.48497893096178735,144.0,870.0
,,"(3, 3)",,,,,,144.0,
R,U,"[2, 3]",-2.0,0.0,1.318073034286499,4.136006116867065,0.5373797053160654,,871.0
B,L,"[2, 2]",1.0,1.0,0.40004777908325195,1.8439109325408936,0.43144059285507225,145.0,872.0
Y,R,"[2, 3]",1.0,2.0,0.43825197219848633,2.1270129680633545,0.6747036179984369,145.0,873.0
R,U,"[1, 3]",-1.0,1.0,0.7954070568084717,2.125944137573242,0.3175693677781455,145.0,874.0
B,L,"[1, 2]",1.0,2.0,0.6320338249206543,2.377052068710327,0.7276726070681914,145.0,875.0
Y,R,"[1, 3]",-1.0,1.0,0.5093879699707031,2.0865490436553955,0.58080553900188,145.0,876.0
,,"(3, 3)",,,,,,145.0,
R,U,"[2, 3]",-2.0,0.0,1.2618799209594727,4.408749103546143,0.5062583263608207,,877.0
B,L,"[2, 2]",1.0,1.0,0.4461860656738281,1.7623419761657715,0.3020539336105049,146.0,878.0
Y,R,"[2, 3]",1.0,2.0,0.24173521995544434,1.7222099304199219,0.474008452981214,146.0,879.0
R,U,"[1, 3]",-1.0,1.0,0.2500579357147217,1.582643985748291,0.32350045804766153,146.0,880.0
B,L,"[1, 2]",1.0,2.0,0.23262405395507812,1.808656930923462,0.5817650895134082,146.0,881.0
Y,R,"[1, 3]",-1.0,1.0,0.22576403617858887,1.9484741687774658,0.7133297198335037,146.0,882.0
,,"(3, 3)",,,,,,146.0,
G,D,"[4, 3]",-1.0,-1.0,0.5209271907806396,2.976763963699341,0.35707916132557316,,883.0
B,L,"[4, 2]",-1.0,-2.0,0.22409987449645996,1.8273119926452637,0.600694132935739,147.0,884.0
Y,R,"[4, 3]",-1.0,-3.0,0.1740570068359375,1.54349684715271,0.36109033576110466,147.0,885.0
R,U,"[3, 3]",-2.0,-5.0,0.3204689025878906,2.0113778114318848,0.688792890720987,147.0,886.0
B,L,"[3, 2]",-1.0,-6.0,0.8406329154968262,2.4890458583831787,0.6443265620136605,147.0,887.0
B,L,"[3, 1]",1.0,-5.0,0.26825690269470215,1.6975789070129395,0.42541314879524134,147.0,888.0
,,"(3, 3)",,,,,,147.0,
G,D,"[4, 3]",-2.0,0.0,1.1895580291748047,3.705471992492676,0.41410591984223843,,889.0
G,D,"[5, 3]",-1.0,-1.0,0.752532958984375,2.2214629650115967,0.4522330567845127,148.0,890.0
G,D,"[6, 3]",0.0,-1.0,0.2068181037902832,1.5690889358520508,0.3545979201797754,148.0,891.0
B,L,"[6, 2]",0.0,-1.0,0.5991709232330322,2.2824881076812744,0.686655594185765,148.0,892.0
B,L,"[6, 1]",-1.0,-1.0,0.0006029605865478516,5.5791120529174805,0.4492385510330502,148.0,893.0
B,L,"[6, 0]",0.0,-1.0,0.896691083908081,2.2641141414642334,0.3632996169046233,148.0,894.0
,,"(3, 3)",,,,,,148.0,
G,D,"[4, 3]",-1.0,-1.0,0.597379207611084,3.211185932159424,0.42433101586918204,,895.0
R,U,"[3, 3]",-2.0,-3.0,0.4968280792236328,1.95387601852417,0.44489883165298266,149.0,896.0
Y,R,"[3, 4]",-1.0,-4.0,0.3235650062561035,2.03800106048584,0.7157839402465851,149.0,897.0
B,L,"[3, 3]",-2.0,-6.0,0.24452686309814453,2.007359027862549,0.7397635070636864,149.0,898.0
B,L,"[3, 2]",-1.0,-7.0,0.16047096252441406,1.8395071029663086,0.6626722463468785,149.0,899.0
B,L,"[3, 1]",1.0,-6.0,0.1846151351928711,1.6358940601348877,0.4320592195036002,149.0,900.0
,,"(3, 3)",,,,,,149.0,
Y,R,"[3, 4]",-2.0,0.0,1.5150620937347412,4.2591400146484375,0.5910706124872972,,901.0
G,D,"[4, 4]",-1.0,-1.0,0.4132258892059326,2.0090630054473877,0.5999975694342354,150.0,902.0
Y,R,"[4, 5]",-1.0,-2.0,0.18040204048156738,1.7027521133422852,0.5195099392685565,150.0,903.0
Y,R,"[4, 6]",0.0,-2.0,0.4313700199127197,1.9767789840698242,0.5293547987039029,150.0,904.0
Y,R,"[4, 6]",0.0,-2.0,0.10819005966186523,1.556027889251709,0.4353910509430323,150.0,905.0
Y,R,"[4, 6]",0.0,-2.0,0.22309494018554688,1.9384350776672363,0.7068389085042397,150.0,906.0
,,"(3, 3)",,,,,,150.0,
B,L,"[3, 2]",-1.0,-1.0,0.754429817199707,6.279906988143921,0.4535217387932955,,907.0
Y,R,"[3, 3]",-2.0,-3.0,0.19711017608642578,1.6239559650421143,0.42761977535479406,151.0,908.0
G,D,"[4, 3]",-1.0,-4.0,0.3325181007385254,1.6082899570465088,0.2693227688131049,151.0,909.0
R,U,"[3, 3]",-2.0,-6.0,0.4217841625213623,1.8769631385803223,0.4460690585774121,151.0,910.0
B,L,"[3, 2]",-1.0,-7.0,0.24242615699768066,1.714277982711792,0.45998016569111655,151.0,911.0
Y,R,"[3, 3]",-2.0,-9.0,0.18242120742797852,1.5974440574645996,0.4075600410109103,151.0,912.0
,,"(3, 3)",,,,,,151.0,
B,L,"[3, 2]",-1.0,-1.0,0.6756510734558105,3.4756669998168945,0.6663732932363091,,913.0
B,L,"[3, 1]",1.0,0.0,0.2542719841003418,2.0115020275115967,0.7442429170918357,152.0,914.0
B,L,"[3, 0]",0.0,0.0,0.4080369472503662,2.0474021434783936,0.6415249226453754,152.0,915.0
B,L,"[3, 0]",0.0,0.0,0.24692797660827637,1.539470911026001,0.29797624553954105,152.0,916.0
B,L,"[3, 0]",0.0,0.0,0.2109370231628418,1.907956838607788,0.6887893576452567,152.0,917.0
B,L,"[3, 0]",0.0,0.0,0.2168560028076172,1.7590858936309814,0.548009361606479,152.0,918.0
,,"(3, 3)",,,,,,152.0,
B,L,"[3, 2]",-1.0,-1.0,0.47060608863830566,3.2083709239959717,0.43979027344354243,,919.0
B,L,"[3, 1]",1.0,0.0,0.19510388374328613,1.508073091506958,0.31457576802863946,153.0,920.0
B,L,"[3, 0]",0.0,0.0,0.21065711975097656,1.8970420360565186,0.6780317964269289,153.0,921.0
G,D,"[4, 0]",0.0,0.0,0.12592196464538574,1.4432809352874756,0.3215118203655107,153.0,922.0
G,D,"[5, 0]",0.0,0.0,0.3161180019378662,1.674536943435669,0.36249132349146423,153.0,923.0
Y,R,"[5, 1]",-1.0,-1.0,0.293377161026001,1.9913830757141113,0.7033935561508091,153.0,924.0
,,"(3, 3)",,,,,,153.0,
G,D,"[4, 3]",-2.0,0.0,1.0350251197814941,3.545992851257324,0.3333627042514377,,925.0
G,D,"[5, 3]",-1.0,-1.0,0.1824650764465332,1.5643048286437988,0.36402304621561554,154.0,926.0
B,L,"[5, 2]",-1.0,-1.0,0.08973193168640137,5.799721002578735,0.5634082677264379,154.0,927.0
B,L,"[5, 1]",-1.0,-2.0,0.7755498886108398,2.5105271339416504,0.7236633428172157,154.0,928.0
B,L,"[5, 0]",-2.0,-2.0,3.9196109771728516,5.416000127792358,0.4564161824314794,154.0,929.0
Y,R,"[5, 1]",-1.0,-3.0,0.8067171573638916,2.5322670936584473,0.7216428515255873,154.0,930.0
,,"(3, 3)",,,,,,154.0,
B,L,"[3, 2]",-1.0,-1.0,0.5965158939361572,3.1464180946350098,0.5513865280704545,,931.0
R,U,"[2, 2]",1.0,0.0,0.21435189247131348,1.7802999019622803,0.565004623645871,155.0,932.0
R,U,"[1, 2]",1.0,1.0,0.23987412452697754,1.7466518878936768,0.49489497505334756,155.0,933.0
B,L,"[1, 1]",1.0,2.0,0.3215460777282715,1.923292875289917,0.6182125223356976,155.0,934.0
R,U,"[0, 1]",0.0,2.0,0.44021105766296387,1.964750051498413,0.5162807655255562,155.0,935.0
B,L,"[0, 0]",0.0,2.0,0.20289111137390137,1.7621970176696777,0.5615374696710429,155.0,936.0
,,"(3, 3)",,,,,,155.0,
R,U,"[2, 3]",1.0,1.0,0.5624840259552002,3.208453893661499,0.5199762784498672,,937.0
R,U,"[1, 3]",-1.0,0.0,0.21473407745361328,1.7199599742889404,0.4901847347156415,156.0,938.0
R,U,"[0, 3]",0.0,0.0,0.27417588233947754,1.9670779705047607,0.6909494251393835,156.0,939.0
B,L,"[0, 2]",0.0,0.0,0.2174980640411377,1.886509895324707,0.6764760322120906,156.0,940.0
R,U,"[0, 2]",0.0,0.0,0.30524778366088867,1.5644822120666504,0.2748035702878475,156.0,941.0
R,U,"[0, 2]",0.0,0.0,0.10545492172241211,1.4824159145355225,0.37378625650957276,156.0,942.0
,,"(3, 3)",,,,,,156.0,
B,L,"[3, 2]",-1.0,-1.0,0.6059849262237549,3.587095022201538,0.5273710851135827,,943.0
R,U,"[2, 2]",1.0,0.0,0.21261000633239746,1.7021470069885254,0.479419444861004,157.0,944.0
R,U,"[1, 2]",1.0,1.0,0.2669808864593506,1.5686299800872803,0.2980809241537669,157.0,945.0
R,U,"[0, 2]",0.0,1.0,0.28829193115234375,2.0496599674224854,0.7472814363469172,157.0,946.0
Y,R,"[0, 3]",0.0,1.0,0.25129008293151855,1.9678409099578857,0.7150564895612403,157.0,947.0
B,L,"[0, 2]",0.0,1.0,0.6095860004425049,2.047638177871704,0.429748916145243,157.0,948.0
,,"(3, 3)",,,,,,157.0,
R,U,"[2, 3]",1.0,1.0,0.47776007652282715,2.948751926422119,0.32839302592183256,,949.0
R,U,"[1, 3]",-1.0,0.0,0.29111504554748535,1.8249781131744385,0.5363464217295434,158.0,950.0
G,D,"[2, 3]",1.0,1.0,0.27481698989868164,1.8312911987304688,0.5509827732194299,158.0,951.0
G,D,"[3, 3]",-2.0,-1.0,0.28373098373413086,1.910372018814087,0.6112548159030997,158.0,952.0
R,U,"[2, 3]",1.0,0.0,0.21747398376464844,1.854499101638794,0.6324344651053706,158.0,953.0
R,U,"[1, 3]",-1.0,-1.0,0.295665979385376,1.6836230754852295,0.36625153824289114,158.0,954.0
,,"(3, 3)",,,,,,158.0,
R,U,"[2, 3]",1.0,1.0,0.6728208065032959,3.402184009552002,0.5183709074442944,,955.0
R,U,"[1, 3]",-1.0,0.0,0.2911951541900635,1.9695332050323486,0.6705741619715649,159.0,956.0
G,D,"[2, 3]",1.0,1.0,0.30951380729675293,1.666991949081421,0.35453252325643786,159.0,957.0
G,D,"[3, 3]",-2.0,-1.0,0.30316805839538574,1.9282808303833008,0.6326909087370168,159.0,958.0
R,U,"[2, 3]",1.0,0.0,0.367603063583374,2.0069198608398438,0.6226984386477459,159.0,959.0
R,U,"[1, 3]",-1.0,-1.0,0.8764610290527344,2.495323896408081,0.6179641754634343,159.0,960.0
,,"(3, 3)",,,,,,159.0,
G,D,"[4, 3]",-1.0,-1.0,0.632997989654541,7.681013107299805,0.7153164070485201,,961.0
B,L,"[4, 2]",-1.0,-2.0,0.2559080123901367,1.8088679313659668,0.5409557071410327,160.0,962.0
R,U,"[3, 2]",-1.0,-3.0,0.22520804405212402,1.846851110458374,0.6209465164042631,160.0,963.0
R,U,"[2, 2]",1.0,-2.0,0.32886290550231934,1.9175221920013428,0.5883538267097563,160.0,964.0
R,U,"[1, 2]",1.0,-1.0,0.30130887031555176,1.836327075958252,0.5247135192648285,160.0,965.0
R,U,"[0, 2]",0.0,-1.0,0.24478602409362793,1.9457919597625732,0.7035842384719498,160.0,966.0
,,"(3, 3)",,,,,,160.0,
R,U,"[2, 3]",-2.0,0.0,2.9129929542541504,6.270366191864014,0.3907454465789156,,967.0
B,L,"[2, 2]",1.0,1.0,0.3104581832885742,1.5864510536193848,0.27750322794581467,161.0,968.0
B,L,"[2, 1]",1.0,2.0,0.398881196975708,1.8186089992523193,0.4289391569073759,161.0,969.0
B,L,"[2, 0]",0.0,2.0,0.24711394309997559,1.7632179260253906,0.5252912655064775,161.0,970.0
R,U,"[1, 0]",0.0,2.0,0.2324390411376953,1.9644219875335693,0.739682845703156,161.0,971.0
B,L,"[1, 0]",0.0,2.0,0.2536041736602783,1.800673007965088,0.5572319111557777,161.0,972.0
,,"(3, 3)",,,,,,161.0,
B,L,"[3, 2]",-1.0,-1.0,0.36650896072387695,3.1790099143981934,0.2695120975546075,,973.0
G,D,"[4, 2]",-1.0,-2.0,0.30020809173583984,1.6717708110809326,0.3577990795445167,162.0,974.0
R,U,"[3, 2]",-1.0,-3.0,0.21749496459960938,1.480118989944458,0.2547521466132608,162.0,975.0
Y,R,"[3, 3]",-2.0,-5.0,0.2842080593109131,1.8738939762115479,0.5947979897018772,162.0,976.0
R,U,"[2, 3]",1.0,-4.0,0.2384939193725586,1.7807421684265137,0.5421681330269216,162.0,977.0
B,L,"[2, 2]",1.0,-3.0,0.22110700607299805,1.5121519565582275,0.2879694860772432,162.0,978.0
,,"(3, 3)",,,,,,162.0,
R,U,"[2, 3]",1.0,1.0,0.49675798416137695,6.1966729164123535,0.6007839164989698,,979.0
R,U,"[1, 3]",-1.0,0.0,0.22931504249572754,1.8344690799713135,0.5851872168243413,163.0,980.0
R,U,"[0, 3]",0.0,0.0,0.2109360694885254,1.5838618278503418,0.36936116447432493,163.0,981.0
B,L,"[0, 2]",0.0,0.0,0.226639986038208,1.6372349262237549,0.40636402640550073,163.0,982.0
B,L,"[0, 1]",0.0,0.0,0.1772170066833496,1.448843002319336,0.27208602433197576,163.0,983.0
B,L,"[0, 0]",0.0,0.0,0.25036096572875977,1.877478837966919,0.6321950550356642,163.0,984.0
,,"(3, 3)",,,,,,163.0,
R,U,"[2, 3]",1.0,1.0,0.9839770793914795,3.4144649505615234,0.71333221132201,,985.0
B,L,"[2, 2]",1.0,2.0,0.1822819709777832,1.489983081817627,0.2870962839826314,164.0,986.0
R,U,"[1, 2]",1.0,3.0,0.20483183860778809,1.6741280555725098,0.46089784820811747,164.0,987.0
B,L,"[1, 1]",1.0,4.0,0.5071001052856445,1.9629180431365967,0.45705617665154774,164.0,988.0
B,L,"[1, 0]",-2.0,4.0,2.073431968688965,3.8171780109405518,0.7070921431390701,164.0,989.0
B,L,"[1, 0]",-2.0,4.0,1.8287179470062256,3.163158893585205,0.30408910957332963,164.0,990.0
,,"(3, 3)",,,,,,164.0,
R,U,"[2, 3]",1.0,1.0,0.8359279632568359,3.2949788570404053,0.6651266937496081,,991.0
B,L,"[2, 2]",1.0,2.0,0.21496796607971191,1.5547800064086914,0.3201734261691995,165.0,992.0
R,U,"[1, 2]",1.0,3.0,0.253978967666626,1.6529629230499268,0.3898488103122598,165.0,993.0
B,L,"[1, 1]",1.0,4.0,0.43722009658813477,2.084016799926758,0.6567118868453632,165.0,994.0
R,U,"[0, 1]",0.0,4.0,0.2955482006072998,2.0159530639648438,0.7227974954682824,165.0,995.0
B,L,"[0, 0]",0.0,4.0,0.2329120635986328,1.5484910011291504,0.3215796216354266,165.0,996.0
,,"(3, 3)",,,,,,165.0,
R,U,"[2, 3]",1.0,1.0,0.6966061592102051,3.6294870376586914,0.650546645435459,,997.0
B,L,"[2, 2]",1.0,2.0,0.2775270938873291,1.8184089660644531,0.5355446044021279,166.0,998.0
R,U,"[1, 2]",1.0,3.0,0.3797750473022461,1.8879129886627197,0.5067311118304202,166.0,999.0
B,L,"[1, 1]",1.0,4.0,0.58536696434021,2.336354970932007,0.7427540824867421,166.0,1000.0
B,L,"[1, 0]",0.0,4.0,0.2700810432434082,1.754836082458496,0.48111475097259515,166.0,1001.0
B,L,"[1, 0]",0.0,4.0,0.7143070697784424,2.2387428283691406,0.5200044592442956,166.0,1002.0
,,"(3, 3)",,,,,,166.0,
B,L,"[3, 2]",-1.0,-1.0,0.40430784225463867,2.668384075164795,0.4050403793929432,,1003.0
R,U,"[2, 2]",1.0,0.0,0.2762131690979004,1.8435800075531006,0.5649878533756052,167.0,1004.0
G,D,"[3, 2]",-1.0,-1.0,0.385361909866333,2.0017800331115723,0.6166761104853842,167.0,1005.0
R,U,"[2, 2]",1.0,0.0,0.5341501235961914,2.124495029449463,0.5743314493456582,167.0,1006.0
R,U,"[1, 2]",-2.0,0.0,1.0995399951934814,2.3991620540618896,0.2738435358385473,167.0,1007.0
R,U,"[0, 2]",-2.0,0.0,3.070446014404297,4.425482988357544,0.3325932332199808,167.0,1008.0
,,"(3, 3)",,,,,,167.0,
R,U,"[2, 3]",1.0,1.0,0.6327881813049316,5.588036060333252,0.6866826498891287,,1009.0
B,L,"[2, 2]",1.0,2.0,0.3146688938140869,1.9964330196380615,0.6831612017169889,168.0,1010.0
R,U,"[1, 2]",1.0,3.0,0.23966097831726074,1.975675106048584,0.741895595411898,168.0,1011.0
B,L,"[1, 1]",1.0,4.0,0.2978689670562744,2.0249440670013428,0.7334285347941256,168.0,1012.0
B,L,"[1, 0]",0.0,4.0,0.2895338535308838,1.6711010932922363,0.3713948664431402,168.0,1013.0
R,U,"[0, 0]",0.0,4.0,0.37183594703674316,2.071737051010132,0.692643046006743,168.0,1014.0
,,"(3, 3)",,,,,,168.0,
R,U,"[2, 3]",1.0,1.0,0.45682692527770996,2.675124168395996,0.3350006232925418,,1015.0
B,L,"[2, 2]",1.0,2.0,0.2337350845336914,1.747154951095581,0.49871377553072604,169.0,1016.0
R,U,"[1, 2]",1.0,3.0,0.17639398574829102,1.4734258651733398,0.28890600079298956,169.0,1017.0
B,L,"[1, 1]",1.0,4.0,0.22800493240356445,1.6349289417266846,0.40686274725392124,169.0,1018.0
R,U,"[0, 1]",0.0,4.0,0.20570993423461914,1.9546639919281006,0.7446327734328423,169.0,1019.0
B,L,"[0, 0]",0.0,4.0,0.4126589298248291,2.047977924346924,0.6425510335112725,169.0,1020.0
,,"(3, 3)",,,,,,169.0,
R,U,"[2, 3]",1.0,1.0,0.491117000579834,2.6635971069335938,0.32314145529696164,,1021.0
B,L,"[2, 2]",1.0,2.0,0.2389988899230957,1.873150110244751,0.6456334782526694,170.0,1022.0
R,U,"[1, 2]",1.0,3.0,0.22165584564208984,1.7475931644439697,0.509978674632392,170.0,1023.0
B,L,"[1, 1]",1.0,4.0,0.1941521167755127,1.8512330055236816,0.6609547699627383,170.0,1024.0
R,U,"[0, 1]",0.0,4.0,0.2873210906982422,1.5684151649475098,0.29648130609616213,170.0,1025.0
B,L,"[0, 0]",0.0,4.0,0.20477080345153809,1.6234779357910156,0.40306260867819366,170.0,1026.0
,,"(3, 3)",,,,,,170.0,
R,U,"[2, 3]",1.0,1.0,0.5315001010894775,2.9916470050811768,0.6446395583607782,,1027.0
B,L,"[2, 2]",-2.0,1.0,1.4529850482940674,3.173492908477783,0.7014254296279924,171.0,1028.0
B,L,"[2, 1]",-2.0,1.0,8.501641988754272,9.83289885520935,0.28413650547252445,171.0,1029.0
R,U,"[1, 1]",1.0,2.0,0.389664888381958,1.6618502140045166,0.26241443192502323,171.0,1030.0
B,L,"[1, 0]",0.0,2.0,0.6360697746276855,2.1835789680480957,0.5459936866109083,171.0,1031.0
R,U,"[0, 0]",0.0,2.0,0.19489598274230957,1.4747390747070312,0.2707033580741961,171.0,1032.0
,,"(3, 3)",,,,,,171.0,
R,U,"[2, 3]",1.0,1.0,0.5579941272735596,3.183248996734619,0.6036756444822757,,1033.0
B,L,"[2, 2]",1.0,2.0,0.29087305068969727,1.6969389915466309,0.4005445017609307,172.0,1034.0
R,U,"[1, 2]",1.0,3.0,0.2077929973602295,1.6454441547393799,0.42924864814207586,172.0,1035.0
B,L,"[1, 1]",1.0,4.0,0.21677494049072266,1.786816120147705,0.5492260216053144,172.0,1036.0
R,U,"[0, 1]",0.0,4.0,0.2076711654663086,1.6890709400177002,0.47171423447793187,172.0,1037.0
B,L,"[0, 0]",0.0,4.0,0.22394919395446777,1.8515849113464355,0.6233206012332058,172.0,1038.0
,,"(3, 3)",,,,,,172.0,
B,L,"[3, 2]",-2.0,0.0,1.2549588680267334,3.9970641136169434,0.25359942088119664,,1039.0
R,U,"[2, 2]",1.0,1.0,0.28407716751098633,2.031325101852417,0.7348584861948373,173.0,1040.0
B,L,"[2, 1]",1.0,2.0,0.21859288215637207,1.5859441757202148,0.3540120380865117,173.0,1041.0
R,U,"[1, 1]",1.0,3.0,0.24919581413269043,1.6931030750274658,0.4306371775715722,173.0,1042.0
B,L,"[1, 0]",0.0,3.0,0.2193131446838379,1.6289091110229492,0.409403651897072,173.0,1043.0
R,U,"[0, 0]",0.0,3.0,0.23035311698913574,1.7367610931396484,0.512570140215671,173.0,1044.0
,,"(3, 3)",,,,,,173.0,
R,U,"[2, 3]",1.0,1.0,0.4566171169281006,2.7345049381256104,0.33041693441962944,,1045.0
B,L,"[2, 2]",1.0,2.0,0.20615196228027344,1.701429843902588,0.4817166274715515,174.0,1046.0
R,U,"[1, 2]",1.0,3.0,0.2880280017852783,1.7772178649902344,0.475539274338544,174.0,1047.0
B,L,"[1, 1]",1.0,4.0,0.21333789825439453,1.9256539344787598,0.717456356758726,174.0,1048.0
R,U,"[0, 1]",0.0,4.0,0.22901606559753418,1.9023089408874512,0.6697770044322386,174.0,1049.0
B,L,"[0, 0]",0.0,4.0,0.23894906044006348,1.573699951171875,0.32723882658038783,174.0,1050.0
,,"(3, 3)",,,,,,174.0,
R,U,"[2, 3]",1.0,1.0,0.4920928478240967,2.9559922218322754,0.3662509358648774,,1051.0
B,L,"[2, 2]",1.0,2.0,0.24354887008666992,1.7150330543518066,0.4648247633322689,175.0,1052.0
R,U,"[1, 2]",1.0,3.0,0.2028951644897461,1.9450230598449707,0.7260114866259058,175.0,1053.0
B,L,"[1, 1]",1.0,4.0,0.28162097930908203,1.913964033126831,0.6398203587597301,175.0,1054.0
R,U,"[0, 1]",0.0,4.0,0.20778512954711914,1.8822240829467773,0.6720658891443245,175.0,1055.0
B,L,"[0, 0]",0.0,4.0,0.19043898582458496,1.8393421173095703,0.6448209326926408,175.0,1056.0
,,"(3, 3)",,,,,,175.0,
R,U,"[2, 3]",1.0,1.0,0.5814990997314453,3.0650229454040527,0.49315656026911175,,1057.0
B,L,"[2, 2]",1.0,2.0,0.24867582321166992,1.8911619186401367,0.6505742529884515,176.0,1058.0
R,U,"[1, 2]",1.0,3.0,0.17959308624267578,1.7314817905426025,0.5488565659464223,176.0,1059.0
B,L,"[1, 1]",1.0,4.0,0.19092607498168945,1.67295503616333,0.47207246457706203,176.0,1060.0
R,U,"[0, 1]",0.0,4.0,0.228316068649292,1.5971269607543945,0.36909563281369107,176.0,1061.0
B,L,"[0, 0]",0.0,4.0,0.3663442134857178,1.7853708267211914,0.42090436186336044,176.0,1062.0
,,"(3, 3)",,,,,,176.0,
R,U,"[2, 3]",1.0,1.0,0.5624639987945557,3.4433319568634033,0.4807520949100108,,1063.0
B,L,"[2, 2]",1.0,2.0,0.2691619396209717,1.787668228149414,0.5017017579766652,177.0,1064.0
R,U,"[1, 2]",1.0,3.0,0.24447894096374512,1.9480040073394775,0.6994942656643337,177.0,1065.0
B,L,"[1, 1]",1.0,4.0,0.6073081493377686,1.954482078552246,0.3377894286630326,177.0,1066.0
R,U,"[0, 1]",0.0,4.0,0.9885139465332031,2.3094050884246826,0.3134414396232273,177.0,1067.0
R,U,"[0, 1]",-2.0,4.0,5.066844940185547,6.752691984176636,0.6490127910819932,177.0,1068.0
,,"(3, 3)",,,,,,177.0,
R,U,"[2, 3]",1.0,1.0,0.596470832824707,4.61340594291687,0.4291353979369447,,1069.0
B,L,"[2, 2]",1.0,2.0,0.2012038230895996,1.8781979084014893,0.6738366204753974,178.0,1070.0
R,U,"[1, 2]",1.0,3.0,0.20829105377197266,1.823378086090088,0.6142736156292959,178.0,1071.0
B,L,"[1, 1]",1.0,4.0,0.19485712051391602,1.9002821445465088,0.697247195240877,178.0,1072.0
R,U,"[0, 1]",0.0,4.0,0.24877285957336426,1.6169838905334473,0.3645493534232846,178.0,1073.0
B,L,"[0, 0]",0.0,4.0,0.8521111011505127,2.543170928955078,0.6906871891732573,178.0,1074.0
,,"(3, 3)",,,,,,178.0,
R,U,"[2, 3]",1.0,1.0,0.6285619735717773,2.952082872390747,0.5429920323257473,,1075.0
B,L,"[2, 2]",1.0,2.0,0.4407370090484619,1.7909300327301025,0.3505432311368629,179.0,1076.0
