button_choice,action_choice,coordinate_choice,reward,cumulative_reward,rt,total_trial_time,iti,block_n,trial_n
G,D,"[4, 3]",-2.0,0.0,2.1154940128326416,3.551539897918701,0.4024345607406478,0.0,1.0
B,L,"[4, 2]",-1.0,-1.0,0.2798750400543213,2.0359089374542236,0.7379198462346084,0.0,2.0
Y,R,"[4, 3]",0.0,-1.0,0.42439699172973633,1.9980621337890625,0.569569736951349,0.0,3.0
G,D,"[5, 3]",-1.0,-2.0,0.27765989303588867,1.720844030380249,0.44065449642358734,0.0,4.0
G,D,"[6, 3]",0.0,-2.0,0.21892285346984863,1.5141448974609375,0.28816406225336605,0.0,5.0
G,D,"[6, 3]",0.0,-2.0,0.26738691329956055,1.6319401264190674,0.36993052107283725,0.0,6.0
,,"(3, 3)",,,,,,0.0,
R,U,"[2, 3]",-1.0,-1.0,0.4621269702911377,8.795666933059692,0.34920794361837054,,7.0
R,U,"[1, 3]",1.0,0.0,0.3154280185699463,1.659013032913208,0.32487951712895397,1.0,8.0
R,U,"[0, 3]",0.0,0.0,0.7576799392700195,2.281440019607544,0.5228121749158725,1.0,9.0
B,L,"[0, 2]",0.0,0.0,0.29004788398742676,1.6086549758911133,0.3153798129726095,1.0,10.0
B,L,"[0, 1]",0.0,0.0,0.4317290782928467,2.148918867111206,0.7136878819665118,1.0,11.0
Y,R,"[0, 2]",0.0,0.0,0.3765099048614502,1.8871269226074219,0.5010014127596666,1.0,12.0
,,"(3, 3)",,,,,,1.0,
G,D,"[4, 3]",-1.0,-1.0,0.9640598297119141,6.570919990539551,0.6720046792278347,,13.0
G,D,"[5, 3]",-1.0,-2.0,0.454010009765625,1.8991589546203613,0.43805320752225996,2.0,14.0
B,L,"[5, 2]",-1.0,-3.0,0.5490648746490479,2.196449041366577,0.6345131055348014,2.0,15.0
Y,R,"[5, 3]",0.0,-3.0,0.5770101547241211,1.8745701313018799,0.292535772648507,2.0,16.0
Y,R,"[5, 4]",-1.0,-4.0,0.8293979167938232,2.2021679878234863,0.3613579961842456,2.0,17.0
Y,R,"[5, 5]",-1.0,-5.0,0.5165729522705078,1.9358339309692383,0.4138321149751252,2.0,18.0
,,"(3, 3)",,,,,,2.0,
R,U,"[2, 3]",-1.0,-1.0,0.8176500797271729,9.867825031280518,0.41512169271752014,,19.0
G,D,"[3, 3]",0.0,-1.0,0.45114898681640625,1.8047850131988525,0.336631370684498,3.0,20.0
B,L,"[3, 2]",1.0,0.0,0.4833199977874756,2.232743978500366,0.7357393989868106,3.0,21.0
Y,R,"[3, 3]",0.0,0.0,0.46695804595947266,1.7891731262207031,0.3253055588704165,3.0,22.0
Y,R,"[3, 4]",-1.0,-1.0,0.6007521152496338,2.1620030403137207,0.5539407648391392,3.0,23.0
B,L,"[3, 3]",0.0,-1.0,0.248337984085083,1.7183551788330078,0.472446415761785,3.0,24.0
,,"(3, 3)",,,,,,3.0,
G,D,"[4, 3]",-1.0,-1.0,0.8558640480041504,4.986911058425903,0.3260152499912626,,25.0
G,D,"[5, 3]",-1.0,-2.0,0.5452651977539062,1.9375889301300049,0.396893325315765,4.0,26.0
R,U,"[4, 3]",0.0,-2.0,0.2462601661682129,1.7175920009613037,0.4644198103096155,4.0,27.0
R,U,"[3, 3]",0.0,-2.0,0.25585484504699707,1.5087659358978271,0.25700503684575365,4.0,28.0
R,U,"[2, 3]",-1.0,-3.0,0.4618229866027832,1.9523859024047852,0.49249830045539694,4.0,29.0
B,L,"[2, 2]",1.0,-2.0,0.2660379409790039,1.9026541709899902,0.6447498870722213,4.0,30.0
,,"(3, 3)",,,,,,4.0,
B,L,"[3, 2]",-2.0,0.0,1.1791129112243652,6.102910041809082,0.6314541384029655,,31.0
B,L,"[3, 1]",1.0,1.0,0.47435998916625977,2.177053928375244,0.6916615136561535,5.0,32.0
B,L,"[3, 0]",0.0,1.0,0.3427760601043701,2.0830719470977783,0.7411492622689563,5.0,33.0
B,L,"[3, 0]",0.0,1.0,0.5095109939575195,1.9066040515899658,0.3982389815584689,5.0,34.0
B,L,"[3, 0]",0.0,1.0,0.6059720516204834,2.156633138656616,0.5382077208776803,5.0,35.0
B,L,"[3, 0]",0.0,1.0,0.3209688663482666,1.667428970336914,0.33924774271232694,5.0,36.0
,,"(3, 3)",,,,,,5.0,
B,L,"[3, 2]",-2.0,0.0,1.2129440307617188,5.502539873123169,0.7415202147729254,,37.0
B,L,"[3, 1]",1.0,1.0,0.2036130428314209,1.7414710521697998,0.5331010667914473,6.0,38.0
B,L,"[3, 0]",0.0,1.0,0.25279784202575684,1.940579891204834,0.6734243217207575,6.0,39.0
B,L,"[3, 0]",0.0,1.0,0.19646501541137695,1.460433006286621,0.26775447291808663,6.0,40.0
B,L,"[3, 0]",0.0,1.0,0.3078958988189697,1.635638952255249,0.3200484884335178,6.0,41.0
B,L,"[3, 0]",0.0,1.0,0.2605581283569336,1.9018490314483643,0.6382686796944858,6.0,42.0
,,"(3, 3)",,,,,,6.0,
B,L,"[3, 2]",1.0,1.0,0.6659359931945801,3.893256902694702,0.7481370925040802,,43.0
B,L,"[3, 1]",1.0,2.0,0.15390276908874512,1.4778690338134766,0.3097421298623368,7.0,44.0
B,L,"[3, 0]",0.0,2.0,0.22423791885375977,1.6448979377746582,0.4214106095842295,7.0,45.0
B,L,"[3, 0]",0.0,2.0,0.2493741512298584,1.5967299938201904,0.3514016400031574,7.0,46.0
B,L,"[3, 0]",0.0,2.0,0.35924696922302246,1.7376859188079834,0.37240631346725395,7.0,47.0
B,L,"[3, 0]",0.0,2.0,0.18294906616210938,1.6042921543121338,0.42671609619659656,7.0,48.0
,,"(3, 3)",,,,,,7.0,
B,L,"[3, 2]",1.0,1.0,0.7113361358642578,6.570641040802002,0.597557425317468,,49.0
B,L,"[3, 1]",-1.0,1.0,0.09668803215026855,5.768621921539307,0.5327609051190414,8.0,50.0
B,L,"[3, 0]",0.0,1.0,0.6454050540924072,2.106696844100952,0.45622801870849417,8.0,51.0
B,L,"[3, 0]",0.0,1.0,0.3226349353790283,1.7770259380340576,0.44989469304170654,8.0,52.0
B,L,"[3, 0]",0.0,1.0,0.1383039951324463,1.521374225616455,0.3713848157988102,8.0,53.0
B,L,"[3, 0]",0.0,1.0,0.2474820613861084,1.7928178310394287,0.5473405182522201,8.0,54.0
,,"(3, 3)",,,,,,8.0,
B,L,"[3, 2]",1.0,1.0,0.8589701652526855,5.32541298866272,0.5063298462835903,,55.0
B,L,"[3, 1]",1.0,2.0,0.23009109497070312,1.611583948135376,0.38477823679413775,9.0,56.0
B,L,"[3, 0]",0.0,2.0,0.2724440097808838,1.7505640983581543,0.46847240237217935,9.0,57.0
B,L,"[3, 0]",0.0,2.0,0.15653705596923828,1.5630791187286377,0.39839804257026656,9.0,58.0
B,L,"[3, 0]",0.0,2.0,0.2560269832611084,1.6399891376495361,0.3717227083117138,9.0,59.0
B,L,"[3, 0]",0.0,2.0,0.24385404586791992,1.801300048828125,0.5561513172022364,9.0,60.0
,,"(3, 3)",,,,,,9.0,
B,L,"[3, 2]",-2.0,0.0,1.092160940170288,4.403273105621338,0.4930358504214992,,61.0
B,L,"[3, 1]",1.0,1.0,0.39992713928222656,1.886056900024414,0.4790140094926848,10.0,62.0
B,L,"[3, 0]",0.0,1.0,0.36100292205810547,1.723026990890503,0.36900295619789275,10.0,63.0
B,L,"[3, 0]",0.0,1.0,0.4152719974517822,1.7275381088256836,0.3131100586178236,10.0,64.0
B,L,"[3, 0]",0.0,1.0,0.25897693634033203,1.682070016860962,0.4118383937137867,10.0,65.0
B,L,"[3, 0]",0.0,1.0,0.35343003273010254,1.6286430358886719,0.25728219894080256,10.0,66.0
,,"(3, 3)",,,,,,10.0,
B,L,"[3, 2]",1.0,1.0,0.545957088470459,3.63277006149292,0.4399366655542668,,67.0
B,L,"[3, 1]",1.0,2.0,0.23906803131103516,1.5696778297424316,0.3265786506066482,11.0,68.0
B,L,"[3, 0]",0.0,2.0,0.22644305229187012,1.5098748207092285,0.2864646965484464,11.0,69.0
B,L,"[3, 0]",0.0,2.0,0.20186495780944824,1.8667750358581543,0.6694130875427691,11.0,70.0
B,L,"[3, 0]",0.0,2.0,0.27231884002685547,1.9784419536590576,0.6979539803624312,11.0,71.0
B,L,"[3, 0]",-2.0,2.0,1.0178849697113037,2.7990410327911377,0.74688760257841,11.0,72.0
,,"(3, 3)",,,,,,11.0,
B,L,"[3, 2]",1.0,1.0,0.7192878723144531,7.792480945587158,0.3068770502389849,,73.0
B,L,"[3, 1]",1.0,2.0,0.24814891815185547,1.877140998840332,0.6335418509347659,12.0,74.0
B,L,"[3, 0]",0.0,2.0,0.26854419708251953,1.9006898403167725,0.6176656475969196,12.0,75.0
B,L,"[3, 0]",0.0,2.0,0.21058297157287598,1.7184062004089355,0.5028224965839188,12.0,76.0
B,L,"[3, 0]",0.0,2.0,0.2230980396270752,1.4811880588531494,0.25098050013323003,12.0,77.0
B,L,"[3, 0]",0.0,2.0,0.4407839775085449,1.7184181213378906,0.2861800986321801,12.0,78.0
,,"(3, 3)",,,,,,12.0,
B,L,"[3, 2]",1.0,1.0,0.6556329727172852,6.148223876953125,0.3844068313414171,,79.0
B,L,"[3, 1]",1.0,2.0,0.12848782539367676,1.6590569019317627,0.5265423225574275,13.0,80.0
B,L,"[3, 0]",0.0,2.0,0.21260380744934082,1.7512531280517578,0.5443763364523349,13.0,81.0
B,L,"[3, 0]",-1.0,2.0,0.07112503051757812,5.672615051269531,0.46708038679900327,13.0,82.0
B,L,"[3, 0]",0.0,2.0,0.4482381343841553,2.0120701789855957,0.5624759309392555,13.0,83.0
B,L,"[3, 0]",0.0,2.0,0.30068182945251465,1.9756479263305664,0.6714770919683138,13.0,84.0
,,"(3, 3)",,,,,,13.0,
B,L,"[3, 2]",1.0,1.0,0.5485420227050781,3.8903307914733887,0.362198349550764,,85.0
B,L,"[3, 1]",1.0,2.0,0.28598499298095703,1.6862318515777588,0.3986709565764439,14.0,86.0
B,L,"[3, 0]",0.0,2.0,0.30605316162109375,1.9003899097442627,0.58217282909548,14.0,87.0
Y,R,"[3, 1]",0.0,2.0,0.1860949993133545,1.784285068511963,0.5997169623205023,14.0,88.0
B,L,"[3, 0]",0.0,2.0,0.23900318145751953,1.7006468772888184,0.45054108367911944,14.0,89.0
B,L,"[3, 0]",0.0,2.0,0.2564408779144287,1.6720960140228271,0.4061003279294151,14.0,90.0
,,"(3, 3)",,,,,,14.0,
B,L,"[3, 2]",1.0,1.0,0.5888228416442871,3.8360788822174072,0.7251449430994155,,91.0
B,L,"[3, 1]",1.0,2.0,0.20792198181152344,1.6979961395263672,0.49016360666584896,15.0,92.0
B,L,"[3, 0]",0.0,2.0,0.23849081993103027,1.6371920108795166,0.3941443564251178,15.0,93.0
G,D,"[4, 0]",0.0,2.0,0.451153039932251,2.1097588539123535,0.6702617201676803,15.0,94.0
B,L,"[4, 0]",0.0,2.0,0.3342278003692627,1.771498203277588,0.4419197460920923,15.0,95.0
B,L,"[4, 0]",0.0,2.0,0.25275707244873047,1.7036640644073486,0.46221005900615736,15.0,96.0
,,"(3, 3)",,,,,,15.0,
B,L,"[3, 2]",1.0,1.0,0.7000980377197266,3.546802043914795,0.5091452895137167,,97.0
B,L,"[3, 1]",1.0,2.0,0.11584997177124023,1.5797080993652344,0.4555800704068058,16.0,98.0
R,U,"[2, 1]",1.0,3.0,0.6805019378662109,1.948127031326294,0.2704557965836061,16.0,99.0
R,U,"[1, 1]",-1.0,2.0,0.7657690048217773,2.4982571601867676,0.7184072040137965,16.0,100.0
B,L,"[1, 0]",0.0,2.0,0.20064210891723633,1.6864979267120361,0.488478620061369,16.0,101.0
B,L,"[1, 0]",0.0,2.0,0.17766594886779785,1.9255437850952148,0.7472460313779787,16.0,102.0
,,"(3, 3)",,,,,,16.0,
B,L,"[3, 2]",1.0,1.0,0.5227499008178711,3.6376078128814697,0.7183086079204131,,103.0
B,L,"[3, 1]",1.0,2.0,0.22200512886047363,1.9289090633392334,0.6971895498515915,17.0,104.0
R,U,"[2, 1]",1.0,3.0,0.2676401138305664,1.6248350143432617,0.33911888482361763,17.0,105.0
G,D,"[3, 1]",0.0,3.0,0.47504401206970215,1.850520133972168,0.3730664964138187,17.0,106.0
Y,R,"[3, 2]",0.0,3.0,0.9721720218658447,2.5491819381713867,0.5721184669822206,17.0,107.0
B,L,"[3, 1]",0.0,3.0,0.27612900733947754,1.8248498439788818,0.5468103870744825,17.0,108.0
,,"(3, 3)",,,,,,17.0,
B,L,"[3, 2]",1.0,1.0,0.9738550186157227,4.022329807281494,0.4860351348275745,,109.0
B,L,"[3, 1]",1.0,2.0,0.1772909164428711,1.6606080532073975,0.4797650904827646,18.0,110.0
R,U,"[2, 1]",1.0,3.0,0.25075602531433105,1.5568220615386963,0.2867477400079097,18.0,111.0
Y,R,"[2, 2]",-2.0,3.0,1.0047600269317627,2.5539798736572266,0.5073222405022053,18.0,112.0
Y,R,"[2, 3]",-1.0,2.0,0.23301291465759277,1.9240319728851318,0.6811306820332235,18.0,113.0
B,L,"[2, 2]",0.0,2.0,0.22297096252441406,1.767003059387207,0.5319400289261238,18.0,114.0
,,"(3, 3)",,,,,,18.0,
B,L,"[3, 2]",1.0,1.0,0.5920040607452393,3.4867990016937256,0.41867625007056636,,115.0
B,L,"[3, 1]",1.0,2.0,0.15265488624572754,1.4698729515075684,0.30529601735204565,19.0,116.0
R,U,"[2, 1]",1.0,3.0,0.4561779499053955,2.134415864944458,0.6727428259467004,19.0,117.0
Y,R,"[2, 2]",1.0,4.0,0.20306110382080078,1.5922510623931885,0.38197531356181647,19.0,118.0
G,D,"[3, 2]",0.0,4.0,0.49309587478637695,2.053496837615967,0.5522179243729499,19.0,119.0
Y,R,"[3, 3]",0.0,4.0,0.5029211044311523,1.8323688507080078,0.334875766218896,19.0,120.0
,,"(3, 3)",,,,,,19.0,
B,L,"[3, 2]",1.0,1.0,0.7940058708190918,4.188549995422363,0.306583086817863,,121.0
B,L,"[3, 1]",1.0,2.0,0.21738696098327637,1.5025599002838135,0.27598495165604914,20.0,122.0
R,U,"[2, 1]",1.0,3.0,0.3126189708709717,2.0159690380096436,0.7082731377801593,20.0,123.0
Y,R,"[2, 2]",1.0,4.0,0.4140341281890869,1.913248062133789,0.504946568688012,20.0,124.0
G,D,"[3, 2]",0.0,4.0,0.567410945892334,1.9541358947753906,0.37585967283113314,20.0,125.0
R,U,"[2, 2]",0.0,4.0,0.8225321769714355,2.5031771659851074,0.6789007904767831,20.0,126.0
,,"(3, 3)",,,,,,20.0,
B,L,"[3, 2]",1.0,1.0,0.7423238754272461,3.4784538745880127,0.2906956077604909,,127.0
B,L,"[3, 1]",1.0,2.0,0.28952503204345703,1.7318649291992188,0.43962002602047706,21.0,128.0
R,U,"[2, 1]",1.0,3.0,0.31197094917297363,1.9288949966430664,0.6182678531072551,21.0,129.0
Y,R,"[2, 2]",1.0,4.0,0.25881385803222656,1.5531909465789795,0.28848246867263355,21.0,130.0
Y,R,"[2, 3]",-1.0,3.0,0.34130120277404785,1.8839991092681885,0.5388404340694937,21.0,131.0
B,L,"[2, 2]",0.0,3.0,0.1645219326019287,1.5971112251281738,0.43624043236215704,21.0,132.0
,,"(3, 3)",,,,,,21.0,
B,L,"[3, 2]",1.0,1.0,0.7307031154632568,3.5844268798828125,0.5872934222538042,,133.0
B,L,"[3, 1]",1.0,2.0,0.177581787109375,1.614414930343628,0.435138696038879,22.0,134.0
R,U,"[2, 1]",1.0,3.0,0.30666208267211914,2.031294822692871,0.7162175872085466,22.0,135.0
Y,R,"[2, 2]",1.0,4.0,0.20262503623962402,1.8901028633117676,0.6731987064234404,22.0,136.0
R,U,"[1, 2]",1.0,5.0,0.3593602180480957,1.8836090564727783,0.5235496550363801,22.0,137.0
G,D,"[2, 2]",0.0,5.0,0.9720339775085449,2.7196199893951416,0.7428366012442711,22.0,138.0
,,"(3, 3)",,,,,,22.0,
B,L,"[3, 2]",1.0,1.0,0.7323019504547119,5.699649095535278,0.52639372392115,,139.0
B,L,"[3, 1]",1.0,2.0,0.254626989364624,1.575911045074463,0.319108064742723,23.0,140.0
R,U,"[2, 1]",1.0,3.0,0.3043479919433594,1.5934200286865234,0.27918796483991987,23.0,141.0
Y,R,"[2, 2]",1.0,4.0,0.2870519161224365,1.6149840354919434,0.3274918722460012,23.0,142.0
R,U,"[1, 2]",1.0,5.0,0.39746689796447754,1.8308560848236084,0.4416786238014778,23.0,143.0
R,U,"[0, 2]",0.0,5.0,0.6624751091003418,1.9194657802581787,0.26130120573786264,23.0,144.0
,,"(3, 3)",,,,,,23.0,
B,L,"[3, 2]",1.0,1.0,0.6901290416717529,3.678571939468384,0.6228416178482883,,145.0
B,L,"[3, 1]",1.0,2.0,0.19935393333435059,1.5652141571044922,0.3550006701657706,24.0,146.0
R,U,"[2, 1]",1.0,3.0,0.6837549209594727,2.023164987564087,0.3281718917148754,24.0,147.0
Y,R,"[2, 2]",1.0,4.0,0.43634915351867676,1.744232177734375,0.3058278052276343,24.0,148.0
R,U,"[1, 2]",1.0,5.0,0.42315101623535156,1.890902042388916,0.46314916996532646,24.0,149.0
G,D,"[2, 2]",0.0,5.0,0.26384687423706055,1.8379771709442139,0.5677867496497213,24.0,150.0
,,"(3, 3)",,,,,,24.0,
B,L,"[3, 2]",1.0,1.0,0.8190000057220459,4.277961015701294,0.6957291008547327,,151.0
B,L,"[3, 1]",1.0,2.0,0.23474478721618652,1.7982800006866455,0.5441006727243107,25.0,152.0
R,U,"[2, 1]",1.0,3.0,0.4390380382537842,1.9524331092834473,0.513250778856818,25.0,153.0
Y,R,"[2, 2]",1.0,4.0,0.2230510711669922,1.7377691268920898,0.5010684179666722,25.0,154.0
R,U,"[1, 2]",1.0,5.0,0.27185797691345215,1.9326319694519043,0.6503428944785683,25.0,155.0
Y,R,"[1, 3]",1.0,6.0,0.2396540641784668,1.683608055114746,0.4340922809382894,25.0,156.0
,,"(3, 3)",,,,,,25.0,
B,L,"[3, 2]",1.0,1.0,0.619286060333252,3.4436540603637695,0.2779661450899511,,157.0
B,L,"[3, 1]",1.0,2.0,0.2348330020904541,1.5962419509887695,0.35759705433506056,26.0,158.0
R,U,"[2, 1]",1.0,3.0,0.26682114601135254,1.547253131866455,0.27153326996700405,26.0,159.0
Y,R,"[2, 2]",1.0,4.0,0.24888300895690918,1.8653850555419922,0.6200735443756825,26.0,160.0
R,U,"[1, 2]",1.0,5.0,0.26636719703674316,1.6268761157989502,0.34736415795085634,26.0,161.0
Y,R,"[1, 3]",1.0,6.0,0.2392728328704834,1.9969940185546875,0.7438609232035676,26.0,162.0
,,"(3, 3)",,,,,,26.0,
B,L,"[3, 2]",1.0,1.0,0.5605411529541016,3.268660068511963,0.6458413230501503,,163.0
B,L,"[3, 1]",-1.0,1.0,0.07764983177185059,5.505579948425293,0.268776567267861,27.0,164.0
B,L,"[3, 0]",0.0,1.0,0.33176612854003906,1.7157330513000488,0.38420191595599873,27.0,165.0
R,U,"[2, 0]",0.0,1.0,0.572174072265625,1.9552619457244873,0.3729251804174953,27.0,166.0
Y,R,"[2, 1]",1.0,2.0,0.3601799011230469,1.9314210414886475,0.5708450840368455,27.0,167.0
B,L,"[2, 0]",0.0,2.0,0.5489940643310547,2.1299009323120117,0.5840202002829702,27.0,168.0
,,"(3, 3)",,,,,,27.0,
B,L,"[3, 2]",1.0,1.0,0.7684330940246582,4.602150917053223,0.4029905430341371,,169.0
B,L,"[3, 1]",1.0,2.0,0.48186588287353516,1.8979980945587158,0.4011219949366325,28.0,170.0
R,U,"[2, 1]",1.0,3.0,0.5098910331726074,2.08581805229187,0.5701438995050202,28.0,171.0
Y,R,"[2, 2]",1.0,4.0,0.43775081634521484,2.191542863845825,0.7448721705970305,28.0,172.0
R,U,"[1, 2]",1.0,5.0,0.21651601791381836,1.5797240734100342,0.35835510754005523,28.0,173.0
Y,R,"[1, 3]",1.0,6.0,0.41005706787109375,1.828603982925415,0.4202871779454531,28.0,174.0
,,"(3, 3)",,,,,,28.0,
B,L,"[3, 2]",1.0,1.0,0.6143889427185059,3.1551599502563477,0.5754345086233617,,175.0
B,L,"[3, 1]",1.0,2.0,0.2269749641418457,1.952820062637329,0.7281635222827181,29.0,176.0
R,U,"[2, 1]",1.0,3.0,0.2502758502960205,1.9828908443450928,0.7276516973956646,29.0,177.0
Y,R,"[2, 2]",1.0,4.0,0.24285411834716797,1.5354158878326416,0.2969851930792517,29.0,178.0
R,U,"[1, 2]",1.0,5.0,0.35092902183532715,1.9685821533203125,0.59865017544362,29.0,179.0
Y,R,"[1, 3]",1.0,6.0,0.22241902351379395,1.6804990768432617,0.4461375964724649,29.0,180.0
,,"(3, 3)",,,,,,29.0,
B,L,"[3, 2]",1.0,1.0,0.5786619186401367,2.9225869178771973,0.6350074170314051,,181.0
B,L,"[3, 1]",1.0,2.0,0.22873997688293457,1.5971710681915283,0.36570593456041994,30.0,182.0
R,U,"[2, 1]",1.0,3.0,0.4634130001068115,2.192831039428711,0.7249727351550246,30.0,183.0
Y,R,"[2, 2]",1.0,4.0,0.21930384635925293,1.899533987045288,0.6745749320382222,30.0,184.0
R,U,"[1, 2]",1.0,5.0,0.33419013023376465,1.8397791385650635,0.514697807002477,30.0,185.0
Y,R,"[1, 3]",1.0,6.0,0.24040007591247559,1.724586009979248,0.4725853201936685,30.0,186.0
,,"(3, 3)",,,,,,30.0,
B,L,"[3, 2]",1.0,1.0,0.3865478038787842,3.052212953567505,0.7078748786500639,,187.0
B,L,"[3, 1]",1.0,2.0,0.21798491477966309,1.7034668922424316,0.4781875199169363,31.0,188.0
R,U,"[2, 1]",1.0,3.0,0.2957651615142822,1.7577009201049805,0.46933396993642124,31.0,189.0
Y,R,"[2, 2]",1.0,4.0,0.10827517509460449,1.7592530250549316,0.6451475812928132,31.0,190.0
R,U,"[1, 2]",1.0,5.0,0.23023009300231934,1.8189830780029297,0.5974092335530794,31.0,191.0
Y,R,"[1, 3]",1.0,6.0,0.23499679565429688,1.5883779525756836,0.3361903551424905,31.0,192.0
,,"(3, 3)",,,,,,31.0,
B,L,"[3, 2]",1.0,1.0,0.3723630905151367,3.0845768451690674,0.537226485860631,,193.0
B,L,"[3, 1]",1.0,2.0,0.24045705795288086,1.868088960647583,0.622177302932526,32.0,194.0
R,U,"[2, 1]",1.0,3.0,0.26105499267578125,1.9323310852050781,0.6707922964110458,32.0,195.0
Y,R,"[2, 2]",1.0,4.0,0.1846911907196045,1.9359869956970215,0.7401263359139323,32.0,196.0
R,U,"[1, 2]",1.0,5.0,0.2314598560333252,1.8733601570129395,0.6470622121535452,32.0,197.0
Y,R,"[1, 3]",1.0,6.0,0.3039870262145996,2.0672459602355957,0.7475780631799065,32.0,198.0
,,"(3, 3)",,,,,,32.0,
B,L,"[3, 2]",1.0,1.0,0.5708150863647461,2.58872389793396,0.5200705062164229,,199.0
B,L,"[3, 1]",1.0,2.0,0.24779295921325684,1.84051513671875,0.5937625193743623,33.0,200.0
R,U,"[2, 1]",1.0,3.0,0.28911781311035156,1.5964279174804688,0.30728979465572687,33.0,201.0
Y,R,"[2, 2]",1.0,4.0,0.2642359733581543,1.8641409873962402,0.6043327675199697,33.0,202.0
R,U,"[1, 2]",1.0,5.0,0.24078583717346191,1.9487051963806152,0.7028602468155151,33.0,203.0
Y,R,"[1, 3]",1.0,6.0,0.23088693618774414,1.482206106185913,0.2525274979421137,33.0,204.0
,,"(3, 3)",,,,,,33.0,
B,L,"[3, 2]",1.0,1.0,0.5285890102386475,2.769505023956299,0.3052352946715259,,205.0
B,L,"[3, 1]",1.0,2.0,0.523522138595581,2.159198045730591,0.6306252025261545,34.0,206.0
R,U,"[2, 1]",1.0,3.0,0.29512906074523926,1.826045036315918,0.5234717919547311,34.0,207.0
Y,R,"[2, 2]",1.0,4.0,0.41861796379089355,2.018263101577759,0.5916485587541354,34.0,208.0
R,U,"[1, 2]",1.0,5.0,0.21726489067077637,1.4976069927215576,0.2730530724772031,34.0,209.0
Y,R,"[1, 3]",1.0,6.0,0.28906917572021484,1.8033068180084229,0.5095576402541102,34.0,210.0
,,"(3, 3)",,,,,,34.0,
B,L,"[3, 2]",1.0,1.0,0.38275694847106934,2.7014670372009277,0.39462740688492476,,211.0
B,L,"[3, 1]",1.0,2.0,0.21822810173034668,1.571357011795044,0.349441406382805,35.0,212.0
R,U,"[2, 1]",1.0,3.0,0.3347289562225342,1.964050054550171,0.613119978170205,35.0,213.0
Y,R,"[2, 2]",1.0,4.0,0.19127702713012695,1.5862278938293457,0.38304596072770103,35.0,214.0
R,U,"[1, 2]",1.0,5.0,0.2730720043182373,1.9740939140319824,0.6901919421069924,35.0,215.0
Y,R,"[1, 3]",1.0,6.0,0.2054297924041748,1.8157460689544678,0.6059703253457065,35.0,216.0
,,"(3, 3)",,,,,,35.0,
B,L,"[3, 2]",1.0,1.0,0.4608747959136963,3.461331844329834,0.5506925541074192,,217.0
B,L,"[3, 1]",1.0,2.0,0.2390880584716797,1.9494450092315674,0.7001517273386901,36.0,218.0
R,U,"[2, 1]",1.0,3.0,0.27316999435424805,1.6380119323730469,0.35517541435997113,36.0,219.0
Y,R,"[2, 2]",1.0,4.0,0.326915979385376,1.7498111724853516,0.4212120543143091,36.0,220.0
R,U,"[1, 2]",1.0,5.0,0.29795217514038086,1.6068689823150635,0.31178029713331185,36.0,221.0
Y,R,"[1, 3]",1.0,6.0,0.38107895851135254,2.041063070297241,0.669045766648525,36.0,222.0
,,"(3, 3)",,,,,,36.0,
B,L,"[3, 2]",1.0,1.0,0.4539530277252197,3.2422940731048584,0.4616956983121042,,223.0
B,L,"[3, 1]",1.0,2.0,0.2727510929107666,1.813297986984253,0.5416022294558225,37.0,224.0
R,U,"[2, 1]",1.0,3.0,0.3083200454711914,1.9476120471954346,0.6390828105520684,37.0,225.0
Y,R,"[2, 2]",1.0,4.0,0.2165071964263916,1.9113330841064453,0.6837384547349111,37.0,226.0
R,U,"[1, 2]",1.0,5.0,0.2391660213470459,1.9026360511779785,0.653253408366669,37.0,227.0
Y,R,"[1, 3]",1.0,6.0,0.22691011428833008,1.7674620151519775,0.5375420115257505,37.0,228.0
,,"(3, 3)",,,,,,37.0,
B,L,"[3, 2]",1.0,1.0,0.6143908500671387,3.444148063659668,0.5151698374623372,,229.0
B,L,"[3, 1]",1.0,2.0,0.2372288703918457,1.6015040874481201,0.3502320370418563,38.0,230.0
R,U,"[2, 1]",1.0,3.0,0.36331701278686523,2.062662124633789,0.6959002410649451,38.0,231.0
Y,R,"[2, 2]",-1.0,3.0,0.07841181755065918,5.744262933731079,0.5240501691792347,38.0,232.0
R,U,"[1, 2]",1.0,4.0,0.2336289882659912,1.9815969467163086,0.7384165433813392,38.0,233.0
Y,R,"[1, 3]",1.0,5.0,0.33539795875549316,2.0640928745269775,0.7191409489798535,38.0,234.0
,,"(3, 3)",,,,,,38.0,
B,L,"[3, 2]",1.0,1.0,0.504734992980957,3.09244704246521,0.3453062289177768,,235.0
B,L,"[3, 1]",1.0,2.0,0.4714210033416748,1.8260409832000732,0.35483262300067747,39.0,236.0
R,U,"[2, 1]",1.0,3.0,0.526216983795166,1.843019962310791,0.31438377830396713,39.0,237.0
Y,R,"[2, 2]",1.0,4.0,0.5692181587219238,1.944378137588501,0.3590241405129869,39.0,238.0
R,U,"[1, 2]",1.0,5.0,0.4790339469909668,2.0989298820495605,0.6243382415939687,39.0,239.0
Y,R,"[1, 3]",1.0,6.0,0.23318696022033691,1.7000300884246826,0.44125233360441735,39.0,240.0
,,"(3, 3)",,,,,,39.0,
B,L,"[3, 2]",1.0,1.0,0.37974119186401367,3.1195170879364014,0.3773422768709278,,241.0
B,L,"[3, 1]",1.0,2.0,0.2009880542755127,1.8673460483551025,0.6610747415546434,40.0,242.0
R,U,"[2, 1]",1.0,3.0,0.44301605224609375,1.8133981227874756,0.37488336823831764,40.0,243.0
Y,R,"[2, 2]",1.0,4.0,0.24441003799438477,1.9833638668060303,0.7411950399609981,40.0,244.0
R,U,"[1, 2]",1.0,5.0,0.23612499237060547,1.9192609786987305,0.6771647945500321,40.0,245.0
Y,R,"[1, 3]",1.0,6.0,0.28146886825561523,1.946164846420288,0.6734884576821294,40.0,246.0
,,"(3, 3)",,,,,,40.0,
B,L,"[3, 2]",1.0,1.0,0.6044061183929443,3.267185926437378,0.4243865423013989,,247.0
B,L,"[3, 1]",1.0,2.0,0.2460319995880127,1.6877410411834717,0.44528812362675263,41.0,248.0
R,U,"[2, 1]",1.0,3.0,0.2746391296386719,1.5621459484100342,0.29105215612423574,41.0,249.0
Y,R,"[2, 2]",1.0,4.0,0.2992570400238037,1.6646199226379395,0.37250664982697984,41.0,250.0
R,U,"[1, 2]",1.0,5.0,0.2925708293914795,1.86055588722229,0.5660225910530035,41.0,251.0
Y,R,"[1, 3]",1.0,6.0,0.23883986473083496,1.6355910301208496,0.3850837120789261,41.0,252.0
,,"(3, 3)",,,,,,41.0,
B,L,"[3, 2]",1.0,1.0,0.45537495613098145,2.5081050395965576,0.4597906952518943,,253.0
B,L,"[3, 1]",1.0,2.0,0.3327610492706299,1.68961501121521,0.3496266219452976,42.0,254.0
R,U,"[2, 1]",1.0,3.0,0.37767505645751953,1.6913821697235107,0.3077031407503348,42.0,255.0
Y,R,"[2, 2]",1.0,4.0,0.42638683319091797,2.0912411212921143,0.6655287782168584,42.0,256.0
R,U,"[1, 2]",1.0,5.0,0.26494812965393066,1.7101249694824219,0.44253311381084026,42.0,257.0
Y,R,"[1, 3]",1.0,6.0,0.4134809970855713,1.844243049621582,0.4365614583526822,42.0,258.0
,,"(3, 3)",,,,,,42.0,
B,L,"[3, 2]",1.0,1.0,0.6413869857788086,3.36306095123291,0.5994812170399644,,259.0
B,L,"[3, 1]",1.0,2.0,0.26900506019592285,1.68562912940979,0.4019144645529795,43.0,260.0
R,U,"[2, 1]",1.0,3.0,0.2597651481628418,1.751978874206543,0.48740545151289977,43.0,261.0
Y,R,"[2, 2]",1.0,4.0,0.21282505989074707,1.5380198955535889,0.32551204354811547,43.0,262.0
R,U,"[1, 2]",1.0,5.0,0.2348010540008545,1.7742490768432617,0.5328267531135351,43.0,263.0
Y,R,"[1, 3]",1.0,6.0,0.21045613288879395,1.608328104019165,0.3914985681310508,43.0,264.0
,,"(3, 3)",,,,,,43.0,
B,L,"[3, 2]",1.0,1.0,0.37462306022644043,2.8582990169525146,0.4331216081201852,,265.0
B,L,"[3, 1]",1.0,2.0,0.19992709159851074,1.635457992553711,0.41853799914116224,44.0,266.0
R,U,"[2, 1]",1.0,3.0,0.27555203437805176,1.9139530658721924,0.6322623923630732,44.0,267.0
Y,R,"[2, 2]",1.0,4.0,0.16396808624267578,1.8284258842468262,0.6609472570145054,44.0,268.0
R,U,"[1, 2]",1.0,5.0,0.27880215644836426,1.579535961151123,0.3073071268203957,44.0,269.0
Y,R,"[1, 3]",1.0,6.0,0.2110919952392578,1.907655954360962,0.6980415514819036,44.0,270.0
,,"(3, 3)",,,,,,44.0,
B,L,"[3, 2]",1.0,1.0,0.5666661262512207,3.0625829696655273,0.7440892288959835,,271.0
B,L,"[3, 1]",1.0,2.0,0.2296769618988037,1.9697799682617188,0.7472081681687357,45.0,272.0
R,U,"[2, 1]",1.0,3.0,0.24828696250915527,1.9188599586486816,0.6496122272817093,45.0,273.0
Y,R,"[2, 2]",1.0,4.0,0.2506740093231201,1.9613080024719238,0.6941915531814873,45.0,274.0
R,U,"[1, 2]",1.0,5.0,0.2710700035095215,1.6420657634735107,0.3699480030772135,45.0,275.0
Y,R,"[1, 3]",1.0,6.0,0.43272900581359863,2.152172088623047,0.7217059951160583,45.0,276.0
,,"(3, 3)",,,,,,45.0,
B,L,"[3, 2]",1.0,1.0,0.46556997299194336,3.0140109062194824,0.35284860708791893,,277.0
B,L,"[3, 1]",1.0,2.0,0.35625600814819336,1.671095848083496,0.30731268621346153,46.0,278.0
R,U,"[2, 1]",1.0,3.0,0.3739430904388428,1.7948658466339111,0.4187375384362162,46.0,279.0
Y,R,"[2, 2]",1.0,4.0,0.24916386604309082,1.836667776107788,0.5718434727696038,46.0,280.0
R,U,"[1, 2]",1.0,5.0,0.2803359031677246,1.965796947479248,0.6875415433542442,46.0,281.0
Y,R,"[1, 3]",1.0,6.0,0.18874382972717285,1.9260971546173096,0.7304228597588571,46.0,282.0
,,"(3, 3)",,,,,,46.0,
B,L,"[3, 2]",1.0,1.0,0.4857919216156006,2.519592046737671,0.41689030961094103,,283.0
B,L,"[3, 1]",1.0,2.0,0.2562530040740967,1.9321811199188232,0.665459611961525,47.0,284.0
R,U,"[2, 1]",1.0,3.0,0.2698361873626709,1.9941740036010742,0.7096665574431349,47.0,285.0
Y,R,"[2, 2]",1.0,4.0,0.23942780494689941,1.7922980785369873,0.5521003731587679,47.0,286.0
R,U,"[1, 2]",1.0,5.0,0.47948122024536133,2.1924691200256348,0.7111786355679791,47.0,287.0
Y,R,"[1, 3]",1.0,6.0,0.2563819885253906,1.7616629600524902,0.5064142659775972,47.0,288.0
,,"(3, 3)",,,,,,47.0,
B,L,"[3, 2]",1.0,1.0,0.3692350387573242,3.284050941467285,0.4904888510182929,,289.0
B,L,"[3, 1]",1.0,2.0,0.41184401512145996,2.06337308883667,0.6538586838614621,48.0,290.0
R,U,"[2, 1]",1.0,3.0,0.3709259033203125,1.6990690231323242,0.3198309997766934,48.0,291.0
Y,R,"[2, 2]",1.0,4.0,0.33881092071533203,1.6259918212890625,0.2792061227289489,48.0,292.0
R,U,"[1, 2]",1.0,5.0,0.38336610794067383,2.0341861248016357,0.6630385327698642,48.0,293.0
Y,R,"[1, 3]",1.0,6.0,0.3534979820251465,1.657588005065918,0.2877154915436072,48.0,294.0
,,"(3, 3)",,,,,,48.0,
B,L,"[3, 2]",1.0,1.0,0.35680389404296875,3.3325679302215576,0.6199971155858249,,295.0
B,L,"[3, 1]",1.0,2.0,0.2945139408111572,1.604882001876831,0.3087446587764048,49.0,296.0
R,U,"[2, 1]",1.0,3.0,0.32822704315185547,1.9820270538330078,0.657040120924607,49.0,297.0
Y,R,"[2, 2]",1.0,4.0,0.22901487350463867,1.8174529075622559,0.5913840681624365,49.0,298.0
R,U,"[1, 2]",1.0,5.0,0.25723791122436523,1.843796968460083,0.5852078802309513,49.0,299.0
Y,R,"[1, 3]",1.0,6.0,0.2536001205444336,1.709913969039917,0.4452012992736561,49.0,300.0
,,"(3, 3)",,,,,,49.0,
B,L,"[3, 2]",1.0,1.0,0.35925912857055664,5.246762990951538,0.47539505786049163,,301.0
B,L,"[3, 1]",1.0,2.0,0.3005499839782715,1.79677414894104,0.5053177733202832,50.0,302.0
R,U,"[2, 1]",1.0,3.0,0.3666510581970215,1.7736740112304688,0.3959692620147492,50.0,303.0
Y,R,"[2, 2]",1.0,4.0,0.45702385902404785,1.7970669269561768,0.34294077129763645,50.0,304.0
R,U,"[1, 2]",1.0,5.0,0.40813708305358887,2.059858798980713,0.6526155908815017,50.0,305.0
Y,R,"[1, 3]",1.0,6.0,0.2406008243560791,1.5529730319976807,0.30593675801454606,50.0,306.0
,,"(3, 3)",,,,,,50.0,
B,L,"[3, 2]",1.0,1.0,0.6172769069671631,5.464416027069092,0.5204823526860997,,307.0
B,L,"[3, 1]",-1.0,1.0,0.0012478828430175781,5.548958778381348,0.4194614810685729,51.0,308.0
R,U,"[2, 1]",1.0,2.0,0.3972921371459961,1.928300142288208,0.5310548836953022,51.0,309.0
Y,R,"[2, 2]",1.0,3.0,0.24121999740600586,1.5046730041503906,0.2526636165541009,51.0,310.0
R,U,"[1, 2]",1.0,4.0,0.3172800540924072,1.6357090473175049,0.3050077068660363,51.0,311.0
Y,R,"[1, 3]",1.0,5.0,0.29386305809020996,2.031320095062256,0.7364523676344275,51.0,312.0
,,"(3, 3)",,,,,,51.0,
B,L,"[3, 2]",1.0,1.0,0.5797860622406006,2.7638320922851562,0.6333068786482438,,313.0
B,L,"[3, 1]",1.0,2.0,0.21004295349121094,1.5343899726867676,0.3180178346704688,52.0,314.0
R,U,"[2, 1]",1.0,3.0,0.28864312171936035,1.7456319332122803,0.44689456739677247,52.0,315.0
Y,R,"[2, 2]",1.0,4.0,0.18092608451843262,1.7387011051177979,0.5521397048056478,52.0,316.0
R,U,"[1, 2]",-1.0,4.0,0.02570796012878418,5.464770078659058,0.3172017375455899,52.0,317.0
Y,R,"[1, 3]",1.0,5.0,0.5150759220123291,2.2687630653381348,0.7361361725208733,52.0,318.0
,,"(3, 3)",,,,,,52.0,
B,L,"[3, 2]",1.0,1.0,0.5007081031799316,2.7200069427490234,0.5557494192068009,,319.0
B,L,"[3, 1]",1.0,2.0,0.42469096183776855,1.8468949794769287,0.4193850414233088,53.0,320.0
R,U,"[2, 1]",1.0,3.0,0.6007940769195557,1.892273187637329,0.2785933826236969,53.0,321.0
Y,R,"[2, 2]",1.0,4.0,0.6285750865936279,1.93998384475708,0.3184893918235336,53.0,322.0
R,U,"[1, 2]",1.0,5.0,0.41560792922973633,1.9644050598144531,0.5327213803295968,53.0,323.0
Y,R,"[1, 3]",1.0,6.0,0.2700650691986084,1.6510300636291504,0.3674213807335785,53.0,324.0
,,"(3, 3)",,,,,,53.0,
B,L,"[3, 2]",1.0,1.0,0.5771889686584473,3.1447110176086426,0.6618032016595663,,325.0
B,L,"[3, 1]",1.0,2.0,0.2582559585571289,1.8772809505462646,0.62272011252651,54.0,326.0
R,U,"[2, 1]",1.0,3.0,0.3139321804046631,1.8694758415222168,0.5589106103772754,54.0,327.0
Y,R,"[2, 2]",1.0,4.0,0.24899506568908691,1.6441500186920166,0.38657755638003016,54.0,328.0
R,U,"[1, 2]",1.0,5.0,0.5260188579559326,1.8442928791046143,0.3143205113452094,54.0,329.0
Y,R,"[1, 3]",1.0,6.0,0.46679186820983887,1.965142011642456,0.4793787238471197,54.0,330.0
,,"(3, 3)",,,,,,54.0,
B,L,"[3, 2]",1.0,1.0,0.45319604873657227,3.402116060256958,0.4646751700372343,,331.0
B,L,"[3, 1]",1.0,2.0,0.33193087577819824,1.7678940296173096,0.4326090286491921,55.0,332.0
R,U,"[2, 1]",1.0,3.0,0.3952960968017578,1.7536160945892334,0.35310363951082746,55.0,333.0
Y,R,"[2, 2]",1.0,4.0,0.3278939723968506,1.9941279888153076,0.6637442849204838,55.0,334.0
R,U,"[1, 2]",1.0,5.0,0.35645008087158203,1.96150803565979,0.5919057418028346,55.0,335.0
Y,R,"[1, 3]",1.0,6.0,0.22529387474060059,1.586465835571289,0.3619426864112637,55.0,336.0
,,"(3, 3)",,,,,,55.0,
B,L,"[3, 2]",1.0,1.0,0.4666469097137451,2.6045658588409424,0.516302453692554,,337.0
B,L,"[3, 1]",1.0,2.0,0.4553980827331543,1.9598009586334229,0.4928243764224649,56.0,338.0
R,U,"[2, 1]",1.0,3.0,0.2985649108886719,1.8812451362609863,0.5906698189780899,56.0,339.0
Y,R,"[2, 2]",1.0,4.0,0.3063030242919922,2.01829195022583,0.7087471819235047,56.0,340.0
R,U,"[1, 2]",1.0,5.0,0.2226400375366211,1.7284870147705078,0.5042737010245324,56.0,341.0
Y,R,"[1, 3]",1.0,6.0,0.21840476989746094,1.888124942779541,0.6589160054140637,56.0,342.0
,,"(3, 3)",,,,,,56.0,
B,L,"[3, 2]",1.0,1.0,0.451509952545166,2.182554006576538,0.37523772524118515,,343.0
B,L,"[3, 1]",1.0,2.0,0.29784703254699707,1.6743278503417969,0.38298261468775396,57.0,344.0
R,U,"[2, 1]",1.0,3.0,0.35343503952026367,1.840250015258789,0.48977014095466964,57.0,345.0
Y,R,"[2, 2]",1.0,4.0,0.5462338924407959,2.2415289878845215,0.697661834921782,57.0,346.0
R,U,"[1, 2]",1.0,5.0,0.26476001739501953,1.9447479248046875,0.6757505155114303,57.0,347.0
Y,R,"[1, 3]",1.0,6.0,0.27088308334350586,1.7273011207580566,0.45326689507731255,57.0,348.0
,,"(3, 3)",,,,,,57.0,
B,L,"[3, 2]",1.0,1.0,0.38769984245300293,2.871187925338745,0.5912052571727406,,349.0
B,L,"[3, 1]",1.0,2.0,0.2281200885772705,1.7720189094543457,0.5467635579577379,58.0,350.0
R,U,"[2, 1]",1.0,3.0,0.6839449405670166,2.2507729530334473,0.5475307728345482,58.0,351.0
Y,R,"[2, 2]",1.0,4.0,0.3489718437194824,2.0893938541412354,0.7201555348687172,58.0,352.0
R,U,"[1, 2]",1.0,5.0,0.20775914192199707,1.6303398609161377,0.4173751306731391,58.0,353.0
Y,R,"[1, 3]",1.0,6.0,0.34255099296569824,2.0466389656066895,0.6971407197154846,58.0,354.0
,,"(3, 3)",,,,,,58.0,
B,L,"[3, 2]",1.0,1.0,0.3254210948944092,2.892061948776245,0.3561231579184335,,355.0
B,L,"[3, 1]",1.0,2.0,0.17247486114501953,1.6552698612213135,0.47789493580785747,59.0,356.0
R,U,"[2, 1]",1.0,3.0,0.28348612785339355,1.8225288391113281,0.5338162770063752,59.0,357.0
Y,R,"[2, 2]",1.0,4.0,0.16303682327270508,1.7908878326416016,0.6245968519837075,59.0,358.0
R,U,"[1, 2]",-1.0,4.0,0.08062005043029785,5.893258810043335,0.6844269588166185,59.0,359.0
Y,R,"[1, 3]",1.0,5.0,0.5149469375610352,1.9454560279846191,0.4303386859833613,59.0,360.0
,,"(3, 3)",,,,,,59.0,
B,L,"[3, 2]",1.0,1.0,0.4509119987487793,3.3609509468078613,0.3416377156535348,,361.0
B,L,"[3, 1]",1.0,2.0,0.5150690078735352,2.2076048851013184,0.6988535946825551,60.0,362.0
R,U,"[2, 1]",1.0,3.0,0.5266528129577637,2.238226890563965,0.7036893962166022,60.0,363.0
Y,R,"[2, 2]",1.0,4.0,0.48847103118896484,1.921921968460083,0.4259730962083948,60.0,364.0
R,U,"[1, 2]",1.0,5.0,0.5226900577545166,2.103973865509033,0.5798348197523502,60.0,365.0
Y,R,"[1, 3]",1.0,6.0,0.34098196029663086,1.9355380535125732,0.5821393840766789,60.0,366.0
,,"(3, 3)",,,,,,60.0,
B,L,"[3, 2]",1.0,1.0,0.39093708992004395,2.53783917427063,0.6031506254570018,,367.0
B,L,"[3, 1]",1.0,2.0,0.4434230327606201,1.9552340507507324,0.5086404464193294,61.0,368.0
R,U,"[2, 1]",1.0,3.0,0.46772313117980957,1.988487958908081,0.5135902029610253,61.0,369.0
Y,R,"[2, 2]",1.0,4.0,0.4497640132904053,1.9191501140594482,0.4494562631265381,61.0,370.0
R,U,"[1, 2]",1.0,5.0,0.47110486030578613,2.101881980895996,0.6179105476744493,61.0,371.0
Y,R,"[1, 3]",1.0,6.0,0.42112183570861816,1.8537509441375732,0.4219103723404162,61.0,372.0
,,"(3, 3)",,,,,,61.0,
B,L,"[3, 2]",1.0,1.0,0.3703889846801758,2.6862990856170654,0.49171454359732203,,373.0
B,L,"[3, 1]",1.0,2.0,0.30182909965515137,1.7442600727081299,0.4358713752140794,62.0,374.0
R,U,"[2, 1]",1.0,3.0,0.46700310707092285,1.7824370861053467,0.30178809826564595,62.0,375.0
Y,R,"[2, 2]",1.0,4.0,0.5557339191436768,2.291558027267456,0.7262690022304726,62.0,376.0
R,U,"[1, 2]",1.0,5.0,0.3414030075073242,1.8034160137176514,0.4634923690868203,62.0,377.0
Y,R,"[1, 3]",1.0,6.0,0.35506200790405273,1.9780609607696533,0.6080184852503685,62.0,378.0
,,"(3, 3)",,,,,,62.0,
B,L,"[3, 2]",1.0,1.0,0.5348620414733887,3.151033878326416,0.6424410806570213,,379.0
B,L,"[3, 1]",1.0,2.0,0.4856078624725342,1.924433946609497,0.4338103910650335,63.0,380.0
R,U,"[2, 1]",1.0,3.0,0.48393702507019043,1.9459879398345947,0.4464542514861449,63.0,381.0
Y,R,"[2, 2]",1.0,4.0,0.20014500617980957,1.94502592086792,0.7245730486960338,63.0,382.0
R,U,"[1, 2]",1.0,5.0,0.26906585693359375,1.651973009109497,0.39341792039548223,63.0,383.0
Y,R,"[1, 3]",1.0,6.0,0.3090169429779053,1.6083128452301025,0.3017776101560329,63.0,384.0
,,"(3, 3)",,,,,,63.0,
B,L,"[3, 2]",1.0,1.0,0.46975207328796387,3.144106864929199,0.49583236036394207,,385.0
B,L,"[3, 1]",1.0,2.0,0.39011502265930176,1.9153821468353271,0.5277841483627248,64.0,386.0
R,U,"[2, 1]",1.0,3.0,0.3735809326171875,1.785573959350586,0.4136441852346195,64.0,387.0
Y,R,"[2, 2]",1.0,4.0,0.3786301612854004,1.8557181358337402,0.4692794746481112,64.0,388.0
R,U,"[1, 2]",1.0,5.0,0.41863393783569336,1.6955411434173584,0.2653655259203689,64.0,389.0
Y,R,"[1, 3]",1.0,6.0,0.1627190113067627,1.8359980583190918,0.6672658096776745,64.0,390.0
,,"(3, 3)",,,,,,64.0,
B,L,"[3, 2]",1.0,1.0,0.6380341053009033,3.2578041553497314,0.6920620912352329,,391.0
B,L,"[3, 1]",-1.0,1.0,0.09649491310119629,5.5121378898620605,0.2879466708142636,65.0,392.0
R,U,"[2, 1]",1.0,2.0,0.4049830436706543,2.058758020401001,0.6463330889924288,65.0,393.0
Y,R,"[2, 2]",1.0,3.0,0.26346492767333984,1.5936369895935059,0.32371097867772575,65.0,394.0
R,U,"[1, 2]",1.0,4.0,0.7794358730316162,2.0277090072631836,0.2516102171583973,65.0,395.0
Y,R,"[1, 3]",1.0,5.0,0.3920300006866455,1.8330450057983398,0.4344194463373491,65.0,396.0
,,"(3, 3)",,,,,,65.0,
B,L,"[3, 2]",1.0,1.0,0.47893714904785156,3.318086862564087,0.5857056663215652,,397.0
B,L,"[3, 1]",1.0,2.0,0.23794889450073242,1.8200809955596924,0.5724759705472056,66.0,398.0
R,U,"[2, 1]",1.0,3.0,0.5724129676818848,2.003499984741211,0.4263200412137886,66.0,399.0
Y,R,"[2, 2]",1.0,4.0,0.5026030540466309,2.1534981727600098,0.646030561025976,66.0,400.0
R,U,"[1, 2]",1.0,5.0,0.2618710994720459,2.0074679851531982,0.7370134496301592,66.0,401.0
Y,R,"[1, 3]",1.0,6.0,0.281019926071167,1.8652229309082031,0.58562893838492,66.0,402.0
,,"(3, 3)",,,,,,66.0,
B,L,"[3, 2]",-1.0,-1.0,0.41864705085754395,3.525020122528076,0.7107031646361011,,403.0
B,L,"[3, 1]",1.0,0.0,0.512800931930542,1.7723920345306396,0.2503128146373383,67.0,404.0
R,U,"[2, 1]",-1.0,-1.0,0.42381715774536133,1.785175085067749,0.351947428621797,67.0,405.0
Y,R,"[2, 2]",-1.0,-2.0,0.48323583602905273,2.2226221561431885,0.7240235648562082,67.0,406.0
R,U,"[1, 2]",-1.0,-3.0,0.5306010246276855,1.8395400047302246,0.29736598360984046,67.0,407.0
Y,R,"[1, 3]",-1.0,-4.0,0.7386250495910645,2.018825054168701,0.26625775254987943,67.0,408.0
,,"(3, 3)",,,,,,67.0,
G,D,"[4, 3]",1.0,1.0,0.592026948928833,4.335238933563232,0.4679475904720647,,409.0
G,D,"[5, 3]",1.0,2.0,0.29195404052734375,1.7059340476989746,0.40744902731392146,68.0,410.0
B,L,"[5, 2]",1.0,3.0,0.30585598945617676,1.7721140384674072,0.46282749792099187,68.0,411.0
R,U,"[4, 2]",1.0,4.0,0.7657167911529541,2.3287129402160645,0.5416023163248644,68.0,412.0
B,L,"[4, 1]",1.0,5.0,0.2709660530090332,1.5439140796661377,0.26902305007168653,68.0,413.0
R,U,"[3, 1]",1.0,6.0,0.48902297019958496,1.8395049571990967,0.34190745274311135,68.0,414.0
,,"(3, 3)",,,,,,68.0,
G,D,"[4, 3]",1.0,1.0,0.46777892112731934,3.17751407623291,0.6526489122807808,,415.0
G,D,"[5, 3]",1.0,2.0,0.21785593032836914,1.9560658931732178,0.7252582613212468,69.0,416.0
B,L,"[5, 2]",1.0,3.0,0.24770116806030273,1.5266690254211426,0.2857647296881898,69.0,417.0
R,U,"[4, 2]",1.0,4.0,0.3214399814605713,1.879749059677124,0.5485779878646038,69.0,418.0
B,L,"[4, 1]",1.0,5.0,0.18819808959960938,1.7021629810333252,0.500832302323865,69.0,419.0
R,U,"[3, 1]",1.0,6.0,0.23319196701049805,1.8453080654144287,0.5961704310104585,69.0,420.0
,,"(3, 3)",,,,,,69.0,
G,D,"[4, 3]",1.0,1.0,0.4898850917816162,2.8509628772735596,0.2975936148718742,,421.0
G,D,"[5, 3]",1.0,2.0,0.41124796867370605,2.134615182876587,0.7151429160786937,70.0,422.0
B,L,"[5, 2]",-1.0,2.0,0.08213996887207031,5.875498056411743,0.6573090941452366,70.0,423.0
R,U,"[4, 2]",1.0,3.0,0.5956511497497559,2.3182449340820312,0.7253868069657705,70.0,424.0
B,L,"[4, 1]",1.0,4.0,0.4621100425720215,1.9244778156280518,0.4666643318682807,70.0,425.0
R,U,"[3, 1]",1.0,5.0,0.3667299747467041,1.9809529781341553,0.5977316963838826,70.0,426.0
,,"(3, 3)",,,,,,70.0,
G,D,"[4, 3]",-2.0,0.0,1.077483892440796,3.620026111602783,0.5679159789448032,,427.0
G,D,"[5, 3]",1.0,1.0,0.434920072555542,1.714967966079712,0.26645247154538987,71.0,428.0
G,D,"[6, 3]",0.0,1.0,0.33337998390197754,1.9126379489898682,0.5621158150303873,71.0,429.0
R,U,"[5, 3]",1.0,2.0,0.3328568935394287,1.769300937652588,0.4315080427839638,71.0,430.0
B,L,"[5, 2]",1.0,3.0,0.24866390228271484,1.8391008377075195,0.55382054506528,71.0,431.0
R,U,"[4, 2]",1.0,4.0,0.2750680446624756,1.6942059993743896,0.4149281537427742,71.0,432.0
,,"(3, 3)",,,,,,71.0,
G,D,"[4, 3]",1.0,1.0,0.5644659996032715,3.2003469467163086,0.4488676804059108,,433.0
G,D,"[5, 3]",1.0,2.0,0.4510481357574463,1.9317858219146729,0.463793344211029,72.0,434.0
B,L,"[5, 2]",1.0,3.0,0.3838179111480713,1.8439109325408936,0.44105782556990697,72.0,435.0
R,U,"[4, 2]",1.0,4.0,0.3813340663909912,1.9769320487976074,0.6010867307518974,72.0,436.0
B,L,"[4, 1]",1.0,5.0,0.27339887619018555,1.8376359939575195,0.5555592082860221,72.0,437.0
R,U,"[3, 1]",1.0,6.0,0.3089301586151123,1.7752008438110352,0.4642624060577154,72.0,438.0
,,"(3, 3)",,,,,,72.0,
G,D,"[4, 3]",1.0,1.0,0.5239579677581787,2.846776008605957,0.5277217670074013,,439.0
G,D,"[5, 3]",1.0,2.0,0.31539106369018555,1.6339058876037598,0.3283611954602308,73.0,440.0
B,L,"[5, 2]",1.0,3.0,0.466113805770874,2.047719955444336,0.5926322791854675,73.0,441.0
R,U,"[4, 2]",1.0,4.0,0.2171919345855713,1.7894949913024902,0.5653733355968482,73.0,442.0
B,L,"[4, 1]",1.0,5.0,0.21738600730895996,1.825868844985962,0.5913818932130304,73.0,443.0
R,U,"[3, 1]",1.0,6.0,0.24283099174499512,1.9589729309082031,0.7168404701051924,73.0,444.0
,,"(3, 3)",,,,,,73.0,
G,D,"[4, 3]",1.0,1.0,0.44992995262145996,2.4498050212860107,0.46699336286174076,,445.0
G,D,"[5, 3]",1.0,2.0,0.4650859832763672,2.004300117492676,0.5380196606953611,74.0,446.0
B,L,"[5, 2]",1.0,3.0,0.30915212631225586,2.0253021717071533,0.7129999400953194,74.0,447.0
R,U,"[4, 2]",1.0,4.0,0.5461280345916748,1.9470970630645752,0.39379168451552937,74.0,448.0
B,L,"[4, 1]",1.0,5.0,0.39565610885620117,1.8746070861816406,0.48510004024112513,74.0,449.0
R,U,"[3, 1]",1.0,6.0,0.5985729694366455,2.187448024749756,0.5724289128680637,74.0,450.0
,,"(3, 3)",,,,,,74.0,
G,D,"[4, 3]",1.0,1.0,0.4531221389770508,2.79050612449646,0.5629439766510242,,451.0
G,D,"[5, 3]",1.0,2.0,0.5281288623809814,1.8900349140167236,0.35330471324695584,75.0,452.0
B,L,"[5, 2]",1.0,3.0,0.599877119064331,1.9508349895477295,0.3542050933050015,75.0,453.0
R,U,"[4, 2]",1.0,4.0,0.46991491317749023,2.1988790035247803,0.71938733841218,75.0,454.0
B,L,"[4, 1]",1.0,5.0,0.16011404991149902,1.7017910480499268,0.5380541671521546,75.0,455.0
R,U,"[3, 1]",1.0,6.0,0.4150691032409668,1.8755578994750977,0.4472244842031128,75.0,456.0
,,"(3, 3)",,,,,,75.0,
G,D,"[4, 3]",1.0,1.0,0.5732240676879883,2.854573965072632,0.6515515741921143,,457.0
G,D,"[5, 3]",1.0,2.0,0.42017316818237305,1.7149930000305176,0.28361366889086276,76.0,458.0
B,L,"[5, 2]",1.0,3.0,0.4944479465484619,2.2038588523864746,0.7036702051943207,76.0,459.0
R,U,"[4, 2]",1.0,4.0,0.2984619140625,1.7943999767303467,0.49849304384791554,76.0,460.0
B,L,"[4, 1]",1.0,5.0,0.3247809410095215,1.5957939624786377,0.26103416091652937,76.0,461.0
R,U,"[3, 1]",1.0,6.0,0.4891648292541504,1.8396759033203125,0.35076056482178686,76.0,462.0
,,"(3, 3)",,,,,,76.0,
G,D,"[4, 3]",1.0,1.0,0.5047359466552734,6.9893879890441895,0.6565400899721527,,463.0
G,D,"[5, 3]",1.0,2.0,0.5030691623687744,1.8382539749145508,0.3284034471671496,77.0,464.0
B,L,"[5, 2]",1.0,3.0,0.5408909320831299,1.9658141136169434,0.4276271536166437,77.0,465.0
R,U,"[4, 2]",1.0,4.0,0.47926998138427734,2.03391695022583,0.5613823749390873,77.0,466.0
B,L,"[4, 1]",1.0,5.0,0.34316492080688477,1.638037919998169,0.2996698497264676,77.0,467.0
R,U,"[3, 1]",1.0,6.0,0.33110809326171875,1.8116919994354248,0.47773429066931045,77.0,468.0
,,"(3, 3)",,,,,,77.0,
G,D,"[4, 3]",1.0,1.0,0.6853909492492676,2.611178159713745,0.37249276062264647,,469.0
G,D,"[5, 3]",1.0,2.0,0.4545779228210449,1.9219629764556885,0.4611542326433483,78.0,470.0
B,L,"[5, 2]",1.0,3.0,0.6720080375671387,2.033787965774536,0.3615914869847665,78.0,471.0
R,U,"[4, 2]",1.0,4.0,0.4207439422607422,1.8596489429473877,0.4378936795131561,78.0,472.0
B,L,"[4, 1]",1.0,5.0,0.4432039260864258,1.9252119064331055,0.4797417341217947,78.0,473.0
R,U,"[3, 1]",1.0,6.0,0.38607192039489746,2.1333601474761963,0.7295714867630166,78.0,474.0
,,"(3, 3)",,,,,,78.0,
G,D,"[4, 3]",1.0,1.0,0.37311291694641113,2.8272459506988525,0.2573217984481091,,475.0
G,D,"[5, 3]",1.0,2.0,0.4909648895263672,1.963385820388794,0.47060073181330214,79.0,476.0
B,L,"[5, 2]",1.0,3.0,0.5035688877105713,1.8713819980621338,0.35869320596900256,79.0,477.0
R,U,"[4, 2]",1.0,4.0,0.4789769649505615,1.9897661209106445,0.5151581875694218,79.0,478.0
B,L,"[4, 1]",1.0,5.0,0.35295701026916504,1.710313081741333,0.3422257243267162,79.0,479.0
R,U,"[3, 1]",1.0,6.0,0.5258889198303223,1.7877910137176514,0.2634679609740877,79.0,480.0
,,"(3, 3)",,,,,,79.0,
G,D,"[4, 3]",1.0,1.0,0.5366840362548828,2.5411460399627686,0.2713927584600908,,481.0
G,D,"[5, 3]",1.0,2.0,0.43165016174316406,1.6909677982330322,0.26240298483329066,80.0,482.0
B,L,"[5, 2]",1.0,3.0,0.5024490356445312,1.810539960861206,0.306127236783971,80.0,483.0
R,U,"[4, 2]",1.0,4.0,0.342850923538208,1.9233500957489014,0.5793353519266878,80.0,484.0
B,L,"[4, 1]",1.0,5.0,0.3127720355987549,1.9714751243591309,0.6507687702672653,80.0,485.0
R,U,"[3, 1]",1.0,6.0,0.3179640769958496,1.592879056930542,0.26082634842105473,80.0,486.0
,,"(3, 3)",,,,,,80.0,
G,D,"[4, 3]",1.0,1.0,0.2903149127960205,3.052546977996826,0.546339721777811,,487.0
G,D,"[5, 3]",1.0,2.0,0.6090700626373291,1.9130959510803223,0.29324632120776367,81.0,488.0
B,L,"[5, 2]",1.0,3.0,0.4412550926208496,1.6933059692382812,0.2532842828622999,81.0,489.0
R,U,"[4, 2]",1.0,4.0,0.5612678527832031,1.979917049407959,0.4161631523171554,81.0,490.0
B,L,"[4, 1]",1.0,5.0,0.2799069881439209,1.9755020141601562,0.6913962325753444,81.0,491.0
R,U,"[3, 1]",1.0,6.0,0.26033592224121094,1.884889841079712,0.6264286810151583,81.0,492.0
,,"(3, 3)",,,,,,81.0,
G,D,"[4, 3]",1.0,1.0,0.37736082077026367,2.8577308654785156,0.6843905157616845,,493.0
G,D,"[5, 3]",1.0,2.0,0.24269509315490723,1.8082408905029297,0.5595375270076863,82.0,494.0
B,L,"[5, 2]",1.0,3.0,0.3377509117126465,2.022043228149414,0.6812473767568679,82.0,495.0
R,U,"[4, 2]",1.0,4.0,0.2986311912536621,1.986741065979004,0.6848353717744953,82.0,496.0
B,L,"[4, 1]",1.0,5.0,0.294050931930542,1.9420971870422363,0.6433312783010228,82.0,497.0
R,U,"[3, 1]",1.0,6.0,0.4319140911102295,2.0732250213623047,0.6501082262755418,82.0,498.0
,,"(3, 3)",,,,,,82.0,
G,D,"[4, 3]",1.0,1.0,0.6379110813140869,2.470177173614502,0.2708564780894267,,499.0
G,D,"[5, 3]",1.0,2.0,0.546968936920166,2.2130720615386963,0.6669665290863027,83.0,500.0
B,L,"[5, 2]",1.0,3.0,0.5043821334838867,1.8444349765777588,0.3450181218078819,83.0,501.0
R,U,"[4, 2]",1.0,4.0,0.3611891269683838,1.7447469234466553,0.3895214767673751,83.0,502.0
B,L,"[4, 1]",1.0,5.0,0.33324193954467773,1.9503991603851318,0.622997439039191,83.0,503.0
R,U,"[3, 1]",1.0,6.0,0.2423708438873291,1.851957082748413,0.6083955517399361,83.0,504.0
,,"(3, 3)",,,,,,83.0,
G,D,"[4, 3]",1.0,1.0,0.5435240268707275,2.9638419151306152,0.6890184276139166,,505.0
G,D,"[5, 3]",1.0,2.0,0.2367539405822754,1.8012959957122803,0.5572601157894297,84.0,506.0
B,L,"[5, 2]",1.0,3.0,0.3667938709259033,1.857893943786621,0.48191968021243287,84.0,507.0
R,U,"[4, 2]",1.0,4.0,0.28939199447631836,1.6087920665740967,0.30744435753622046,84.0,508.0
B,L,"[4, 1]",1.0,5.0,0.4460580348968506,1.7954351902008057,0.3529683569226183,84.0,509.0
R,U,"[3, 1]",1.0,6.0,0.40427398681640625,2.159208059310913,0.7449923227835502,84.0,510.0
,,"(3, 3)",,,,,,84.0,
G,D,"[4, 3]",1.0,1.0,0.3660120964050293,2.961817979812622,0.6904211583478315,,511.0
G,D,"[5, 3]",1.0,2.0,0.3008270263671875,1.57529616355896,0.28299365844735047,85.0,512.0
B,L,"[5, 2]",1.0,3.0,0.6534237861633301,2.225127935409546,0.557495898534477,85.0,513.0
R,U,"[4, 2]",1.0,4.0,0.2891709804534912,1.878283977508545,0.5858223635887526,85.0,514.0
B,L,"[4, 1]",1.0,5.0,0.2775759696960449,1.8054149150848389,0.5245055574894255,85.0,515.0
R,U,"[3, 1]",1.0,6.0,0.5157420635223389,2.2506160736083984,0.7254890701051889,85.0,516.0
,,"(3, 3)",,,,,,85.0,
G,D,"[4, 3]",1.0,1.0,0.3752570152282715,3.500241994857788,0.6421729845807576,,517.0
G,D,"[5, 3]",1.0,2.0,0.3467519283294678,2.076202154159546,0.7351123352066761,86.0,518.0
B,L,"[5, 2]",1.0,3.0,0.29946112632751465,2.048021078109741,0.7495610430030678,86.0,519.0
R,U,"[4, 2]",1.0,4.0,0.26468992233276367,1.7235469818115234,0.45706139761451015,86.0,520.0
B,L,"[4, 1]",1.0,5.0,0.6331429481506348,2.3196229934692383,0.6762538325094983,86.0,521.0
R,U,"[3, 1]",1.0,6.0,0.31544995307922363,1.9311389923095703,0.6240751727533829,86.0,522.0
,,"(3, 3)",,,,,,86.0,
G,D,"[4, 3]",1.0,1.0,0.40924811363220215,2.335421085357666,0.32673152595462734,,523.0
G,D,"[5, 3]",1.0,2.0,0.5168089866638184,2.2122020721435547,0.688589597641271,87.0,524.0
B,L,"[5, 2]",1.0,3.0,0.23451495170593262,1.9121909141540527,0.6673424267728776,87.0,525.0
R,U,"[4, 2]",1.0,4.0,0.2758820056915283,1.978538990020752,0.6958819708246468,87.0,526.0
B,L,"[4, 1]",1.0,5.0,0.24343395233154297,1.7570090293884277,0.5032605131600454,87.0,527.0
R,U,"[3, 1]",1.0,6.0,0.6524860858917236,2.3573360443115234,0.6934388103604966,87.0,528.0
,,"(3, 3)",,,,,,87.0,
G,D,"[4, 3]",1.0,1.0,0.30621886253356934,3.5194530487060547,0.646592366663988,,529.0
G,D,"[5, 3]",1.0,2.0,0.4953880310058594,2.0240821838378906,0.5209587053698748,88.0,530.0
B,L,"[5, 2]",1.0,3.0,0.5078001022338867,2.134675979614258,0.6222448510376501,88.0,531.0
R,U,"[4, 2]",1.0,4.0,0.8446018695831299,2.3143999576568604,0.470074026464296,88.0,532.0
B,L,"[4, 1]",1.0,5.0,0.5650110244750977,1.9651720523834229,0.4020809949782084,88.0,533.0
R,U,"[3, 1]",1.0,6.0,0.5253281593322754,2.2345430850982666,0.7030049437611887,88.0,534.0
,,"(3, 3)",,,,,,88.0,
G,D,"[4, 3]",1.0,1.0,0.2764420509338379,3.3665499687194824,0.35325654999380957,,535.0
G,D,"[5, 3]",1.0,2.0,0.6244761943817139,2.1168978214263916,0.4867449551236764,89.0,536.0
B,L,"[5, 2]",1.0,3.0,0.6798598766326904,2.271049976348877,0.5910193001467241,89.0,537.0
R,U,"[4, 2]",1.0,4.0,0.23640084266662598,1.906569004058838,0.6640873102294873,89.0,538.0
B,L,"[4, 1]",1.0,5.0,0.11277294158935547,1.775501012802124,0.6564762228036642,89.0,539.0
R,U,"[3, 1]",1.0,6.0,0.23903584480285645,1.843066930770874,0.5996035215505315,89.0,540.0
,,"(3, 3)",,,,,,89.0,
G,D,"[4, 3]",1.0,1.0,0.4278140068054199,3.3177618980407715,0.617276257833332,,541.0
G,D,"[5, 3]",1.0,2.0,0.340562105178833,1.9975879192352295,0.6482327339105027,90.0,542.0
B,L,"[5, 2]",1.0,3.0,0.4570190906524658,2.186434030532837,0.7179123072119484,90.0,543.0
R,U,"[4, 2]",1.0,4.0,0.27022790908813477,1.7947328090667725,0.5131483031965882,90.0,544.0
B,L,"[4, 1]",1.0,5.0,0.27269816398620605,1.5808019638061523,0.294054587035243,90.0,545.0
R,U,"[3, 1]",1.0,6.0,0.39376306533813477,1.8594551086425781,0.4699313073338051,90.0,546.0
,,"(3, 3)",,,,,,90.0,
G,D,"[4, 3]",1.0,1.0,0.5239670276641846,3.2721989154815674,0.3255468672623387,,547.0
G,D,"[5, 3]",1.0,2.0,0.4207329750061035,2.0410609245300293,0.6164385009513093,91.0,548.0
B,L,"[5, 2]",1.0,3.0,0.23993492126464844,1.8884599208831787,0.6382358823323322,91.0,549.0
R,U,"[4, 2]",1.0,4.0,0.20957493782043457,1.5203909873962402,0.30890843093998244,91.0,550.0
B,L,"[4, 1]",1.0,5.0,0.3258659839630127,1.834650993347168,0.5101247569357589,91.0,551.0
R,U,"[3, 1]",1.0,6.0,0.29674792289733887,2.0353310108184814,0.7451190804210126,91.0,552.0
,,"(3, 3)",,,,,,91.0,
G,D,"[4, 3]",1.0,1.0,0.4555678367614746,3.3991708755493164,0.2948083569071701,,553.0
G,D,"[5, 3]",1.0,2.0,0.6684908866882324,2.265604019165039,0.5934061022321986,92.0,554.0
B,L,"[5, 2]",1.0,3.0,0.4228200912475586,1.8443138599395752,0.42135743642428963,92.0,555.0
R,U,"[4, 2]",1.0,4.0,0.3561279773712158,1.6970078945159912,0.3350485583756067,92.0,556.0
B,L,"[4, 1]",1.0,5.0,0.5869889259338379,2.2595930099487305,0.6610638970897162,92.0,557.0
R,U,"[3, 1]",1.0,6.0,0.3270859718322754,1.6735610961914062,0.35165281224765366,92.0,558.0
,,"(3, 3)",,,,,,92.0,
G,D,"[4, 3]",1.0,1.0,0.4940810203552246,2.811846971511841,0.6301024137794629,,559.0
G,D,"[5, 3]",1.0,2.0,0.2731928825378418,1.8301479816436768,0.5436806468679146,93.0,560.0
B,L,"[5, 2]",1.0,3.0,0.3117849826812744,1.9383931159973145,0.631978437475351,93.0,561.0
R,U,"[4, 2]",1.0,4.0,0.24066805839538574,1.8173859119415283,0.5659711095277671,93.0,562.0
B,L,"[4, 1]",1.0,5.0,0.223236083984375,1.7712879180908203,0.5373629937949196,93.0,563.0
R,U,"[3, 1]",1.0,6.0,0.22866010665893555,1.529252052307129,0.3002381702965379,93.0,564.0
,,"(3, 3)",,,,,,93.0,
G,D,"[4, 3]",1.0,1.0,0.5174620151519775,2.572904109954834,0.5562570701902513,,565.0
G,D,"[5, 3]",1.0,2.0,0.41655683517456055,2.0170199871063232,0.6065600160693269,94.0,566.0
B,L,"[5, 2]",1.0,3.0,0.23318099975585938,1.8757879734039307,0.6323154602454739,94.0,567.0
R,U,"[4, 2]",1.0,4.0,0.30675196647644043,1.7517619132995605,0.434340593738699,94.0,568.0
B,L,"[4, 1]",1.0,5.0,0.5376348495483398,2.132556915283203,0.5837489937456893,94.0,569.0
R,U,"[3, 1]",1.0,6.0,0.5376930236816406,1.9353201389312744,0.3856351222701125,94.0,570.0
,,"(3, 3)",,,,,,94.0,
G,D,"[4, 3]",1.0,1.0,0.45616984367370605,3.61388897895813,0.33321966117865626,,571.0
G,D,"[5, 3]",1.0,2.0,0.6087338924407959,1.9806559085845947,0.3636152708836747,95.0,572.0
B,L,"[5, 2]",1.0,3.0,0.4375910758972168,2.1189589500427246,0.6656367384763153,95.0,573.0
R,U,"[4, 2]",1.0,4.0,0.48879313468933105,1.7856078147888184,0.2849209998658243,95.0,574.0
B,L,"[4, 1]",1.0,5.0,0.6385130882263184,2.003499984741211,0.35517151563656724,95.0,575.0
R,U,"[3, 1]",1.0,6.0,0.5625779628753662,2.1244990825653076,0.5627594848831489,95.0,576.0
,,"(3, 3)",,,,,,95.0,
G,D,"[4, 3]",1.0,1.0,0.8041892051696777,3.7277719974517822,0.39106710250657506,,577.0
G,D,"[5, 3]",1.0,2.0,0.5567638874053955,2.305307149887085,0.7459297798629001,96.0,578.0
B,L,"[5, 2]",1.0,3.0,0.3582758903503418,1.8484289646148682,0.4782355987839099,96.0,579.0
R,U,"[4, 2]",1.0,4.0,0.4169440269470215,1.9284942150115967,0.5229657217616692,96.0,580.0
B,L,"[4, 1]",1.0,5.0,0.3248438835144043,1.7362060546875,0.4093097708343126,96.0,581.0
R,U,"[3, 1]",1.0,6.0,0.32737183570861816,1.6144559383392334,0.29066411305934375,96.0,582.0
,,"(3, 3)",,,,,,96.0,
G,D,"[4, 3]",1.0,1.0,0.34015583992004395,3.8671720027923584,0.5412404904602377,,583.0
G,D,"[5, 3]",1.0,2.0,0.6762609481811523,1.9850540161132812,0.30981692569204977,97.0,584.0
B,L,"[5, 2]",1.0,3.0,0.7370061874389648,2.000203847885132,0.2600608728990113,97.0,585.0
R,U,"[4, 2]",1.0,4.0,0.576077938079834,1.8531761169433594,0.2799777970194851,97.0,586.0
B,L,"[4, 1]",1.0,5.0,0.585374116897583,2.2056820392608643,0.6017361647233201,97.0,587.0
R,U,"[3, 1]",1.0,6.0,0.2626798152923584,1.9897048473358154,0.7249243691068934,97.0,588.0
,,"(3, 3)",,,,,,97.0,
G,D,"[4, 3]",1.0,1.0,0.4104290008544922,3.37461519241333,0.33308005117397027,,589.0
G,D,"[5, 3]",1.0,2.0,0.5289609432220459,1.790820837020874,0.2573162786622103,98.0,590.0
B,L,"[5, 2]",1.0,3.0,0.38684606552124023,2.103040933609009,0.7099469285453703,98.0,591.0
R,U,"[4, 2]",1.0,4.0,0.26378893852233887,1.7492780685424805,0.49278135806703194,98.0,592.0
B,L,"[4, 1]",1.0,5.0,0.42284393310546875,1.6974902153015137,0.2738377147541593,98.0,593.0
R,U,"[3, 1]",1.0,6.0,0.43380093574523926,1.9991979598999023,0.5560844004949246,98.0,594.0
,,"(3, 3)",,,,,,98.0,
G,D,"[4, 3]",1.0,1.0,0.33901095390319824,3.7353339195251465,0.35872157450405173,,595.0
B,L,"[4, 2]",1.0,2.0,0.6498181819915771,2.0207741260528564,0.3792486108867988,99.0,596.0
R,U,"[3, 2]",-1.0,1.0,0.7615909576416016,2.485646963119507,0.7311374855067984,99.0,597.0
B,L,"[3, 1]",1.0,2.0,0.21740484237670898,1.8096129894256592,0.5742668288201305,99.0,598.0
G,D,"[4, 1]",1.0,3.0,0.5322659015655518,2.165513038635254,0.6398867868465468,99.0,599.0
B,L,"[4, 0]",0.0,3.0,0.5177061557769775,2.21744704246521,0.6907564671995889,99.0,600.0
,,"(3, 3)",,,,,,99.0,
G,D,"[4, 3]",1.0,1.0,0.40322303771972656,5.066926956176758,0.6242851343627394,,601.0
G,D,"[5, 3]",1.0,2.0,0.2647979259490967,1.8488759994506836,0.5900705355590896,100.0,602.0
B,L,"[5, 2]",1.0,3.0,0.26769185066223145,1.5427570343017578,0.26650709683127044,100.0,603.0
Y,R,"[5, 3]",1.0,4.0,0.3458249568939209,1.8659100532531738,0.5153892355495596,100.0,604.0
G,D,"[6, 3]",0.0,4.0,0.4391050338745117,1.7708351612091064,0.3197410334741073,100.0,605.0
G,D,"[6, 3]",0.0,4.0,0.4835548400878906,2.208488941192627,0.7279518115833847,100.0,606.0
,,"(3, 3)",,,,,,100.0,
G,D,"[4, 3]",1.0,1.0,0.514085054397583,3.4500229358673096,0.39498451715921284,,607.0
G,D,"[5, 3]",1.0,2.0,0.2697458267211914,1.6255850791931152,0.35388477736781804,101.0,608.0
B,L,"[5, 2]",1.0,3.0,0.41141796112060547,1.9295639991760254,0.516678600811638,101.0,609.0
Y,R,"[5, 3]",1.0,4.0,0.3411431312561035,2.075049877166748,0.7248593508448553,101.0,610.0
Y,R,"[5, 4]",-1.0,3.0,0.22670507431030273,1.8596820831298828,0.6348890856774747,101.0,611.0
Y,R,"[5, 5]",-1.0,2.0,0.6229870319366455,2.3815829753875732,0.7497689872009492,101.0,612.0
,,"(3, 3)",,,,,,101.0,
G,D,"[4, 3]",1.0,1.0,0.38367199897766113,2.570833921432495,0.37106370435411434,,613.0
G,D,"[5, 3]",1.0,2.0,0.5612928867340088,2.1132748126983643,0.5506895871178279,102.0,614.0
B,L,"[5, 2]",1.0,3.0,0.3365969657897949,2.0966908931732178,0.7472370968079195,102.0,615.0
G,D,"[6, 2]",0.0,3.0,0.2765920162200928,1.677644968032837,0.39207232554165244,102.0,616.0
B,L,"[6, 1]",0.0,3.0,0.6469459533691406,1.947045087814331,0.30571790254664216,102.0,617.0
R,U,"[5, 1]",-1.0,2.0,0.5150699615478516,2.186034917831421,0.6748701896262442,102.0,618.0
,,"(3, 3)",,,,,,102.0,
G,D,"[4, 3]",1.0,1.0,0.5418479442596436,2.969827890396118,0.5281799851328459,,619.0
G,D,"[5, 3]",1.0,2.0,0.22621607780456543,1.57309889793396,0.3514303413554441,103.0,620.0
B,L,"[5, 2]",1.0,3.0,0.4439680576324463,1.732802152633667,0.28432079297045826,103.0,621.0
Y,R,"[5, 3]",1.0,4.0,0.3819608688354492,2.1308209896087646,0.7482002537696995,103.0,622.0
R,U,"[4, 3]",1.0,5.0,0.4645960330963135,2.1470730304718018,0.6789125761038352,103.0,623.0
G,D,"[5, 3]",1.0,6.0,0.41614294052124023,1.70517897605896,0.30083924062351947,103.0,624.0
,,"(3, 3)",,,,,,103.0,
G,D,"[4, 3]",1.0,1.0,0.33795595169067383,3.1248860359191895,0.6253392493614864,,625.0
G,D,"[5, 3]",1.0,2.0,0.2491471767425537,1.5498111248016357,0.27558837786748464,104.0,626.0
B,L,"[5, 2]",1.0,3.0,0.48703479766845703,2.1388750076293945,0.6473810783697775,104.0,627.0
Y,R,"[5, 3]",1.0,4.0,0.2665598392486572,1.8788502216339111,0.5932466370548934,104.0,628.0
R,U,"[4, 3]",1.0,5.0,0.16146302223205566,1.7916228771209717,0.6347231134567632,104.0,629.0
G,D,"[5, 3]",1.0,6.0,0.23653697967529297,1.8575129508972168,0.6089734217094983,104.0,630.0
,,"(3, 3)",,,,,,104.0,
G,D,"[4, 3]",1.0,1.0,0.48609113693237305,2.934392213821411,0.643364069224162,,631.0
G,D,"[5, 3]",1.0,2.0,0.18723297119140625,1.7143478393554688,0.5244759723897223,105.0,632.0
B,L,"[5, 2]",1.0,3.0,0.2776188850402832,1.6710288524627686,0.39573725052836,105.0,633.0
Y,R,"[5, 3]",1.0,4.0,0.30416202545166016,1.7268049716949463,0.4225029285390193,105.0,634.0
R,U,"[4, 3]",1.0,5.0,0.37115907669067383,2.0659639835357666,0.6883301129029593,105.0,635.0
G,D,"[5, 3]",1.0,6.0,0.24146294593811035,1.9294660091400146,0.6842677388573042,105.0,636.0
,,"(3, 3)",,,,,,105.0,
G,D,"[4, 3]",1.0,1.0,0.7785069942474365,2.8525431156158447,0.37049909339451276,,637.0
G,D,"[5, 3]",1.0,2.0,0.2731180191040039,1.8026480674743652,0.5231393627899742,106.0,638.0
B,L,"[5, 2]",1.0,3.0,0.34036803245544434,1.9800570011138916,0.6363029392798183,106.0,639.0
Y,R,"[5, 3]",1.0,4.0,0.2361738681793213,1.9717390537261963,0.72482791906298,106.0,640.0
R,U,"[4, 3]",1.0,5.0,0.15633702278137207,1.8324100971221924,0.6738927682176463,106.0,641.0
G,D,"[5, 3]",1.0,6.0,0.4000661373138428,1.9578239917755127,0.5486950046947172,106.0,642.0
,,"(3, 3)",,,,,,106.0,
G,D,"[4, 3]",1.0,1.0,0.5233409404754639,3.1067349910736084,0.7052477104989057,,643.0
G,D,"[5, 3]",1.0,2.0,0.27402615547180176,1.570943832397461,0.29319938426092534,107.0,644.0
B,L,"[5, 2]",1.0,3.0,0.4878828525543213,2.1856558322906494,0.7120261090559403,107.0,645.0
Y,R,"[5, 3]",1.0,4.0,0.3936631679534912,1.885119915008545,0.4973138323854952,107.0,646.0
R,U,"[4, 3]",1.0,5.0,0.4158780574798584,2.116448163986206,0.6968943903177496,107.0,647.0
G,D,"[5, 3]",1.0,6.0,0.2793138027191162,2.0292139053344727,0.7424914484714159,107.0,648.0
,,"(3, 3)",,,,,,107.0,
G,D,"[4, 3]",1.0,1.0,0.3668031692504883,3.62742018699646,0.7366800050088842,,649.0
G,D,"[5, 3]",1.0,2.0,0.23335790634155273,1.5966088771820068,0.33377580268770657,108.0,650.0
B,L,"[5, 2]",1.0,3.0,0.5664699077606201,2.315002918243408,0.7317763001555175,108.0,651.0
Y,R,"[5, 3]",1.0,4.0,0.3897099494934082,1.8514039516448975,0.45006766563989264,108.0,652.0
R,U,"[4, 3]",1.0,5.0,0.37078189849853516,2.062739133834839,0.6793927340346221,108.0,653.0
G,D,"[5, 3]",1.0,6.0,0.31119203567504883,1.663059949874878,0.34273106792142644,108.0,654.0
,,"(3, 3)",,,,,,108.0,
G,D,"[4, 3]",1.0,1.0,0.36097192764282227,2.9659228324890137,0.6086664083179804,,655.0
G,D,"[5, 3]",1.0,2.0,0.2737247943878174,1.5256750583648682,0.2513380452031522,109.0,656.0
B,L,"[5, 2]",1.0,3.0,0.4804370403289795,1.9953229427337646,0.5128901921954641,109.0,657.0
Y,R,"[5, 3]",1.0,4.0,0.13043904304504395,1.7859289646148682,0.6487232209897531,109.0,658.0
R,U,"[4, 3]",1.0,5.0,0.3501920700073242,1.8524219989776611,0.48458948402118235,109.0,659.0
G,D,"[5, 3]",1.0,6.0,0.3622450828552246,1.774914026260376,0.4097636222059825,109.0,660.0
,,"(3, 3)",,,,,,109.0,
G,D,"[4, 3]",1.0,1.0,0.3284890651702881,2.7820849418640137,0.3920317521535601,,661.0
G,D,"[5, 3]",1.0,2.0,0.4343900680541992,2.1431329250335693,0.7013835104155415,110.0,662.0
B,L,"[5, 2]",1.0,3.0,0.3284440040588379,1.899493932723999,0.5676706930876474,110.0,663.0
Y,R,"[5, 3]",1.0,4.0,0.34870100021362305,1.6593499183654785,0.29392721452591586,110.0,664.0
R,U,"[4, 3]",1.0,5.0,0.42160820960998535,1.8788881301879883,0.456049318799974,110.0,665.0
G,D,"[5, 3]",1.0,6.0,0.2803678512573242,1.7608249187469482,0.4836014880391753,110.0,666.0
,,"(3, 3)",,,,,,110.0,
G,D,"[4, 3]",1.0,1.0,0.22657299041748047,2.945422887802124,0.4291466852728987,,667.0
G,D,"[5, 3]",1.0,2.0,0.2654139995574951,1.6334691047668457,0.3793204123342979,111.0,668.0
B,L,"[5, 2]",1.0,3.0,0.6537060737609863,2.0213160514831543,0.35068000679522615,111.0,669.0
Y,R,"[5, 3]",1.0,4.0,0.4541630744934082,2.0285630226135254,0.5790310124700515,111.0,670.0
R,U,"[4, 3]",1.0,5.0,0.4147820472717285,1.9605579376220703,0.5395431844439781,111.0,671.0
G,D,"[5, 3]",1.0,6.0,0.517874002456665,2.038120985031128,0.5111118361973752,111.0,672.0
,,"(3, 3)",,,,,,111.0,
G,D,"[4, 3]",1.0,1.0,0.3606991767883301,3.4404618740081787,0.40190602582131996,,673.0
G,D,"[5, 3]",1.0,2.0,0.2555689811706543,1.9218738079071045,0.6568539171850145,112.0,674.0
B,L,"[5, 2]",1.0,3.0,0.31894803047180176,1.6984739303588867,0.3723310493976947,112.0,675.0
Y,R,"[5, 3]",1.0,4.0,0.46305418014526367,2.038357973098755,0.5771366642078961,112.0,676.0
R,U,"[4, 3]",1.0,5.0,0.30890703201293945,1.8776259422302246,0.5715271572170643,112.0,677.0
G,D,"[5, 3]",1.0,6.0,0.2866840362548828,1.9851391315460205,0.689905556494798,112.0,678.0
,,"(3, 3)",,,,,,112.0,
G,D,"[4, 3]",1.0,1.0,0.3636460304260254,3.2139580249786377,0.7204808493884028,,679.0
G,D,"[5, 3]",1.0,2.0,0.2427818775177002,1.5405771732330322,0.29498197897295975,113.0,680.0
B,L,"[5, 2]",1.0,3.0,0.3743929862976074,1.7353479862213135,0.3637754372716886,113.0,681.0
Y,R,"[5, 3]",1.0,4.0,0.30048108100891113,2.030567169189453,0.7104058192598225,113.0,682.0
R,U,"[4, 3]",1.0,5.0,0.2720310688018799,1.6084539890289307,0.33599417854142316,113.0,683.0
G,D,"[5, 3]",1.0,6.0,0.2852649688720703,1.8767800331115723,0.5791241418750033,113.0,684.0
,,"(3, 3)",,,,,,113.0,
G,D,"[4, 3]",-2.0,0.0,1.0006611347198486,5.096210956573486,0.2592914249021772,,685.0
G,D,"[5, 3]",1.0,1.0,0.722883939743042,2.3882391452789307,0.6638815154331984,114.0,686.0
B,L,"[5, 2]",1.0,2.0,0.26970911026000977,1.6826238632202148,0.39679198398700166,114.0,687.0
Y,R,"[5, 3]",1.0,3.0,0.27375102043151855,1.6248979568481445,0.338338871629406,114.0,688.0
R,U,"[4, 3]",1.0,4.0,0.27414608001708984,1.8241119384765625,0.5455882724607304,114.0,689.0
G,D,"[5, 3]",1.0,5.0,0.20262694358825684,1.906592845916748,0.7021355031817222,114.0,690.0
,,"(3, 3)",,,,,,114.0,
G,D,"[4, 3]",1.0,1.0,0.34849119186401367,2.493210792541504,0.5286911542148449,,691.0
G,D,"[5, 3]",1.0,2.0,0.34880590438842773,1.861299991607666,0.5236028170877374,115.0,692.0
B,L,"[5, 2]",1.0,3.0,0.30806899070739746,1.6965479850769043,0.38692399139125006,115.0,693.0
Y,R,"[5, 3]",1.0,4.0,0.22501587867736816,1.627112865447998,0.3974515570672569,115.0,694.0
R,U,"[4, 3]",1.0,5.0,0.3407101631164551,1.9432239532470703,0.5904783849731943,115.0,695.0
G,D,"[5, 3]",1.0,6.0,0.24966788291931152,1.6631150245666504,0.4036998664961112,115.0,696.0
,,"(3, 3)",,,,,,115.0,
G,D,"[4, 3]",1.0,1.0,0.3378720283508301,2.9591991901397705,0.6791779761759056,,697.0
G,D,"[5, 3]",1.0,2.0,0.22837305068969727,1.8388128280639648,0.6014008537062279,116.0,698.0
B,L,"[5, 2]",1.0,3.0,0.29087090492248535,2.0133159160614014,0.7148825852335845,116.0,699.0
Y,R,"[5, 3]",1.0,4.0,0.24834513664245605,1.9690680503845215,0.7172488659952626,116.0,700.0
R,U,"[4, 3]",1.0,5.0,0.27475905418395996,1.5845630168914795,0.30221956338383793,116.0,701.0
G,D,"[5, 3]",1.0,6.0,0.31463193893432617,1.5671358108520508,0.25284836345954004,116.0,702.0
,,"(3, 3)",,,,,,116.0,
G,D,"[4, 3]",1.0,1.0,0.26868104934692383,4.781591892242432,0.4840540236965593,,703.0
G,D,"[5, 3]",1.0,2.0,0.1848890781402588,1.480578899383545,0.2816008879422964,117.0,704.0
B,L,"[5, 2]",1.0,3.0,0.6194391250610352,2.100162982940674,0.46496138494853173,117.0,705.0
Y,R,"[5, 3]",1.0,4.0,0.45149707794189453,1.9050610065460205,0.43669742296608477,117.0,706.0
R,U,"[4, 3]",1.0,5.0,0.3245210647583008,1.9702739715576172,0.6401944098798181,117.0,707.0
G,D,"[5, 3]",1.0,6.0,0.16694116592407227,1.8826849460601807,0.7061563479601491,117.0,708.0
,,"(3, 3)",,,,,,117.0,
G,D,"[4, 3]",1.0,1.0,0.3249330520629883,2.3856430053710938,0.45877683977746736,,709.0
G,D,"[5, 3]",1.0,2.0,0.5526349544525146,2.1301631927490234,0.5721527197654945,118.0,710.0
B,L,"[5, 2]",1.0,3.0,0.37431907653808594,1.6635401248931885,0.2860186709893359,118.0,711.0
Y,R,"[5, 3]",1.0,4.0,0.3995838165283203,1.9642298221588135,0.5666221397102224,118.0,712.0
R,U,"[4, 3]",1.0,5.0,0.26990294456481934,1.9387180805206299,0.6552613945512509,118.0,713.0
G,D,"[5, 3]",1.0,6.0,0.3428049087524414,1.7955050468444824,0.4509652796622685,118.0,714.0
,,"(3, 3)",,,,,,118.0,
G,D,"[4, 3]",1.0,1.0,0.2913668155670166,2.5970571041107178,0.44815265435682056,,715.0
G,D,"[5, 3]",1.0,2.0,0.5109899044036865,1.8085319995880127,0.2903766383012195,119.0,716.0
B,L,"[5, 2]",1.0,3.0,0.3880298137664795,2.0931711196899414,0.6998348244313326,119.0,717.0
Y,R,"[5, 3]",1.0,4.0,0.4640040397644043,1.8364899158477783,0.3699995465421486,119.0,718.0
R,U,"[4, 3]",1.0,5.0,0.3079841136932373,2.01700496673584,0.7033227674444991,119.0,719.0
G,D,"[5, 3]",1.0,6.0,0.5103139877319336,1.775696039199829,0.2628376405788869,119.0,720.0
,,"(3, 3)",,,,,,119.0,
G,D,"[4, 3]",1.0,1.0,0.3557460308074951,2.6910271644592285,0.3203021949453214,,721.0
G,D,"[5, 3]",1.0,2.0,0.584679126739502,1.982914924621582,0.4033381892280075,120.0,722.0
B,L,"[5, 2]",1.0,3.0,0.25742006301879883,2.0053939819335938,0.7418415232481714,120.0,723.0
Y,R,"[5, 3]",1.0,4.0,0.1508471965789795,1.6667649745941162,0.5087897436822133,120.0,724.0
R,U,"[4, 3]",1.0,5.0,0.40175390243530273,2.0484020709991455,0.640275948612727,120.0,725.0
G,D,"[5, 3]",1.0,6.0,0.2608611583709717,1.8331031799316406,0.5734865626074597,120.0,726.0
,,"(3, 3)",,,,,,120.0,
G,D,"[4, 3]",1.0,1.0,0.2952849864959717,2.5018320083618164,0.392298659217877,,727.0
G,D,"[5, 3]",1.0,2.0,0.2987070083618164,1.7541069984436035,0.4629004216141849,121.0,728.0
B,L,"[5, 2]",1.0,3.0,0.4000210762023926,2.054935932159424,0.6344212406715467,121.0,729.0
Y,R,"[5, 3]",1.0,4.0,0.2451610565185547,1.643568992614746,0.39509979017259733,121.0,730.0
R,U,"[4, 3]",1.0,5.0,0.2928779125213623,1.7958447933197021,0.5074974649448202,121.0,731.0
G,D,"[5, 3]",1.0,6.0,0.3438839912414551,2.0773839950561523,0.734685740563846,121.0,732.0
,,"(3, 3)",,,,,,121.0,
G,D,"[4, 3]",1.0,1.0,0.4078178405761719,2.219249963760376,0.32092984947748204,,733.0
G,D,"[5, 3]",1.0,2.0,0.26997995376586914,1.554358959197998,0.2754006179548994,122.0,734.0
B,L,"[5, 2]",1.0,3.0,0.5550470352172852,1.9126100540161133,0.35468774319388124,122.0,735.0
Y,R,"[5, 3]",1.0,4.0,0.44742703437805176,2.0360748767852783,0.5903409465466157,122.0,736.0
R,U,"[4, 3]",1.0,5.0,0.38915491104125977,1.7982540130615234,0.4055653552009025,122.0,737.0
G,D,"[5, 3]",1.0,6.0,0.5925209522247314,1.8768949508666992,0.28261287334848595,122.0,738.0
,,"(3, 3)",,,,,,122.0,
G,D,"[4, 3]",1.0,1.0,0.3310108184814453,2.9894049167633057,0.6882348491479584,,739.0
G,D,"[5, 3]",1.0,2.0,0.20586204528808594,1.8359949588775635,0.6244537096669076,123.0,740.0
B,L,"[5, 2]",1.0,3.0,0.34845614433288574,1.79787015914917,0.4557365480634106,123.0,741.0
Y,R,"[5, 3]",1.0,4.0,0.41961002349853516,2.06618595123291,0.6386176346527012,123.0,742.0
R,U,"[4, 3]",1.0,5.0,0.27286696434020996,1.6736559867858887,0.3956989957560084,123.0,743.0
G,D,"[5, 3]",1.0,6.0,0.9913010597229004,2.7057321071624756,0.7177962441730712,123.0,744.0
,,"(3, 3)",,,,,,123.0,
G,D,"[4, 3]",1.0,1.0,0.3494551181793213,2.903625011444092,0.70485540509806,,745.0
G,D,"[5, 3]",1.0,2.0,0.15894603729248047,1.7965590953826904,0.6347932622892879,124.0,746.0
B,L,"[5, 2]",1.0,3.0,0.31485700607299805,1.9548799991607666,0.6397897041143725,124.0,747.0
Y,R,"[5, 3]",1.0,4.0,0.3369450569152832,1.6799249649047852,0.3368108922257391,124.0,748.0
R,U,"[4, 3]",1.0,5.0,0.4452359676361084,2.1915829181671143,0.7446322402898737,124.0,749.0
G,D,"[5, 3]",1.0,6.0,0.26238393783569336,1.9061520099639893,0.6510114819675863,124.0,750.0
,,"(3, 3)",,,,,,124.0,
G,D,"[4, 3]",1.0,1.0,0.2632157802581787,3.061311960220337,0.27941178748728307,,751.0
G,D,"[5, 3]",1.0,2.0,0.24782490730285645,1.848095178604126,0.6104300726254402,125.0,752.0
B,L,"[5, 2]",1.0,3.0,0.3459510803222656,1.8394930362701416,0.5000462156651476,125.0,753.0
Y,R,"[5, 3]",1.0,4.0,0.3290090560913086,1.931135892868042,0.597680751883119,125.0,754.0
R,U,"[4, 3]",1.0,5.0,0.2107229232788086,1.4884450435638428,0.26997160525324676,125.0,755.0
G,D,"[5, 3]",1.0,6.0,0.3217508792877197,1.8853669166564941,0.554861143505198,125.0,756.0
,,"(3, 3)",,,,,,125.0,
G,D,"[4, 3]",1.0,1.0,0.25182199478149414,3.685328960418701,0.37396346141762454,,757.0
G,D,"[5, 3]",1.0,2.0,0.27398014068603516,1.6218910217285156,0.3458718459414732,126.0,758.0
B,L,"[5, 2]",1.0,3.0,0.5056018829345703,2.062203884124756,0.5577398441139154,126.0,759.0
Y,R,"[5, 3]",1.0,4.0,0.3136899471282959,1.7999560832977295,0.49134936734840506,126.0,760.0
R,U,"[4, 3]",1.0,5.0,0.3538818359375,1.7815399169921875,0.42300543203859586,126.0,761.0
G,D,"[5, 3]",1.0,6.0,0.40061402320861816,2.1239240169525146,0.7133972180145326,126.0,762.0
,,"(3, 3)",,,,,,126.0,
G,D,"[4, 3]",1.0,1.0,0.2892611026763916,2.993378162384033,0.5235297206961567,,763.0
G,D,"[5, 3]",1.0,2.0,0.24115514755249023,1.7567439079284668,0.5134938558027285,127.0,764.0
B,L,"[5, 2]",1.0,3.0,0.3514130115509033,2.0760679244995117,0.706112315730876,127.0,765.0
Y,R,"[5, 3]",1.0,4.0,0.24505090713500977,1.4935669898986816,0.2503481191130382,127.0,766.0
R,U,"[4, 3]",1.0,5.0,0.4360530376434326,1.7775330543518066,0.3278185795114635,127.0,767.0
G,D,"[5, 3]",1.0,6.0,0.684290885925293,2.0006649494171143,0.31168266994208393,127.0,768.0
,,"(3, 3)",,,,,,127.0,
G,D,"[4, 3]",1.0,1.0,0.2650749683380127,3.031207799911499,0.49305064380291197,,769.0
G,D,"[5, 3]",1.0,2.0,0.5241310596466064,1.9321849346160889,0.4085776471861199,128.0,770.0
B,L,"[5, 2]",1.0,3.0,0.46134495735168457,2.1614110469818115,0.7030830987013567,128.0,771.0
Y,R,"[5, 3]",1.0,4.0,0.31630587577819824,1.6926119327545166,0.3628043713627558,128.0,772.0
R,U,"[4, 3]",1.0,5.0,0.4730989933013916,1.8871190547943115,0.41654203448897853,128.0,773.0
G,D,"[5, 3]",1.0,6.0,0.7210619449615479,2.0748860836029053,0.34136321371636036,128.0,774.0
,,"(3, 3)",,,,,,128.0,
G,D,"[4, 3]",1.0,1.0,0.6023828983306885,3.3270039558410645,0.6347926130738886,,775.0
G,D,"[5, 3]",1.0,2.0,0.3261888027191162,1.7518670558929443,0.4202508007374672,129.0,776.0
B,L,"[5, 2]",1.0,3.0,0.5034620761871338,1.9613749980926514,0.4649002642071917,129.0,777.0
Y,R,"[5, 3]",1.0,4.0,0.5897159576416016,1.9600019454956055,0.3584712374922703,129.0,778.0
R,U,"[4, 3]",1.0,5.0,0.6117620468139648,2.3534858226776123,0.7449224518645001,129.0,779.0
G,D,"[5, 3]",1.0,6.0,0.5637938976287842,2.2792809009552,0.7243068469086573,129.0,780.0
,,"(3, 3)",,,,,,129.0,
G,D,"[4, 3]",1.0,1.0,0.3383219242095947,3.3120009899139404,0.6699207210023592,,781.0
G,D,"[5, 3]",1.0,2.0,0.30502986907958984,1.7901978492736816,0.4766893684215494,130.0,782.0
B,L,"[5, 2]",1.0,3.0,0.3449559211730957,1.8464078903198242,0.50637099775385,130.0,783.0
Y,R,"[5, 3]",1.0,4.0,0.3867928981781006,2.135438919067383,0.7416409743975887,130.0,784.0
R,U,"[4, 3]",1.0,5.0,0.30390095710754395,1.8511919975280762,0.5431092739282921,130.0,785.0
G,D,"[5, 3]",1.0,6.0,0.30588603019714355,1.7227280139923096,0.41596474594384547,130.0,786.0
,,"(3, 3)",,,,,,130.0,
G,D,"[4, 3]",1.0,1.0,0.2991220951080322,2.6240408420562744,0.7230707287100999,,787.0
G,D,"[5, 3]",1.0,2.0,0.24209117889404297,1.6153969764709473,0.3723909173132684,131.0,788.0
B,L,"[5, 2]",1.0,3.0,0.44112110137939453,2.1406209468841553,0.6957721490374689,131.0,789.0
Y,R,"[5, 3]",1.0,4.0,0.24321985244750977,1.6383028030395508,0.38448710935494707,131.0,790.0
R,U,"[4, 3]",1.0,5.0,0.46493005752563477,1.7492358684539795,0.283817076735712,131.0,791.0
G,D,"[5, 3]",1.0,6.0,0.5999898910522461,2.0620951652526855,0.4457736986974659,131.0,792.0
,,"(3, 3)",,,,,,131.0,
G,D,"[4, 3]",1.0,1.0,0.2508280277252197,2.5888819694519043,0.3184099034646655,,793.0
G,D,"[5, 3]",1.0,2.0,0.6802010536193848,2.0609869956970215,0.3794522943401098,132.0,794.0
B,L,"[5, 2]",1.0,3.0,0.5732331275939941,2.182136058807373,0.6113050675761413,132.0,795.0
Y,R,"[5, 3]",1.0,4.0,0.39916515350341797,1.7934980392456055,0.4049234096633569,132.0,796.0
R,U,"[4, 3]",1.0,5.0,0.46008801460266113,1.7739880084991455,0.3122907654199408,132.0,797.0
G,D,"[5, 3]",1.0,6.0,0.33033108711242676,1.9840080738067627,0.662555295839635,132.0,798.0
,,"(3, 3)",,,,,,132.0,
G,D,"[4, 3]",1.0,1.0,0.24715495109558105,2.6127188205718994,0.35898545839004886,,799.0
G,D,"[5, 3]",1.0,2.0,0.24760913848876953,1.6615700721740723,0.4207886676447008,133.0,800.0
B,L,"[5, 2]",1.0,3.0,0.14402484893798828,1.588789939880371,0.44263221405175496,133.0,801.0
Y,R,"[5, 3]",1.0,4.0,0.276716947555542,1.7482969760894775,0.474209296592587,133.0,802.0
R,U,"[4, 3]",1.0,5.0,0.22635984420776367,1.6148688793182373,0.3893316246881808,133.0,803.0
G,D,"[5, 3]",1.0,6.0,0.25067901611328125,1.8660697937011719,0.6050660710745741,133.0,804.0
,,"(3, 3)",,,,,,133.0,
G,D,"[4, 3]",-1.0,-1.0,0.19675111770629883,3.293752908706665,0.6990846651550148,,805.0
G,D,"[5, 3]",-1.0,-2.0,0.3406219482421875,1.9546289443969727,0.6036150271984686,134.0,806.0
B,L,"[5, 2]",-1.0,-3.0,0.24273419380187988,1.7013568878173828,0.4551028286561668,134.0,807.0
Y,R,"[5, 3]",-1.0,-4.0,0.6220657825469971,2.093463897705078,0.4651420353945439,134.0,808.0
R,U,"[4, 3]",-1.0,-5.0,0.27283596992492676,1.5370128154754639,0.25250878270756005,134.0,809.0
G,D,"[5, 3]",-1.0,-6.0,0.8975441455841064,2.4886460304260254,0.5907811715430591,134.0,810.0
,,"(3, 3)",,,,,,134.0,
B,L,"[3, 2]",-1.0,-1.0,0.5651309490203857,3.674923896789551,0.5328183854165098,,811.0
B,L,"[3, 1]",1.0,0.0,0.23903799057006836,1.6094179153442383,0.35901330083313315,135.0,812.0
Y,R,"[3, 2]",-1.0,-1.0,0.441087007522583,1.739408016204834,0.2984662895486589,135.0,813.0
Y,R,"[3, 3]",-2.0,-3.0,0.4093959331512451,1.826192855834961,0.40797626017671,135.0,814.0
R,U,"[2, 3]",1.0,-2.0,0.20072507858276367,1.7350759506225586,0.5261583035292171,135.0,815.0
R,U,"[1, 3]",-2.0,-2.0,1.3461899757385254,2.8838281631469727,0.5099894148235535,135.0,816.0
,,"(3, 3)",,,,,,135.0,
B,L,"[3, 2]",-1.0,-1.0,0.9114260673522949,5.474407911300659,0.38480345918259135,,817.0
B,L,"[3, 1]",1.0,0.0,0.27281689643859863,1.7354111671447754,0.4532852431620785,136.0,818.0
G,D,"[4, 1]",-1.0,-1.0,0.24759602546691895,1.6561851501464844,0.39277180527802197,136.0,819.0
R,U,"[3, 1]",1.0,0.0,0.4568450450897217,1.7848420143127441,0.3279058438778186,136.0,820.0
R,U,"[2, 1]",1.0,1.0,0.3884561061859131,1.6526269912719727,0.26409374795325874,136.0,821.0
R,U,"[1, 1]",1.0,2.0,0.9621090888977051,2.4071829319000244,0.4377912960299534,136.0,822.0
,,"(3, 3)",,,,,,136.0,
R,U,"[2, 3]",1.0,1.0,0.3718559741973877,5.67229700088501,0.5601218861910844,,823.0
B,L,"[2, 2]",1.0,2.0,0.23140501976013184,1.6107020378112793,0.3876520593803816,137.0,824.0
R,U,"[1, 2]",1.0,3.0,0.323742151260376,1.945622205734253,0.6162702683361587,137.0,825.0
R,U,"[0, 2]",0.0,3.0,0.2428569793701172,1.7571139335632324,0.5068454538172229,137.0,826.0
R,U,"[0, 2]",0.0,3.0,0.28408002853393555,1.7765510082244873,0.5001076935633912,137.0,827.0
R,U,"[0, 2]",0.0,3.0,0.25293684005737305,1.6734449863433838,0.4236204063465952,137.0,828.0
,,"(3, 3)",,,,,,137.0,
R,U,"[2, 3]",1.0,1.0,0.41377902030944824,2.9219000339508057,0.2790092858063898,,829.0
B,L,"[2, 2]",1.0,2.0,0.2883319854736328,1.636070966720581,0.34843338743384306,138.0,830.0
R,U,"[1, 2]",1.0,3.0,0.3532679080963135,1.9545021057128906,0.5859449749710203,138.0,831.0
B,L,"[1, 1]",1.0,4.0,0.28499794006347656,1.9587600231170654,0.6613334868536951,138.0,832.0
R,U,"[0, 1]",0.0,4.0,0.2389538288116455,1.7856149673461914,0.5471763425405215,138.0,833.0
B,L,"[0, 0]",0.0,4.0,0.2359619140625,1.913512945175171,0.6771677542974814,138.0,834.0
,,"(3, 3)",,,,,,138.0,
R,U,"[2, 3]",1.0,1.0,0.44590306282043457,2.7180278301239014,0.42891361482257856,,835.0
B,L,"[2, 2]",1.0,2.0,0.22126007080078125,1.8505020141601562,0.6291959279611663,139.0,836.0
R,U,"[1, 2]",1.0,3.0,0.23144793510437012,1.9096360206604004,0.6722463119989601,139.0,837.0
B,L,"[1, 1]",1.0,4.0,0.232835054397583,1.645599126815796,0.40152520042696427,139.0,838.0
G,D,"[2, 1]",1.0,5.0,0.2297980785369873,1.9003260135650635,0.6682994032648102,139.0,839.0
Y,R,"[2, 2]",1.0,6.0,0.12183809280395508,1.6993720531463623,0.5678747239307981,139.0,840.0
,,"(3, 3)",,,,,,139.0,
R,U,"[2, 3]",1.0,1.0,0.2845280170440674,2.8533451557159424,0.4046122957028457,,841.0
B,L,"[2, 2]",1.0,2.0,0.21587491035461426,1.5298221111297607,0.3178235575317216,140.0,842.0
R,U,"[1, 2]",1.0,3.0,0.2806210517883301,1.5929880142211914,0.31073713146330506,140.0,843.0
B,L,"[1, 1]",1.0,4.0,0.12724995613098145,1.6536591053009033,0.5310764380095416,140.0,844.0
G,D,"[2, 1]",1.0,5.0,0.20805907249450684,1.6954429149627686,0.4765143346160967,140.0,845.0
Y,R,"[2, 2]",1.0,6.0,0.20757102966308594,1.7683749198913574,0.5616726061569701,140.0,846.0
,,"(3, 3)",,,,,,140.0,
R,U,"[2, 3]",1.0,1.0,0.3075101375579834,2.3457369804382324,0.707173898807298,,847.0
B,L,"[2, 2]",1.0,2.0,0.15192198753356934,1.5418648719787598,0.38274608747854505,141.0,848.0
R,U,"[1, 2]",1.0,3.0,0.2879648208618164,1.7539591789245605,0.453350842134743,141.0,849.0
B,L,"[1, 1]",1.0,4.0,0.20299315452575684,1.870016098022461,0.6563482488989263,141.0,850.0
G,D,"[2, 1]",-1.0,4.0,0.08311581611633301,5.585620880126953,0.35906508367136025,141.0,851.0
Y,R,"[2, 2]",1.0,5.0,0.5322389602661133,1.9438300132751465,0.40299124039439477,141.0,852.0
,,"(3, 3)",,,,,,141.0,
R,U,"[2, 3]",1.0,1.0,0.4107530117034912,2.6711549758911133,0.507535359119132,,853.0
B,L,"[2, 2]",1.0,2.0,0.44381284713745117,2.127188205718994,0.6843612485979714,142.0,854.0
R,U,"[1, 2]",1.0,3.0,0.5774428844451904,1.9171819686889648,0.3353995507226985,142.0,855.0
B,L,"[1, 1]",1.0,4.0,0.6277689933776855,2.369990110397339,0.7382431181436858,142.0,856.0
R,U,"[0, 1]",0.0,4.0,0.31434082984924316,1.9803860187530518,0.6521836324739485,142.0,857.0
B,L,"[0, 0]",0.0,4.0,0.4950242042541504,1.7747058868408203,0.2770850582274035,142.0,858.0
,,"(3, 3)",,,,,,142.0,
R,U,"[2, 3]",1.0,1.0,0.32765698432922363,3.528533935546875,0.7385114119123237,,859.0
B,L,"[2, 2]",1.0,2.0,0.42711305618286133,1.9767260551452637,0.5489377126032458,143.0,860.0
R,U,"[1, 2]",1.0,3.0,0.3818659782409668,2.056903123855591,0.6723642600912084,143.0,861.0
B,L,"[1, 1]",1.0,4.0,0.34494996070861816,1.9502201080322266,0.6059455980366866,143.0,862.0
G,D,"[2, 1]",1.0,5.0,0.5089478492736816,2.2001609802246094,0.6893634625555665,143.0,863.0
R,U,"[1, 1]",-1.0,5.0,0.09090089797973633,5.74560809135437,0.5187562237768364,143.0,864.0
,,"(3, 3)",,,,,,143.0,
R,U,"[2, 3]",1.0,1.0,0.36594700813293457,3.0790250301361084,0.3479195227742287,,865.0
B,L,"[2, 2]",1.0,2.0,0.29204893112182617,1.9339518547058105,0.6317605914763949,144.0,866.0
R,U,"[1, 2]",1.0,3.0,0.2459869384765625,1.9029278755187988,0.6513522542299275,144.0,867.0
B,L,"[1, 1]",1.0,4.0,0.2671170234680176,1.6356370449066162,0.3537547802316917,144.0,868.0
G,D,"[2, 1]",1.0,5.0,0.37855100631713867,1.6354968547821045,0.2560650789192489,144.0,869.0
Y,R,"[2, 2]",1.0,6.0,0.3143610954284668,1.9499130249023438,0.6390276533395736,144.0,870.0
,,"(3, 3)",,,,,,144.0,
R,U,"[2, 3]",1.0,1.0,0.32788681983947754,2.5523269176483154,0.6412973444065113,,871.0
B,L,"[2, 2]",1.0,2.0,0.28643107414245605,2.0125269889831543,0.7206478224819761,145.0,872.0
R,U,"[1, 2]",1.0,3.0,0.32886314392089844,1.7940340042114258,0.4648657636179202,145.0,873.0
B,L,"[1, 1]",1.0,4.0,0.9639091491699219,2.7003540992736816,0.7318418604876704,145.0,874.0
G,D,"[2, 1]",-1.0,4.0,0.005134105682373047,5.879987001419067,0.7451362513591323,145.0,875.0
Y,R,"[2, 2]",1.0,5.0,0.2866530418395996,2.0083301067352295,0.7200195312180282,145.0,876.0
,,"(3, 3)",,,,,,145.0,
R,U,"[2, 3]",1.0,1.0,0.32933712005615234,2.897130012512207,0.6173788001639433,,877.0
B,L,"[2, 2]",1.0,2.0,0.4313669204711914,1.714350938796997,0.28230122499508,146.0,878.0
G,D,"[3, 2]",-1.0,1.0,0.509423017501831,2.0694329738616943,0.551252142209103,146.0,879.0
Y,R,"[3, 3]",-2.0,-1.0,0.12497115135192871,1.8762061595916748,0.743997495747013,146.0,880.0
G,D,"[4, 3]",-1.0,-2.0,0.25516581535339355,1.5192649364471436,0.2636839196682703,146.0,881.0
Y,R,"[4, 4]",-1.0,-3.0,0.40989017486572266,1.8202729225158691,0.40049513301293943,146.0,882.0
,,"(3, 3)",,,,,,146.0,
R,U,"[2, 3]",1.0,1.0,0.2686300277709961,2.8681089878082275,0.28545036740304613,,883.0
B,L,"[2, 2]",1.0,2.0,0.45777297019958496,1.719477891921997,0.25500433129768796,147.0,884.0
R,U,"[1, 2]",1.0,3.0,0.7171080112457275,2.452238082885742,0.740190815780288,147.0,885.0
B,L,"[1, 1]",1.0,4.0,0.36812496185302734,1.6896350383758545,0.31373172448677794,147.0,886.0
B,L,"[1, 0]",0.0,4.0,0.3313479423522949,2.0369741916656494,0.7002150624706942,147.0,887.0
B,L,"[1, 0]",0.0,4.0,0.26514697074890137,1.5392251014709473,0.27312804771126137,147.0,888.0
,,"(3, 3)",,,,,,147.0,
R,U,"[2, 3]",1.0,1.0,0.4394969940185547,3.600142002105713,0.7395999576249188,,889.0
B,L,"[2, 2]",1.0,2.0,0.24975299835205078,1.5345571041107178,0.2745620140819938,148.0,890.0
R,U,"[1, 2]",1.0,3.0,0.5184421539306641,1.8589990139007568,0.33376722863114233,148.0,891.0
B,L,"[1, 1]",1.0,4.0,0.44587182998657227,1.8048889636993408,0.3553068992021484,148.0,892.0
R,U,"[0, 1]",0.0,4.0,0.4750089645385742,1.7367660999298096,0.25888773532650755,148.0,893.0
R,U,"[0, 1]",0.0,4.0,0.5687460899353027,2.1316020488739014,0.5733714801893159,148.0,894.0
,,"(3, 3)",,,,,,148.0,
R,U,"[2, 3]",1.0,1.0,0.34314608573913574,2.457869052886963,0.2818470179098513,,895.0
B,L,"[2, 2]",1.0,2.0,0.23514199256896973,1.947066068649292,0.6951582758604213,149.0,896.0
R,U,"[1, 2]",1.0,3.0,0.21384501457214355,1.59023118019104,0.38549363476516113,149.0,897.0
B,L,"[1, 1]",1.0,4.0,0.3128499984741211,1.744696855545044,0.4305633188298057,149.0,898.0
Y,R,"[1, 2]",1.0,5.0,0.27765488624572754,1.71468186378479,0.4282074571545818,149.0,899.0
G,D,"[2, 2]",1.0,6.0,0.2576611042022705,1.9908661842346191,0.7353263555590106,149.0,900.0
,,"(3, 3)",,,,,,149.0,
R,U,"[2, 3]",1.0,1.0,0.4074850082397461,3.1303138732910156,0.6328998429673833,,901.0
B,L,"[2, 2]",-1.0,1.0,0.042619943618774414,5.517011880874634,0.33333037368456825,150.0,902.0
R,U,"[1, 2]",1.0,2.0,0.48813605308532715,1.946699857711792,0.44655757377586325,150.0,903.0
B,L,"[1, 1]",1.0,3.0,0.7091748714447021,2.3372879028320312,0.6171660155478582,150.0,904.0
R,U,"[0, 1]",0.0,3.0,0.47780799865722656,1.7904291152954102,0.30780092251702473,150.0,905.0
Y,R,"[0, 2]",0.0,3.0,0.3255610466003418,1.7266840934753418,0.4011216889418863,150.0,906.0
,,"(3, 3)",,,,,,150.0,
R,U,"[2, 3]",1.0,1.0,0.3799409866333008,3.695056915283203,0.5294292618561712,,907.0
B,L,"[2, 2]",1.0,2.0,0.31957387924194336,1.977151870727539,0.639747343954913,151.0,908.0
R,U,"[1, 2]",1.0,3.0,0.5258510112762451,2.2753608226776123,0.7485348996219816,151.0,909.0
B,L,"[1, 1]",1.0,4.0,0.4756128787994385,2.2267630100250244,0.741891763983922,151.0,910.0
Y,R,"[1, 2]",1.0,5.0,0.3163430690765381,1.932168960571289,0.6078148742549947,151.0,911.0
G,D,"[2, 2]",1.0,6.0,0.5128018856048584,1.937164068222046,0.4283372542941978,151.0,912.0
,,"(3, 3)",,,,,,151.0,
R,U,"[2, 3]",1.0,1.0,0.30271005630493164,2.474551200866699,0.319891848649965,,913.0
B,L,"[2, 2]",1.0,2.0,0.40241503715515137,2.1532180309295654,0.7393921837645796,152.0,914.0
G,D,"[3, 2]",-1.0,1.0,0.303757905960083,2.0083601474761963,0.6977648205915907,152.0,915.0
G,D,"[4, 2]",-1.0,0.0,0.3549160957336426,1.6815979480743408,0.313123972839947,152.0,916.0
G,D,"[5, 2]",-2.0,0.0,1.1215190887451172,2.5098140239715576,0.32292308075920356,152.0,917.0
G,D,"[6, 2]",0.0,0.0,0.7096719741821289,2.240525960922241,0.5298526544371327,152.0,918.0
,,"(3, 3)",,,,,,152.0,
R,U,"[2, 3]",1.0,1.0,0.3294689655303955,2.851011037826538,0.3814154949461366,,919.0
B,L,"[2, 2]",1.0,2.0,0.2877049446105957,1.760444164276123,0.45857513239677733,153.0,920.0
R,U,"[1, 2]",1.0,3.0,0.5007250308990479,1.8764300346374512,0.36794054258416353,153.0,921.0
B,L,"[1, 1]",1.0,4.0,0.3936429023742676,1.8408069610595703,0.44201887639772464,153.0,922.0
Y,R,"[1, 2]",1.0,5.0,0.43224406242370605,1.9591350555419922,0.5179219675967773,153.0,923.0
G,D,"[2, 2]",1.0,6.0,0.2988450527191162,1.954725980758667,0.6391491962788984,153.0,924.0
,,"(3, 3)",,,,,,153.0,
R,U,"[2, 3]",1.0,1.0,0.31662702560424805,2.344567060470581,0.2510790378774209,,925.0
B,L,"[2, 2]",1.0,2.0,0.29572391510009766,1.933946132659912,0.6344686625382622,154.0,926.0
R,U,"[1, 2]",1.0,3.0,0.26963376998901367,1.9935169219970703,0.7112659011228466,154.0,927.0
B,L,"[1, 1]",1.0,4.0,0.3133671283721924,1.9599318504333496,0.6546810192756101,154.0,928.0
Y,R,"[1, 2]",1.0,5.0,0.23892998695373535,1.9606900215148926,0.732080629395413,154.0,929.0
G,D,"[2, 2]",1.0,6.0,0.24125003814697266,1.9982390403747559,0.746915323754139,154.0,930.0
,,"(3, 3)",,,,,,154.0,
R,U,"[2, 3]",1.0,1.0,0.41770505905151367,3.169234037399292,0.7327308054331017,,931.0
B,L,"[2, 2]",1.0,2.0,0.2795860767364502,1.9093949794769287,0.6254637735182432,155.0,932.0
R,U,"[1, 2]",1.0,3.0,0.3015601634979248,1.9611599445343018,0.6535028824973728,155.0,933.0
B,L,"[1, 1]",1.0,4.0,0.28298377990722656,1.725053071975708,0.4289131596809268,155.0,934.0
Y,R,"[1, 2]",1.0,5.0,0.3174149990081787,1.8265070915222168,0.5051678391406889,155.0,935.0
G,D,"[2, 2]",1.0,6.0,0.2900698184967041,2.035093069076538,0.7403418570034905,155.0,936.0
,,"(3, 3)",,,,,,155.0,
R,U,"[2, 3]",1.0,1.0,0.33738183975219727,2.959731101989746,0.4335083864581551,,937.0
B,L,"[2, 2]",1.0,2.0,0.2910480499267578,1.906580924987793,0.6068110776463487,156.0,938.0
R,U,"[1, 2]",1.0,3.0,0.394650936126709,1.7025058269500732,0.3093941281040942,156.0,939.0
B,L,"[1, 1]",1.0,4.0,0.6453719139099121,2.030097007751465,0.3895443666916214,156.0,940.0
Y,R,"[1, 2]",1.0,5.0,0.6751089096069336,2.356545925140381,0.6790516530116556,156.0,941.0
G,D,"[2, 2]",1.0,6.0,0.47356700897216797,1.868635892868042,0.38150064920952226,156.0,942.0
,,"(3, 3)",,,,,,156.0,
R,U,"[2, 3]",1.0,1.0,0.27040910720825195,3.13906192779541,0.5369389542713635,,943.0
B,L,"[2, 2]",1.0,2.0,0.2597520351409912,1.615705966949463,0.35301985668821545,157.0,944.0
R,U,"[1, 2]",1.0,3.0,0.6182708740234375,2.2828710079193115,0.6521674898397194,157.0,945.0
B,L,"[1, 1]",1.0,4.0,0.33678388595581055,2.0062899589538574,0.6585293303990822,157.0,946.0
Y,R,"[1, 2]",-1.0,4.0,0.013262033462524414,5.866221904754639,0.7247310275480625,157.0,947.0
G,D,"[2, 2]",1.0,5.0,0.29749584197998047,1.9215869903564453,0.6131132598228988,157.0,948.0
,,"(3, 3)",,,,,,157.0,
R,U,"[2, 3]",1.0,1.0,0.3855760097503662,3.2337779998779297,0.6970706866576064,,949.0
B,L,"[2, 2]",1.0,2.0,0.24713706970214844,1.5992400646209717,0.34675969514700516,158.0,950.0
R,U,"[1, 2]",1.0,3.0,0.4789619445800781,2.222939968109131,0.7358002664740083,158.0,951.0
B,L,"[1, 1]",1.0,4.0,0.37935805320739746,1.645226001739502,0.26476823451093917,158.0,952.0
G,D,"[2, 1]",1.0,5.0,0.7373781204223633,2.4194259643554688,0.6671379541486738,158.0,953.0
Y,R,"[2, 2]",1.0,6.0,0.2368299961090088,1.8762991428375244,0.6268485822207428,158.0,954.0
,,"(3, 3)",,,,,,158.0,
R,U,"[2, 3]",1.0,1.0,0.4452030658721924,3.826653003692627,0.40405974891668955,,955.0
B,L,"[2, 2]",1.0,2.0,0.37414002418518066,1.8717679977416992,0.4921664417724784,159.0,956.0
R,U,"[1, 2]",1.0,3.0,0.437453031539917,1.917006015777588,0.475954134893447,159.0,957.0
B,L,"[1, 1]",1.0,4.0,0.19808101654052734,1.862947940826416,0.6720800985904016,159.0,958.0
G,D,"[2, 1]",1.0,5.0,0.2233269214630127,1.845550775527954,0.6176172075981369,159.0,959.0
Y,R,"[2, 2]",1.0,6.0,0.2855539321899414,1.788465976715088,0.4895997785432661,159.0,960.0
,,"(3, 3)",,,,,,159.0,
R,U,"[2, 3]",1.0,1.0,0.38805198669433594,3.4890990257263184,0.7118070049121612,,961.0
B,L,"[2, 2]",1.0,2.0,0.25377392768859863,1.907531976699829,0.6528283486649897,160.0,962.0
R,U,"[1, 2]",1.0,3.0,0.5201549530029297,1.8445909023284912,0.314474076748176,160.0,963.0
B,L,"[1, 1]",1.0,4.0,0.44464802742004395,2.196068048477173,0.7434708882211487,160.0,964.0
G,D,"[2, 1]",1.0,5.0,0.2809469699859619,1.9297339916229248,0.6569067905054709,160.0,965.0
Y,R,"[2, 2]",1.0,6.0,0.40981078147888184,2.095992088317871,0.686190205139052,160.0,966.0
,,"(3, 3)",,,,,,160.0,
R,U,"[2, 3]",1.0,1.0,0.2042369842529297,5.373754024505615,0.6100154525435812,,967.0
B,L,"[2, 2]",1.0,2.0,0.31543397903442383,1.988400936126709,0.6651724020394161,161.0,968.0
R,U,"[1, 2]",1.0,3.0,0.28427815437316895,1.9066510200500488,0.605272620719425,161.0,969.0
B,L,"[1, 1]",1.0,4.0,0.23641204833984375,1.9418230056762695,0.6968728101496704,161.0,970.0
G,D,"[2, 1]",1.0,5.0,0.24352598190307617,1.8311269283294678,0.5782872123846876,161.0,971.0
Y,R,"[2, 2]",1.0,6.0,0.3670508861541748,1.9356207847595215,0.5637819808216145,161.0,972.0
,,"(3, 3)",,,,,,161.0,
R,U,"[2, 3]",1.0,1.0,0.2831590175628662,2.8901519775390625,0.6040829932394711,,973.0
B,L,"[2, 2]",1.0,2.0,0.2567300796508789,1.959623098373413,0.696944948973088,162.0,974.0
G,D,"[3, 2]",-1.0,1.0,0.3443570137023926,1.7435710430145264,0.3742960876690432,162.0,975.0
Y,R,"[3, 3]",-2.0,-1.0,0.33809685707092285,2.033829927444458,0.6911120252577179,162.0,976.0
G,D,"[4, 3]",-1.0,-2.0,0.7495851516723633,2.455885887145996,0.6969763177159628,162.0,977.0
G,D,"[5, 3]",-1.0,-3.0,0.8559939861297607,2.368943929672241,0.4992673217421629,162.0,978.0
,,"(3, 3)",,,,,,162.0,
R,U,"[2, 3]",1.0,1.0,0.38979101181030273,3.2558159828186035,0.5718438820316695,,979.0
B,L,"[2, 2]",1.0,2.0,0.2484760284423828,1.9023079872131348,0.6408181007517557,163.0,980.0
R,U,"[1, 2]",1.0,3.0,0.33565783500671387,1.627018928527832,0.2846650843670218,163.0,981.0
B,L,"[1, 1]",1.0,4.0,0.4362809658050537,2.034540891647339,0.5858217057979533,163.0,982.0
G,D,"[2, 1]",1.0,5.0,0.2315380573272705,1.7123279571533203,0.46496948810673655,163.0,983.0
Y,R,"[2, 2]",1.0,6.0,0.27538514137268066,1.8579139709472656,0.5726989528965329,163.0,984.0
,,"(3, 3)",,,,,,163.0,
R,U,"[2, 3]",1.0,1.0,0.28845715522766113,3.038393974304199,0.6611708401448898,,985.0
B,L,"[2, 2]",1.0,2.0,0.28119587898254395,1.827805995941162,0.5557324092240152,164.0,986.0
G,D,"[3, 2]",-1.0,1.0,0.36494898796081543,1.787834882736206,0.4104345318638409,164.0,987.0
R,U,"[2, 2]",-2.0,1.0,1.1758999824523926,2.577986001968384,0.35513456137208654,164.0,988.0
G,D,"[3, 2]",-1.0,0.0,0.5344319343566895,2.2626118659973145,0.717456057502861,164.0,989.0
Y,R,"[3, 3]",-2.0,-2.0,0.29305100440979004,1.8767139911651611,0.5776509316328959,164.0,990.0
,,"(3, 3)",,,,,,164.0,
R,U,"[2, 3]",1.0,1.0,0.4039640426635742,3.269925117492676,0.4977867087290775,,991.0
B,L,"[2, 2]",1.0,2.0,0.2262120246887207,1.6358070373535156,0.4004013637570644,165.0,992.0
R,U,"[1, 2]",1.0,3.0,0.4428260326385498,2.001024007797241,0.5512870356094313,165.0,993.0
B,L,"[1, 1]",1.0,4.0,0.21184396743774414,1.7937028408050537,0.5784951398446723,165.0,994.0
G,D,"[2, 1]",1.0,5.0,0.25586986541748047,1.8577749729156494,0.6028099945402469,165.0,995.0
Y,R,"[2, 2]",1.0,6.0,0.2729189395904541,1.8266761302947998,0.5461148516544783,165.0,996.0
,,"(3, 3)",,,,,,165.0,
R,U,"[2, 3]",1.0,1.0,0.3641397953033447,2.366399049758911,0.5294019444934456,,997.0
B,L,"[2, 2]",1.0,2.0,0.10519099235534668,1.4781560897827148,0.3578175831599423,166.0,998.0
R,U,"[1, 2]",1.0,3.0,0.3927009105682373,1.651602029800415,0.2593007566573716,166.0,999.0
B,L,"[1, 1]",1.0,4.0,0.5957319736480713,1.9837350845336914,0.3930787781675496,166.0,1000.0
G,D,"[2, 1]",1.0,5.0,0.3324470520019531,1.5764319896697998,0.25301099210830524,166.0,1001.0
Y,R,"[2, 2]",1.0,6.0,0.5418860912322998,2.1968648433685303,0.6493666932348435,166.0,1002.0
,,"(3, 3)",,,,,,166.0,
R,U,"[2, 3]",1.0,1.0,0.2982480525970459,2.6052260398864746,0.6547347734218323,,1003.0
B,L,"[2, 2]",-1.0,1.0,0.0769960880279541,5.70334792137146,0.474926612228417,167.0,1004.0
R,U,"[1, 2]",1.0,2.0,0.39624786376953125,1.7399110794067383,0.34809391356047836,167.0,1005.0
B,L,"[1, 1]",1.0,3.0,0.34430694580078125,1.6932518482208252,0.3416656854239434,167.0,1006.0
G,D,"[2, 1]",1.0,4.0,0.4560379981994629,1.883397102355957,0.42509909700998383,167.0,1007.0
Y,R,"[2, 2]",1.0,5.0,0.600754976272583,2.1037590503692627,0.49528761685277894,167.0,1008.0
,,"(3, 3)",,,,,,167.0,
R,U,"[2, 3]",1.0,1.0,0.32467103004455566,2.737579107284546,0.3498085473623677,,1009.0
B,L,"[2, 2]",1.0,2.0,0.6079041957855225,1.9176900386810303,0.30091465755919966,168.0,1010.0
R,U,"[1, 2]",1.0,3.0,0.6055309772491455,2.210644006729126,0.5946130542041621,168.0,1011.0
B,L,"[1, 1]",1.0,4.0,0.29839015007019043,1.8796019554138184,0.5908359390489382,168.0,1012.0
G,D,"[2, 1]",1.0,5.0,0.48115992546081543,1.8514630794525146,0.3759434471179201,168.0,1013.0
Y,R,"[2, 2]",1.0,6.0,0.4886970520019531,1.7473700046539307,0.2566915385221823,168.0,1014.0
,,"(3, 3)",,,,,,168.0,
R,U,"[2, 3]",1.0,1.0,0.3417549133300781,4.0962769985198975,0.7358994466485387,,1015.0
B,L,"[2, 2]",1.0,2.0,0.20455694198608398,1.7848141193389893,0.5710098013054472,169.0,1016.0
R,U,"[1, 2]",1.0,3.0,0.41017603874206543,2.071773052215576,0.6592695917697503,169.0,1017.0
B,L,"[1, 1]",1.0,4.0,0.17765402793884277,1.5922601222991943,0.4186645033093449,169.0,1018.0
G,D,"[2, 1]",1.0,5.0,0.3215670585632324,1.893583059310913,0.5620622604673138,169.0,1019.0
Y,R,"[2, 2]",1.0,6.0,0.3134918212890625,1.8787999153137207,0.5741637541124267,169.0,1020.0
,,"(3, 3)",,,,,,169.0,
R,U,"[2, 3]",1.0,1.0,0.30551791191101074,2.4395828247070312,0.4639279296222482,,1021.0
B,L,"[2, 2]",1.0,2.0,0.2082080841064453,1.4930858612060547,0.27409532591511454,170.0,1022.0
G,D,"[3, 2]",-1.0,1.0,0.4827890396118164,1.8387908935546875,0.3459676573166887,170.0,1023.0
B,L,"[3, 1]",1.0,2.0,0.8336138725280762,2.101925849914551,0.2646615442401755,170.0,1024.0
G,D,"[4, 1]",-1.0,1.0,0.539309024810791,1.9285118579864502,0.3763382758343987,170.0,1025.0
Y,R,"[4, 2]",-1.0,0.0,0.2765350341796875,1.7349159717559814,0.4612958784533752,170.0,1026.0
,,"(3, 3)",,,,,,170.0,
R,U,"[2, 3]",1.0,1.0,0.3863649368286133,3.164626121520996,0.6426539234975299,,1027.0
B,L,"[2, 2]",-1.0,1.0,0.08549690246582031,5.721380949020386,0.5141018365603894,171.0,1028.0
R,U,"[1, 2]",1.0,2.0,0.2833750247955322,1.8568801879882812,0.5542257341751343,171.0,1029.0
B,L,"[1, 1]",1.0,3.0,0.3106100559234619,1.87431001663208,0.5620159488251633,171.0,1030.0
G,D,"[2, 1]",1.0,4.0,0.6137900352478027,2.1345741748809814,0.5297801756083608,171.0,1031.0
Y,R,"[2, 2]",1.0,5.0,0.5969381332397461,2.3039710521698,0.7003768512075992,171.0,1032.0
,,"(3, 3)",,,,,,171.0,
R,U,"[2, 3]",1.0,1.0,0.28869009017944336,2.7032530307769775,0.437604286410563,,1033.0
B,L,"[2, 2]",1.0,2.0,0.2831599712371826,2.0248520374298096,0.7285952961745361,172.0,1034.0
R,U,"[1, 2]",1.0,3.0,0.2795829772949219,1.6963951587677002,0.425382155306132,172.0,1035.0
B,L,"[1, 1]",1.0,4.0,0.5929839611053467,1.9485549926757812,0.35749091576184416,172.0,1036.0
G,D,"[2, 1]",1.0,5.0,0.49291014671325684,2.186126947402954,0.69329736497983,172.0,1037.0
Y,R,"[2, 2]",1.0,6.0,0.359785795211792,1.9623570442199707,0.6055541939585254,172.0,1038.0
,,"(3, 3)",,,,,,172.0,
R,U,"[2, 3]",1.0,1.0,0.28334999084472656,2.4673171043395996,0.5560658894268012,,1039.0
B,L,"[2, 2]",1.0,2.0,0.28324389457702637,2.028995990753174,0.7350891714445524,173.0,1040.0
G,D,"[3, 2]",-1.0,1.0,0.3529040813446045,1.618091106414795,0.25374847074645324,173.0,1041.0
B,L,"[3, 1]",1.0,2.0,0.5283150672912598,1.8843140602111816,0.3546611094811634,173.0,1042.0
G,D,"[4, 1]",-1.0,1.0,0.3021068572998047,1.6641690731048584,0.3521551421579901,173.0,1043.0
Y,R,"[4, 2]",-1.0,0.0,0.29038190841674805,1.809194803237915,0.5112765140004133,173.0,1044.0
,,"(3, 3)",,,,,,173.0,
R,U,"[2, 3]",1.0,1.0,0.26341915130615234,2.5314338207244873,0.709076954324209,,1045.0
B,L,"[2, 2]",1.0,2.0,0.26317286491394043,1.7943639755249023,0.5368682134839546,174.0,1046.0
R,U,"[1, 2]",1.0,3.0,0.30429911613464355,1.646855115890503,0.3340564955438415,174.0,1047.0
B,L,"[1, 1]",1.0,4.0,0.26843714714050293,1.7280209064483643,0.4453441339977876,174.0,1048.0
G,D,"[2, 1]",1.0,5.0,0.2557060718536377,1.7733829021453857,0.5186728269071442,174.0,1049.0
Y,R,"[2, 2]",1.0,6.0,0.24666500091552734,1.8457598686218262,0.5977073319825357,174.0,1050.0
,,"(3, 3)",,,,,,174.0,
R,U,"[2, 3]",1.0,1.0,0.3836638927459717,2.421511173248291,0.48610204902762477,,1051.0
B,L,"[2, 2]",-1.0,1.0,0.0683751106262207,5.820039987564087,0.6226762523365561,175.0,1052.0
R,U,"[1, 2]",1.0,2.0,0.5074529647827148,1.9411041736602783,0.4306081452075911,175.0,1053.0
B,L,"[1, 1]",1.0,3.0,0.6143879890441895,2.1946139335632324,0.5752318760506061,175.0,1054.0
G,D,"[2, 1]",1.0,4.0,0.2996368408203125,1.6731150150299072,0.3653058640668678,175.0,1055.0
Y,R,"[2, 2]",1.0,5.0,0.44687891006469727,1.737860918045044,0.2865058833714228,175.0,1056.0
,,"(3, 3)",,,,,,175.0,
R,U,"[2, 3]",1.0,1.0,0.2456221580505371,2.4070069789886475,0.27692093083947633,,1057.0
B,L,"[2, 2]",1.0,2.0,0.4970700740814209,1.751863956451416,0.2622669493493483,176.0,1058.0
R,U,"[1, 2]",1.0,3.0,0.5319778919219971,2.151689052581787,0.6301625774556441,176.0,1059.0
B,L,"[1, 1]",1.0,4.0,0.26836585998535156,1.968291997909546,0.6818959578558954,176.0,1060.0
G,D,"[2, 1]",1.0,5.0,0.23490285873413086,1.953023910522461,0.7015381059306331,176.0,1061.0
Y,R,"[2, 2]",1.0,6.0,0.21793603897094727,1.7484538555145264,0.5167415975988628,176.0,1062.0
,,"(3, 3)",,,,,,176.0,
R,U,"[2, 3]",1.0,1.0,0.3249359130859375,2.675014019012451,0.45882019218473485,,1063.0
B,L,"[2, 2]",1.0,2.0,0.8171238899230957,2.2650399208068848,0.44035615993954097,177.0,1064.0
R,U,"[1, 2]",1.0,3.0,0.2938718795776367,1.5760557651519775,0.28333857175288196,177.0,1065.0
B,L,"[1, 1]",1.0,4.0,0.37928199768066406,1.9139418601989746,0.5303926804974899,177.0,1066.0
G,D,"[2, 1]",1.0,5.0,0.33974194526672363,1.6725058555603027,0.3197915073671267,177.0,1067.0
Y,R,"[2, 2]",1.0,6.0,0.5410919189453125,1.9499778747558594,0.4030256308625995,177.0,1068.0
,,"(3, 3)",,,,,,177.0,
R,U,"[2, 3]",1.0,1.0,0.2671971321105957,2.466620922088623,0.30329900782803154,,1069.0
B,L,"[2, 2]",1.0,2.0,0.2625460624694824,1.922523021697998,0.6586305352661637,178.0,1070.0
R,U,"[1, 2]",1.0,3.0,0.28897809982299805,1.8950231075286865,0.6036949908741971,178.0,1071.0
B,L,"[1, 1]",1.0,4.0,0.41713809967041016,1.8599090576171875,0.43058344917744035,178.0,1072.0
G,D,"[2, 1]",1.0,5.0,0.2964439392089844,2.011496067047119,0.7085041452858892,178.0,1073.0
Y,R,"[2, 2]",1.0,6.0,0.23435115814208984,1.5762310028076172,0.3519421702074091,178.0,1074.0
,,"(3, 3)",,,,,,178.0,
R,U,"[2, 3]",1.0,1.0,0.17688894271850586,3.041956901550293,0.710349750718668,,1075.0
B,L,"[2, 2]",-1.0,1.0,0.0017669200897216797,5.667151927947998,0.5443759666929384,179.0,1076.0
R,U,"[1, 2]",1.0,2.0,0.5645608901977539,2.076977014541626,0.5211113241088571,179.0,1077.0
B,L,"[1, 1]",1.0,3.0,0.29215192794799805,1.8430969715118408,0.5476373656446546,179.0,1078.0
G,D,"[2, 1]",1.0,4.0,0.35638904571533203,1.9102249145507812,0.5412011598634978,179.0,1079.0
