button_choice,action_choice,coordinate_choice,reward,cumulative_reward,rt,total_trial_time,iti,block_n,trial_n
G,D,"[4, 3]",-2.0,0.0,4.380098819732666,6.095930099487305,0.6796985666391884,0.0,1.0
G,D,"[5, 3]",-2.0,0.0,1.125558853149414,2.543894052505493,0.37397072970131817,0.0,2.0
G,D,"[6, 3]",0.0,0.0,0.26590895652770996,1.5798051357269287,0.3037086769249513,0.0,3.0
B,L,"[6, 2]",0.0,0.0,0.558927059173584,2.2092549800872803,0.6460623216670851,0.0,4.0
G,D,"[6, 2]",0.0,0.0,0.8050720691680908,2.5419671535491943,0.7211882401410996,0.0,5.0
B,L,"[6, 1]",0.0,0.0,0.3438608646392822,1.991318941116333,0.6459589794770664,0.0,6.0
,,"(3, 3)",,,,,,0.0,
G,D,"[4, 3]",-2.0,0.0,1.200429916381836,8.762457847595215,0.2919850184114709,,7.0
G,D,"[5, 3]",-1.0,-1.0,0.35314011573791504,1.978698968887329,0.6204102343618652,1.0,8.0
B,L,"[5, 2]",-1.0,-2.0,0.15999484062194824,1.681122064590454,0.5182390731254698,1.0,9.0
Y,R,"[5, 3]",0.0,-2.0,0.19786906242370605,1.4972639083862305,0.29921090891236435,1.0,10.0
R,U,"[4, 3]",0.0,-2.0,0.15483713150024414,1.706925868988037,0.5391462531217348,1.0,11.0
G,D,"[5, 3]",0.0,-2.0,0.1508948802947998,1.8028218746185303,0.6584641819128128,1.0,12.0
,,"(3, 3)",,,,,,1.0,
R,U,"[2, 3]",-1.0,-1.0,0.7621479034423828,10.541342973709106,0.39992761129984106,,13.0
G,D,"[3, 3]",0.0,-1.0,0.44722700119018555,1.8588860034942627,0.4088056620288673,2.0,14.0
B,L,"[3, 2]",1.0,0.0,0.21954703330993652,1.7146098613739014,0.48996072019039055,2.0,15.0
B,L,"[3, 1]",1.0,1.0,0.27286219596862793,1.6324138641357422,0.3559302234092864,2.0,16.0
B,L,"[3, 0]",0.0,1.0,0.38429689407348633,1.9029481410980225,0.5086165608143023,2.0,17.0
Y,R,"[3, 1]",0.0,1.0,0.15740108489990234,1.8741319179534912,0.7159464676200831,2.0,18.0
,,"(3, 3)",,,,,,2.0,
B,L,"[3, 2]",1.0,1.0,0.3206639289855957,7.875640869140625,0.4917469329286948,,19.0
B,L,"[3, 1]",1.0,2.0,0.22081804275512695,1.9550018310546875,0.7301487408447337,3.0,20.0
B,L,"[3, 0]",0.0,2.0,0.16639304161071777,1.4516148567199707,0.2651807696596556,3.0,21.0
Y,R,"[3, 1]",0.0,2.0,0.25313520431518555,1.540898084640503,0.2893208943976133,3.0,22.0
R,U,"[2, 1]",1.0,3.0,0.46280813217163086,1.9299659729003906,0.45241025548094704,3.0,23.0
R,U,"[1, 1]",-1.0,2.0,0.17703700065612793,1.5215320587158203,0.34077167497729816,3.0,24.0
,,"(3, 3)",,,,,,3.0,
B,L,"[3, 2]",1.0,1.0,0.4186739921569824,8.067945003509521,0.4752054272731466,,25.0
B,L,"[3, 1]",1.0,2.0,0.23099088668823242,1.6045811176300049,0.37984831932023166,4.0,26.0
R,U,"[2, 1]",1.0,3.0,0.22707581520080566,1.9486920833587646,0.7115377202387929,4.0,27.0
Y,R,"[2, 2]",1.0,4.0,0.19663310050964355,1.440432071685791,0.252440694635833,4.0,28.0
B,L,"[2, 1]",0.0,4.0,0.4067070484161377,2.010266065597534,0.595581350568749,4.0,29.0
Y,R,"[2, 2]",0.0,4.0,0.18491101264953613,1.6689250469207764,0.49796990638653815,4.0,30.0
,,"(3, 3)",,,,,,4.0,
B,L,"[3, 2]",1.0,1.0,0.3149721622467041,10.972290992736816,0.45344143388505354,,31.0
B,L,"[3, 1]",1.0,2.0,0.2592189311981201,1.5789098739624023,0.31587190705023654,5.0,32.0
R,U,"[2, 1]",1.0,3.0,0.2238929271697998,1.5096220970153809,0.27538564733139204,5.0,33.0
Y,R,"[2, 2]",1.0,4.0,0.25296497344970703,1.5712089538574219,0.3134209078546243,5.0,34.0
Y,R,"[2, 3]",-1.0,3.0,0.18390607833862305,1.9238150119781494,0.7201210663669887,5.0,35.0
G,D,"[3, 3]",0.0,3.0,0.19914913177490234,1.6243538856506348,0.42791306712531285,5.0,36.0
,,"(3, 3)",,,,,,5.0,
B,L,"[3, 2]",1.0,1.0,0.42444801330566406,8.10851001739502,0.5361687483178809,,37.0
B,L,"[3, 1]",1.0,2.0,0.27440309524536133,1.9284560680389404,0.6479349640571418,6.0,38.0
R,U,"[2, 1]",1.0,3.0,0.25867295265197754,1.890768051147461,0.6220002602019593,6.0,39.0
R,U,"[1, 1]",-1.0,2.0,0.24749517440795898,1.937441110610962,0.6762306583458313,6.0,40.0
Y,R,"[1, 2]",1.0,3.0,0.23359084129333496,1.6288928985595703,0.38858710097762744,6.0,41.0
G,D,"[2, 2]",1.0,4.0,0.3052821159362793,1.6876637935638428,0.37623226404541926,6.0,42.0
,,"(3, 3)",,,,,,6.0,
B,L,"[3, 2]",1.0,1.0,0.602545976638794,6.953898906707764,0.5301663033931454,,43.0
B,L,"[3, 1]",1.0,2.0,0.2862739562988281,1.7244200706481934,0.43780883845650126,7.0,44.0
R,U,"[2, 1]",1.0,3.0,0.2077198028564453,1.610625982284546,0.3985836255092619,7.0,45.0
Y,R,"[2, 2]",1.0,4.0,0.2432088851928711,1.92020583152771,0.668264596855766,7.0,46.0
G,D,"[3, 2]",0.0,4.0,0.2627890110015869,1.8559608459472656,0.5911049701516675,7.0,47.0
R,U,"[2, 2]",0.0,4.0,0.21554088592529297,1.9572210311889648,0.7481909534076955,7.0,48.0
,,"(3, 3)",,,,,,7.0,
B,L,"[3, 2]",1.0,1.0,0.61114501953125,6.216598987579346,0.3820270179375838,,49.0
B,L,"[3, 1]",1.0,2.0,0.22460389137268066,1.497452974319458,0.2628125997109644,8.0,50.0
R,U,"[2, 1]",1.0,3.0,0.3641810417175293,2.0429580211639404,0.6886301640677037,8.0,51.0
Y,R,"[2, 2]",1.0,4.0,0.16661787033081055,1.5163288116455078,0.35511697324094593,8.0,52.0
G,D,"[3, 2]",0.0,4.0,0.23862814903259277,1.6833930015563965,0.43852550352254605,8.0,53.0
R,U,"[2, 2]",0.0,4.0,0.2773258686065674,1.5936839580535889,0.3157689993731053,8.0,54.0
,,"(3, 3)",,,,,,8.0,
B,L,"[3, 2]",1.0,1.0,0.29114484786987305,6.674222946166992,0.5728825872676299,,55.0
B,L,"[3, 1]",1.0,2.0,0.19117403030395508,1.6232759952545166,0.42966999588743066,9.0,56.0
R,U,"[2, 1]",1.0,3.0,0.25269103050231934,1.5745790004730225,0.3042353721657454,9.0,57.0
Y,R,"[2, 2]",1.0,4.0,0.22920799255371094,1.756788969039917,0.5275777703840545,9.0,58.0
G,D,"[3, 2]",0.0,4.0,0.21311092376708984,1.52040696144104,0.3146308313880676,9.0,59.0
R,U,"[2, 2]",0.0,4.0,0.23182201385498047,1.5720489025115967,0.33658693750053303,9.0,60.0
,,"(3, 3)",,,,,,9.0,
B,L,"[3, 2]",1.0,1.0,0.30532097816467285,4.56779408454895,0.3712380283172162,,61.0
B,L,"[3, 1]",1.0,2.0,0.24385690689086914,1.526238203048706,0.28083247463415895,10.0,62.0
R,U,"[2, 1]",1.0,3.0,0.27236294746398926,1.7287790775299072,0.4425900137526601,10.0,63.0
Y,R,"[2, 2]",1.0,4.0,0.1580181121826172,1.8093359470367432,0.6520206786196812,10.0,64.0
R,U,"[1, 2]",1.0,5.0,0.2541530132293701,1.6089379787445068,0.3443020182935195,10.0,65.0
G,D,"[2, 2]",0.0,5.0,0.2561800479888916,1.7857370376586914,0.5299400640558709,10.0,66.0
,,"(3, 3)",,,,,,10.0,
B,L,"[3, 2]",1.0,1.0,0.4311389923095703,7.022129058837891,0.7185767988992809,,67.0
B,L,"[3, 1]",1.0,2.0,0.27275609970092773,2.000027894973755,0.7185604780677792,11.0,68.0
R,U,"[2, 1]",1.0,3.0,0.16594409942626953,1.6044588088989258,0.42327058863150363,11.0,69.0
Y,R,"[2, 2]",1.0,4.0,0.19597411155700684,1.7947568893432617,0.601341908525368,11.0,70.0
R,U,"[1, 2]",1.0,5.0,0.36086392402648926,2.017975091934204,0.6525093999247594,11.0,71.0
G,D,"[2, 2]",0.0,5.0,0.1614241600036621,1.9087209701538086,0.7446655211431221,11.0,72.0
,,"(3, 3)",,,,,,11.0,
B,L,"[3, 2]",1.0,1.0,0.5698440074920654,4.86341404914856,0.408833711412688,,73.0
B,L,"[3, 1]",1.0,2.0,0.27294397354125977,1.7377638816833496,0.46357006725318434,12.0,74.0
R,U,"[2, 1]",1.0,3.0,0.22306489944458008,1.9059669971466064,0.6694196686578913,12.0,75.0
Y,R,"[2, 2]",1.0,4.0,0.14917302131652832,1.546828031539917,0.4001549581097103,12.0,76.0
R,U,"[1, 2]",1.0,5.0,0.47304201126098633,1.943882942199707,0.46061374765348767,12.0,77.0
R,U,"[0, 2]",0.0,5.0,0.4071509838104248,2.144463062286377,0.7383326404682651,12.0,78.0
,,"(3, 3)",,,,,,12.0,
B,L,"[3, 2]",1.0,1.0,0.39375805854797363,4.5429160594940186,0.6152259271206755,,79.0
B,L,"[3, 1]",1.0,2.0,0.2190561294555664,1.978477954864502,0.7438406459311544,13.0,80.0
R,U,"[2, 1]",1.0,3.0,0.16568708419799805,1.4882760047912598,0.3328155090602878,13.0,81.0
Y,R,"[2, 2]",1.0,4.0,0.34452390670776367,1.6249940395355225,0.2745050936352628,13.0,82.0
R,U,"[1, 2]",1.0,5.0,0.3582420349121094,1.6992120742797852,0.3404527115621381,13.0,83.0
G,D,"[2, 2]",0.0,5.0,0.27395200729370117,1.989366054534912,0.7132725606147942,13.0,84.0
,,"(3, 3)",,,,,,13.0,
B,L,"[3, 2]",1.0,1.0,0.41172099113464355,3.7211570739746094,0.5182106812718932,,85.0
B,L,"[3, 1]",1.0,2.0,0.21300005912780762,1.6220669746398926,0.4071444727212515,14.0,86.0
R,U,"[2, 1]",1.0,3.0,0.19218087196350098,1.5394070148468018,0.34678261327017673,14.0,87.0
Y,R,"[2, 2]",1.0,4.0,0.23424506187438965,1.5990300178527832,0.3460122060911423,14.0,88.0
R,U,"[1, 2]",1.0,5.0,0.21973800659179688,1.911694049835205,0.6907689307311976,14.0,89.0
B,L,"[1, 1]",-1.0,4.0,0.18230390548706055,1.7320959568023682,0.539817123047388,14.0,90.0
,,"(3, 3)",,,,,,14.0,
B,L,"[3, 2]",1.0,1.0,0.4392409324645996,4.554558992385864,0.7113255821709704,,91.0
B,L,"[3, 1]",1.0,2.0,0.2088911533355713,1.659458875656128,0.4547009714261744,15.0,92.0
R,U,"[2, 1]",1.0,3.0,0.20636820793151855,1.5326509475708008,0.3209486834368581,15.0,93.0
Y,R,"[2, 2]",1.0,4.0,0.24500203132629395,1.6034719944000244,0.3577175487660938,15.0,94.0
R,U,"[1, 2]",1.0,5.0,0.3210270404815674,1.9877259731292725,0.6620411282197597,15.0,95.0
G,D,"[2, 2]",0.0,5.0,0.17890381813049316,1.5230638980865479,0.35222273714555147,15.0,96.0
,,"(3, 3)",,,,,,15.0,
B,L,"[3, 2]",1.0,1.0,0.5403740406036377,3.7179651260375977,0.5370474700297815,,97.0
B,L,"[3, 1]",1.0,2.0,0.2089860439300537,1.7179291248321533,0.5051685113633275,16.0,98.0
R,U,"[2, 1]",1.0,3.0,0.22536587715148926,1.7417540550231934,0.5139228939503082,16.0,99.0
Y,R,"[2, 2]",1.0,4.0,0.14364290237426758,1.8051509857177734,0.6523645592213184,16.0,100.0
R,U,"[1, 2]",1.0,5.0,0.17262005805969238,1.7466490268707275,0.5658432038156584,16.0,101.0
Y,R,"[1, 3]",1.0,6.0,0.3965299129486084,1.9652910232543945,0.5647126284278481,16.0,102.0
,,"(3, 3)",,,,,,16.0,
B,L,"[3, 2]",1.0,1.0,0.5606169700622559,6.180758953094482,0.34623096328168407,,103.0
B,L,"[3, 1]",1.0,2.0,0.3219470977783203,1.7375941276550293,0.40060402102403037,17.0,104.0
R,U,"[2, 1]",1.0,3.0,0.21553492546081543,1.9199998378753662,0.7037410711879121,17.0,105.0
Y,R,"[2, 2]",1.0,4.0,0.1821579933166504,1.585515022277832,0.38979134035621577,17.0,106.0
R,U,"[1, 2]",1.0,5.0,0.25360703468322754,1.9856288433074951,0.7252568505644399,17.0,107.0
Y,R,"[1, 3]",1.0,6.0,0.17848896980285645,1.7808117866516113,0.6063475018340383,17.0,108.0
,,"(3, 3)",,,,,,17.0,
B,L,"[3, 2]",1.0,1.0,0.746380090713501,3.4408440589904785,0.34781909080555384,,109.0
B,L,"[3, 1]",1.0,2.0,0.2871570587158203,1.9847190380096436,0.6823819275933766,18.0,110.0
R,U,"[2, 1]",1.0,3.0,0.16908717155456543,1.7965002059936523,0.6124827190193818,18.0,111.0
Y,R,"[2, 2]",1.0,4.0,0.20517992973327637,1.494070053100586,0.2737602491113022,18.0,112.0
R,U,"[1, 2]",1.0,5.0,0.4686927795410156,1.8774440288543701,0.4012501302746013,18.0,113.0
Y,R,"[1, 3]",1.0,6.0,0.3576619625091553,1.6399180889129639,0.27471168801375306,18.0,114.0
,,"(3, 3)",,,,,,18.0,
B,L,"[3, 2]",1.0,1.0,0.5871610641479492,3.280555009841919,0.5719541969324614,,115.0
B,L,"[3, 1]",1.0,2.0,0.16895699501037598,1.4639041423797607,0.28620354077469295,19.0,116.0
R,U,"[2, 1]",1.0,3.0,0.25130391120910645,1.623628854751587,0.36005639279296836,19.0,117.0
Y,R,"[2, 2]",1.0,4.0,0.2298591136932373,1.6850218772888184,0.46172231514746837,19.0,118.0
R,U,"[1, 2]",1.0,5.0,0.17746281623840332,1.7185211181640625,0.5469469136604914,19.0,119.0
Y,R,"[1, 3]",1.0,6.0,0.1676959991455078,1.6858620643615723,0.4997107698069122,19.0,120.0
,,"(3, 3)",,,,,,19.0,
B,L,"[3, 2]",1.0,1.0,0.6338849067687988,3.4203109741210938,0.6533914359795236,,121.0
B,L,"[3, 1]",1.0,2.0,0.16627788543701172,1.7910068035125732,0.6112992714910239,20.0,122.0
R,U,"[2, 1]",1.0,3.0,0.20911097526550293,1.892319917678833,0.6871506209731233,20.0,123.0
Y,R,"[2, 2]",1.0,4.0,0.1802198886871338,1.7355880737304688,0.556218244108817,20.0,124.0
R,U,"[1, 2]",1.0,5.0,0.24689197540283203,1.5778400897979736,0.3345377522921432,20.0,125.0
Y,R,"[1, 3]",1.0,6.0,0.17854595184326172,1.6654839515686035,0.4832392350058662,20.0,126.0
,,"(3, 3)",,,,,,20.0,
B,L,"[3, 2]",1.0,1.0,0.6041479110717773,2.922437906265259,0.6225156528861372,,127.0
B,L,"[3, 1]",1.0,2.0,0.19533491134643555,1.6627249717712402,0.46883200426303073,21.0,128.0
R,U,"[2, 1]",1.0,3.0,0.2987689971923828,1.6883258819580078,0.39099484600871487,21.0,129.0
Y,R,"[2, 2]",1.0,4.0,0.22461390495300293,1.6379671096801758,0.41215971937783524,21.0,130.0
R,U,"[1, 2]",1.0,5.0,0.2452678680419922,1.516402006149292,0.2787464050455658,21.0,131.0
Y,R,"[1, 3]",1.0,6.0,0.31467294692993164,1.6169428825378418,0.31275665208299636,21.0,132.0
,,"(3, 3)",,,,,,21.0,
B,L,"[3, 2]",1.0,1.0,0.42014408111572266,6.89221715927124,0.35551947652218857,,133.0
B,L,"[3, 1]",1.0,2.0,0.24575400352478027,1.8464200496673584,0.601584358770403,22.0,134.0
R,U,"[2, 1]",1.0,3.0,0.15638494491577148,1.6550700664520264,0.49023898258251575,22.0,135.0
Y,R,"[2, 2]",1.0,4.0,0.18972301483154297,1.6625280380249023,0.4696746249678203,22.0,136.0
R,U,"[1, 2]",1.0,5.0,0.21870684623718262,1.5306870937347412,0.30075806822400875,22.0,137.0
Y,R,"[1, 3]",1.0,6.0,0.2234020233154297,1.7440440654754639,0.5113164689505367,22.0,138.0
,,"(3, 3)",,,,,,22.0,
B,L,"[3, 2]",1.0,1.0,0.49967384338378906,3.0614922046661377,0.42316741052896956,,139.0
B,L,"[3, 1]",1.0,2.0,0.1756141185760498,1.5580840110778809,0.38120649093100084,23.0,140.0
R,U,"[2, 1]",1.0,3.0,0.21022891998291016,1.6514010429382324,0.4328722079240276,23.0,141.0
Y,R,"[2, 2]",1.0,4.0,0.17180705070495605,1.7922141551971436,0.6250727421820174,23.0,142.0
R,U,"[1, 2]",1.0,5.0,0.14776206016540527,1.798454999923706,0.6401999196944357,23.0,143.0
Y,R,"[1, 3]",1.0,6.0,0.16783714294433594,1.6692819595336914,0.4932526754373641,23.0,144.0
,,"(3, 3)",,,,,,23.0,
B,L,"[3, 2]",1.0,1.0,0.40953493118286133,3.6191678047180176,0.26289012223441827,,145.0
B,L,"[3, 1]",1.0,2.0,0.22227978706359863,1.7218420505523682,0.467898118415183,24.0,146.0
R,U,"[2, 1]",-1.0,2.0,0.03047800064086914,5.552896022796631,0.3880195876325759,24.0,147.0
B,L,"[2, 0]",0.0,2.0,0.5544209480285645,1.9657540321350098,0.4040343424593798,24.0,148.0
B,L,"[2, 0]",0.0,2.0,0.37181591987609863,1.8548800945281982,0.47551343294599313,24.0,149.0
G,D,"[3, 0]",0.0,2.0,0.24922490119934082,1.743157148361206,0.5021599794651331,24.0,150.0
,,"(3, 3)",,,,,,24.0,
R,U,"[2, 3]",-1.0,-1.0,0.20873498916625977,12.947197914123535,0.733485373114386,,151.0
G,D,"[3, 3]",0.0,-1.0,0.16763997077941895,1.5405478477478027,0.35780176652725965,25.0,152.0
Y,R,"[3, 4]",-1.0,-2.0,0.3313407897949219,2.003253221511841,0.661022946189068,25.0,153.0
B,L,"[3, 3]",0.0,-2.0,0.1795039176940918,1.566828966140747,0.39477092040489575,25.0,154.0
G,D,"[4, 3]",-1.0,-3.0,0.2426760196685791,1.629235029220581,0.3908741606448654,25.0,155.0
B,L,"[4, 2]",-1.0,-4.0,0.6165220737457275,2.0539488792419434,0.4282098756487531,25.0,156.0
,,"(3, 3)",,,,,,25.0,
Y,R,"[3, 4]",-1.0,-1.0,0.3578310012817383,4.407101154327393,0.2691620203214059,,157.0
R,U,"[2, 4]",-1.0,-2.0,0.3800230026245117,2.092489004135132,0.7114994612220281,26.0,158.0
G,D,"[3, 4]",0.0,-2.0,0.2350611686706543,1.9327521324157715,0.6943037440112185,26.0,159.0
B,L,"[3, 3]",0.0,-2.0,0.2724609375,1.8659069538116455,0.5937569853029973,26.0,160.0
G,D,"[4, 3]",-1.0,-3.0,0.5447618961334229,2.3011298179626465,0.7449224246969439,26.0,161.0
B,L,"[4, 2]",-1.0,-4.0,0.21297597885131836,1.5513370037078857,0.3466945040818192,26.0,162.0
,,"(3, 3)",,,,,,26.0,
Y,R,"[3, 4]",-2.0,0.0,1.381108045578003,4.496572971343994,0.5601129543332785,,163.0
Y,R,"[3, 5]",-1.0,-1.0,0.40693116188049316,1.6671600341796875,0.2611599944758873,27.0,164.0
Y,R,"[3, 6]",0.0,-1.0,0.42531490325927734,1.7364671230316162,0.3141574206529923,27.0,165.0
B,L,"[3, 5]",-2.0,-1.0,1.2873361110687256,2.813508987426758,0.4946415016497956,27.0,166.0
Y,R,"[3, 6]",-2.0,-1.0,2.1395580768585205,3.8593859672546387,0.687249364210561,27.0,167.0
Y,R,"[3, 6]",0.0,-1.0,0.4620320796966553,1.8441078662872314,0.38192200000378856,27.0,168.0
,,"(3, 3)",,,,,,27.0,
Y,R,"[3, 4]",-1.0,-1.0,0.23050403594970703,9.575157880783081,0.5910301427337814,,169.0
B,L,"[3, 3]",0.0,-1.0,0.1968979835510254,1.751142978668213,0.5586427029437486,28.0,170.0
G,D,"[4, 3]",-1.0,-2.0,0.34586405754089355,2.0654778480529785,0.7075409279798703,28.0,171.0
R,U,"[3, 3]",0.0,-2.0,0.18848490715026855,1.6710658073425293,0.47903813930383315,28.0,172.0
B,L,"[3, 2]",-2.0,-2.0,1.286280870437622,2.783547878265381,0.47933633355644284,28.0,173.0
B,L,"[3, 1]",1.0,-1.0,0.8016929626464844,2.2563259601593018,0.43591284106731537,28.0,174.0
,,"(3, 3)",,,,,,28.0,
B,L,"[3, 2]",1.0,1.0,0.297576904296875,4.963501930236816,0.6328723211744135,,175.0
R,U,"[2, 2]",1.0,2.0,0.2502729892730713,1.7194068431854248,0.45270138829119944,29.0,176.0
B,L,"[2, 1]",1.0,3.0,0.27581000328063965,1.64329195022583,0.36288267708029703,29.0,177.0
R,U,"[1, 1]",-1.0,2.0,0.21186494827270508,1.6596381664276123,0.4391808081164641,29.0,178.0
G,D,"[2, 1]",0.0,2.0,0.4907419681549072,1.8695638179779053,0.37576027670296436,29.0,179.0
Y,R,"[2, 2]",0.0,2.0,0.3385641574859619,1.8719289302825928,0.5309799670832847,29.0,180.0
,,"(3, 3)",,,,,,29.0,
B,L,"[3, 2]",1.0,1.0,0.4184999465942383,5.089277982711792,0.7035809550305808,,181.0
R,U,"[2, 2]",1.0,2.0,0.1795949935913086,1.6247971057891846,0.4456216166460309,30.0,182.0
B,L,"[2, 1]",1.0,3.0,0.2211141586303711,1.6439499855041504,0.4230929542668034,30.0,183.0
Y,R,"[2, 2]",0.0,3.0,0.19034099578857422,1.7717270851135254,0.5779286357507918,30.0,184.0
G,D,"[3, 2]",0.0,3.0,0.15479493141174316,1.8167340755462646,0.6615610861551118,30.0,185.0
B,L,"[3, 1]",1.0,4.0,0.11918497085571289,1.3883321285247803,0.2670610470983956,30.0,186.0
,,"(3, 3)",,,,,,30.0,
B,L,"[3, 2]",1.0,1.0,0.42969489097595215,4.255089998245239,0.6217901774075403,,187.0
R,U,"[2, 2]",-1.0,1.0,0.0694880485534668,5.549575090408325,0.35534387743270135,31.0,188.0
B,L,"[2, 1]",1.0,2.0,0.3934450149536133,1.8445050716400146,0.45004197642853394,31.0,189.0
G,D,"[3, 1]",1.0,3.0,0.5363969802856445,1.957862138748169,0.4079460659421888,31.0,190.0
B,L,"[3, 0]",0.0,3.0,0.24148797988891602,1.6683220863342285,0.42635819185506485,31.0,191.0
R,U,"[2, 0]",0.0,3.0,0.723829984664917,2.006885051727295,0.2835544937631449,31.0,192.0
,,"(3, 3)",,,,,,31.0,
B,L,"[3, 2]",1.0,1.0,0.20862698554992676,7.494506120681763,0.3949725227704691,,193.0
G,D,"[4, 2]",-1.0,0.0,0.26147007942199707,1.8063981533050537,0.5347031379175432,32.0,194.0
Y,R,"[4, 3]",-1.0,-1.0,0.24673104286193848,1.7076470851898193,0.4592511174284151,32.0,195.0
R,U,"[3, 3]",0.0,-1.0,0.28553295135498047,1.787703037261963,0.4969493722350325,32.0,196.0
B,L,"[3, 2]",0.0,-1.0,0.38503193855285645,1.7581849098205566,0.37221495576300034,32.0,197.0
R,U,"[2, 2]",1.0,0.0,0.2599310874938965,1.6388769149780273,0.3777812999526889,32.0,198.0
,,"(3, 3)",,,,,,32.0,
B,L,"[3, 2]",1.0,1.0,0.6411681175231934,5.992832183837891,0.35433033846276946,,199.0
R,U,"[2, 2]",1.0,2.0,0.2905139923095703,1.8500299453735352,0.5543548188118798,33.0,200.0
B,L,"[2, 1]",1.0,3.0,0.22294092178344727,1.845546007156372,0.6165138213228943,33.0,201.0
R,U,"[1, 1]",-1.0,2.0,0.2170100212097168,1.6636638641357422,0.43042720748657265,33.0,202.0
Y,R,"[1, 2]",1.0,3.0,0.3023340702056885,1.7649650573730469,0.44545120607431926,33.0,203.0
G,D,"[2, 2]",0.0,3.0,0.17033910751342773,1.5127089023590088,0.34175980731564837,33.0,204.0
,,"(3, 3)",,,,,,33.0,
B,L,"[3, 2]",1.0,1.0,0.25328803062438965,9.184630870819092,0.7267388640553196,,205.0
R,U,"[2, 2]",1.0,2.0,0.1508021354675293,1.7157480716705322,0.5593750561799071,34.0,206.0
B,L,"[2, 1]",1.0,3.0,0.16503286361694336,1.8607521057128906,0.6868241880384192,34.0,207.0
Y,R,"[2, 2]",0.0,3.0,0.1555190086364746,1.7197329998016357,0.556791916546496,34.0,208.0
G,D,"[3, 2]",0.0,3.0,0.15585899353027344,1.7869288921356201,0.6271112912728978,34.0,209.0
B,L,"[3, 1]",1.0,4.0,0.16940093040466309,1.7229249477386475,0.550204020749401,34.0,210.0
,,"(3, 3)",,,,,,34.0,
B,L,"[3, 2]",1.0,1.0,0.3233799934387207,4.799376010894775,0.44989559875563173,,211.0
R,U,"[2, 2]",1.0,2.0,0.21832585334777832,1.8934149742126465,0.6598600873943983,35.0,212.0
B,L,"[2, 1]",1.0,3.0,0.15805816650390625,1.488403081893921,0.3321752430536005,35.0,213.0
Y,R,"[2, 2]",0.0,3.0,0.23319602012634277,1.915135145187378,0.6801663338737545,35.0,214.0
G,D,"[3, 2]",-1.0,3.0,0.05487203598022461,5.740571022033691,0.5545233549783464,35.0,215.0
G,D,"[4, 2]",-1.0,2.0,0.7754662036895752,2.39162015914917,0.6128402044809016,35.0,216.0
,,"(3, 3)",,,,,,35.0,
B,L,"[3, 2]",1.0,1.0,0.24019503593444824,8.470515012741089,0.3508003431628147,,217.0
Y,R,"[3, 3]",0.0,1.0,0.3333699703216553,1.7287471294403076,0.37979910022808555,36.0,218.0
G,D,"[4, 3]",-1.0,0.0,0.3027620315551758,1.693437099456787,0.3733212633987863,36.0,219.0
R,U,"[3, 3]",0.0,0.0,0.3227689266204834,1.6644539833068848,0.33781479144093846,36.0,220.0
B,L,"[3, 2]",0.0,0.0,0.19209790229797363,1.859144926071167,0.6635004847778075,36.0,221.0
R,U,"[2, 2]",1.0,1.0,0.22031617164611816,1.8700048923492432,0.6335970208575736,36.0,222.0
,,"(3, 3)",,,,,,36.0,
R,U,"[2, 3]",-1.0,-1.0,0.3599529266357422,6.793830871582031,0.44458598262780574,,223.0
B,L,"[2, 2]",1.0,0.0,0.2595388889312744,1.8931598663330078,0.6376988879755107,37.0,224.0
Y,R,"[2, 3]",0.0,0.0,0.16475486755371094,1.5220038890838623,0.3600552924210786,37.0,225.0
R,U,"[1, 3]",1.0,1.0,0.19899702072143555,1.5868809223175049,0.3802357978061633,37.0,226.0
B,L,"[1, 2]",1.0,2.0,0.18109893798828125,1.7355690002441406,0.5491983741387639,37.0,227.0
Y,R,"[1, 3]",0.0,2.0,0.18787097930908203,1.4809908866882324,0.2804027291949423,37.0,228.0
,,"(3, 3)",,,,,,37.0,
B,L,"[3, 2]",1.0,1.0,0.29291296005249023,6.289873123168945,0.7036351197222022,,229.0
Y,R,"[3, 3]",0.0,1.0,0.15649819374084473,1.8231961727142334,0.6603523086917471,38.0,230.0
B,L,"[3, 2]",0.0,1.0,0.18787813186645508,1.6338918209075928,0.44459022557145234,38.0,231.0
R,U,"[2, 2]",1.0,2.0,0.2695779800415039,1.8286190032958984,0.5563628328524217,38.0,232.0
B,L,"[2, 1]",1.0,3.0,0.24640393257141113,1.9281980991363525,0.6846636406436568,38.0,233.0
G,D,"[3, 1]",1.0,4.0,0.18813395500183105,1.7501180171966553,0.5515627837205561,38.0,234.0
,,"(3, 3)",,,,,,38.0,
B,L,"[3, 2]",1.0,1.0,0.27765703201293945,6.6203978061676025,0.6891840023501032,,235.0
Y,R,"[3, 3]",0.0,1.0,0.16550898551940918,1.6553728580474854,0.4946600877974568,39.0,236.0
B,L,"[3, 2]",0.0,1.0,0.19788479804992676,1.5361099243164062,0.347655548477902,39.0,237.0
Y,R,"[3, 3]",0.0,1.0,0.33968114852905273,1.721285104751587,0.3855686629947622,39.0,238.0
R,U,"[2, 3]",-1.0,0.0,0.1702260971069336,1.6673450469970703,0.5031253323509022,39.0,239.0
G,D,"[3, 3]",0.0,0.0,0.16039204597473145,1.9076471328735352,0.7436890307251389,39.0,240.0
,,"(3, 3)",,,,,,39.0,
B,L,"[3, 2]",1.0,1.0,0.4978189468383789,3.3582661151885986,0.7354205788962285,,241.0
Y,R,"[3, 3]",0.0,1.0,0.8789072036743164,2.54512095451355,0.6641128972390008,40.0,242.0
R,U,"[2, 3]",-1.0,0.0,0.2090139389038086,1.7126109600067139,0.4937541724485491,40.0,243.0
B,L,"[2, 2]",1.0,1.0,0.2632789611816406,1.8066508769989014,0.5339857163608972,40.0,244.0
G,D,"[3, 2]",0.0,1.0,0.1717231273651123,1.6889111995697021,0.5062147293977843,40.0,245.0
Y,R,"[3, 3]",0.0,1.0,0.13921618461608887,1.5733058452606201,0.42971543153026165,40.0,246.0
,,"(3, 3)",,,,,,40.0,
B,L,"[3, 2]",1.0,1.0,0.367311954498291,4.736690998077393,0.2834118493405345,,247.0
Y,R,"[3, 3]",0.0,1.0,0.4487650394439697,1.8380239009857178,0.35481687253041244,41.0,248.0
B,L,"[3, 2]",0.0,1.0,0.23096704483032227,1.584378957748413,0.35587809423666666,41.0,249.0
Y,R,"[3, 3]",0.0,1.0,0.39528894424438477,1.9090139865875244,0.514864541862237,41.0,250.0
G,D,"[4, 3]",-1.0,0.0,0.18665719032287598,1.668914794921875,0.4673215879161865,41.0,251.0
R,U,"[3, 3]",0.0,0.0,0.29126691818237305,1.9980409145355225,0.6986469338659489,41.0,252.0
,,"(3, 3)",,,,,,41.0,
B,L,"[3, 2]",1.0,1.0,0.7700610160827637,4.16522216796875,0.547474047443113,,253.0
B,L,"[3, 1]",1.0,2.0,0.25560593605041504,1.754378080368042,0.4852086833088219,42.0,254.0
B,L,"[3, 0]",0.0,2.0,0.2615699768066406,1.93572998046875,0.6708568237740984,42.0,255.0
B,L,"[3, 0]",0.0,2.0,0.2413630485534668,1.7164909839630127,0.47088683512386936,42.0,256.0
Y,R,"[3, 1]",0.0,2.0,0.23294591903686523,1.6471161842346191,0.4181068213331572,42.0,257.0
G,D,"[4, 1]",-1.0,1.0,0.23102712631225586,1.6364009380340576,0.3879225184987249,42.0,258.0
,,"(3, 3)",,,,,,42.0,
B,L,"[3, 2]",1.0,1.0,0.5820968151092529,3.5470831394195557,0.7016930911497241,,259.0
B,L,"[3, 1]",1.0,2.0,0.17757916450500488,1.8173329830169678,0.6359444674307198,43.0,260.0
R,U,"[2, 1]",1.0,3.0,0.198991060256958,1.644968032836914,0.43121315546892014,43.0,261.0
B,L,"[2, 0]",0.0,3.0,0.2810201644897461,1.5957090854644775,0.31018401653175315,43.0,262.0
B,L,"[2, 0]",0.0,3.0,0.5108420848846436,1.7660541534423828,0.2598776309397316,43.0,263.0
R,U,"[1, 0]",0.0,3.0,0.659369945526123,2.3545608520507812,0.6972795943620158,43.0,264.0
,,"(3, 3)",,,,,,43.0,
B,L,"[3, 2]",1.0,1.0,0.30437397956848145,3.9753808975219727,0.5565181577926079,,265.0
B,L,"[3, 1]",1.0,2.0,0.2822420597076416,1.6891019344329834,0.4125688357579941,44.0,266.0
R,U,"[2, 1]",1.0,3.0,0.40775585174560547,1.8525400161743164,0.44860095424134055,44.0,267.0
G,D,"[3, 1]",0.0,3.0,0.2293398380279541,1.9118611812591553,0.6767344556328951,44.0,268.0
B,L,"[3, 0]",0.0,3.0,0.4244401454925537,1.8365330696105957,0.4136272943079786,44.0,269.0
B,L,"[3, 0]",0.0,3.0,0.3102421760559082,1.9141669273376465,0.5943003320812925,44.0,270.0
,,"(3, 3)",,,,,,44.0,
B,L,"[3, 2]",1.0,1.0,0.4771690368652344,3.2567620277404785,0.7343162799493109,,271.0
B,L,"[3, 1]",1.0,2.0,0.21676397323608398,1.54109787940979,0.3092527876333102,45.0,272.0
R,U,"[2, 1]",1.0,3.0,0.5195200443267822,2.003512144088745,0.47940616082270787,45.0,273.0
B,L,"[2, 0]",0.0,3.0,0.28788304328918457,1.694817066192627,0.3910354153290184,45.0,274.0
Y,R,"[2, 1]",0.0,3.0,0.12280011177062988,1.8034899234771729,0.6777149368696659,45.0,275.0
R,U,"[1, 1]",-1.0,2.0,0.16373085975646973,1.7241230010986328,0.5521139555355491,45.0,276.0
,,"(3, 3)",,,,,,45.0,
B,L,"[3, 2]",1.0,1.0,0.5653798580169678,3.6085240840911865,0.7274802218710519,,277.0
B,L,"[3, 1]",1.0,2.0,0.26099491119384766,1.9627339839935303,0.7068271437081513,46.0,278.0
R,U,"[2, 1]",1.0,3.0,0.19588708877563477,1.5539731979370117,0.36120288767711545,46.0,279.0
B,L,"[2, 0]",0.0,3.0,0.2210710048675537,1.9261538982391357,0.7037662846789112,46.0,280.0
Y,R,"[2, 1]",0.0,3.0,0.19265985488891602,1.9248278141021729,0.7288701074599333,46.0,281.0
B,L,"[2, 0]",0.0,3.0,0.20420312881469727,1.8225109577178955,0.6179085147383478,46.0,282.0
,,"(3, 3)",,,,,,46.0,
B,L,"[3, 2]",1.0,1.0,0.3593251705169678,4.176814079284668,0.5618485525315509,,283.0
B,L,"[3, 1]",1.0,2.0,0.24625897407531738,1.5030648708343506,0.26554142166046835,47.0,284.0
R,U,"[2, 1]",1.0,3.0,0.3787240982055664,1.6838548183441162,0.29922678434674005,47.0,285.0
B,L,"[2, 0]",0.0,3.0,0.2733139991760254,1.762984037399292,0.47886346103026417,47.0,286.0
Y,R,"[2, 1]",0.0,3.0,0.17733097076416016,1.6707870960235596,0.4995663070666387,47.0,287.0
G,D,"[3, 1]",0.0,3.0,0.24805903434753418,1.8055880069732666,0.5547461441723422,47.0,288.0
,,"(3, 3)",,,,,,47.0,
B,L,"[3, 2]",1.0,1.0,0.36728596687316895,6.811428070068359,0.5335655157050826,,289.0
B,L,"[3, 1]",1.0,2.0,0.19476795196533203,1.478822946548462,0.27949002600036266,48.0,290.0
R,U,"[2, 1]",1.0,3.0,0.2611730098724365,1.792846918106079,0.5387408556084805,48.0,291.0
B,L,"[2, 0]",0.0,3.0,0.23023200035095215,1.483043909072876,0.2554226598502229,48.0,292.0
Y,R,"[2, 1]",0.0,3.0,0.14250397682189941,1.4806408882141113,0.3359239068740616,48.0,293.0
G,D,"[3, 1]",0.0,3.0,0.20261311531066895,1.6404039859771729,0.4429788010750109,48.0,294.0
,,"(3, 3)",,,,,,48.0,
B,L,"[3, 2]",1.0,1.0,0.6139659881591797,3.4960949420928955,0.40587465814422957,,295.0
B,L,"[3, 1]",1.0,2.0,0.18442201614379883,1.5286710262298584,0.3513972101652902,49.0,296.0
R,U,"[2, 1]",1.0,3.0,0.17925000190734863,1.7276840209960938,0.5458573388480417,49.0,297.0
Y,R,"[2, 2]",1.0,4.0,0.23363995552062988,1.8383269309997559,0.6007443504310659,49.0,298.0
B,L,"[2, 1]",0.0,4.0,0.13585591316223145,1.7454650402069092,0.6130980201407541,49.0,299.0
G,D,"[3, 1]",0.0,4.0,0.16075897216796875,1.731046199798584,0.5606401659607205,49.0,300.0
,,"(3, 3)",,,,,,49.0,
B,L,"[3, 2]",1.0,1.0,0.42208194732666016,3.1198699474334717,0.38096216057927407,,301.0
B,L,"[3, 1]",1.0,2.0,0.2558150291442871,1.9719290733337402,0.7191685720085227,50.0,302.0
R,U,"[2, 1]",1.0,3.0,0.1993699073791504,1.689711093902588,0.492430229894774,50.0,303.0
B,L,"[2, 0]",0.0,3.0,0.31821298599243164,1.936979055404663,0.629619344419083,50.0,304.0
Y,R,"[2, 1]",0.0,3.0,0.17910981178283691,1.542565107345581,0.355833741811683,50.0,305.0
B,L,"[2, 0]",0.0,3.0,0.3306901454925537,1.8872489929199219,0.5596679095146615,50.0,306.0
,,"(3, 3)",,,,,,50.0,
B,L,"[3, 2]",1.0,1.0,0.6782710552215576,3.4121479988098145,0.72190184635613,,307.0
B,L,"[3, 1]",1.0,2.0,0.26482415199279785,1.6025500297546387,0.32482360502847263,51.0,308.0
R,U,"[2, 1]",1.0,3.0,0.2560310363769531,1.8698551654815674,0.6110541240755307,51.0,309.0
Y,R,"[2, 2]",1.0,4.0,0.4095640182495117,1.7965528964996338,0.39130735669289995,51.0,310.0
B,L,"[2, 1]",0.0,4.0,0.3965120315551758,1.956441879272461,0.5641684002807335,51.0,311.0
Y,R,"[2, 2]",0.0,4.0,0.18697381019592285,1.686396837234497,0.5006646904504123,51.0,312.0
,,"(3, 3)",,,,,,51.0,
B,L,"[3, 2]",1.0,1.0,0.434581995010376,2.844148874282837,0.39518371215337134,,313.0
B,L,"[3, 1]",1.0,2.0,0.21932697296142578,1.8327820301055908,0.6114756090173757,52.0,314.0
R,U,"[2, 1]",1.0,3.0,0.18604588508605957,1.8916170597076416,0.7028386733403197,52.0,315.0
B,L,"[2, 0]",0.0,3.0,0.3793010711669922,1.7707319259643555,0.39064303169382003,52.0,316.0
Y,R,"[2, 1]",0.0,3.0,0.1833939552307129,1.829331874847412,0.6529927711841702,52.0,317.0
G,D,"[3, 1]",0.0,3.0,0.1635270118713379,1.588282823562622,0.42503780808950903,52.0,318.0
,,"(3, 3)",,,,,,52.0,
B,L,"[3, 2]",1.0,1.0,0.3748631477355957,2.968658924102783,0.6602687961844036,,319.0
B,L,"[3, 1]",1.0,2.0,0.23967313766479492,1.9851830005645752,0.745304169942375,53.0,320.0
R,U,"[2, 1]",1.0,3.0,0.2072911262512207,1.8321890830993652,0.6277461352925016,53.0,321.0
Y,R,"[2, 2]",1.0,4.0,0.23201203346252441,1.8139970302581787,0.591670833396828,53.0,322.0
B,L,"[2, 1]",0.0,4.0,0.24621009826660156,1.8211641311645508,0.5797315238634673,53.0,323.0
G,D,"[3, 1]",0.0,4.0,0.24305081367492676,1.831162929534912,0.5941726793833988,53.0,324.0
,,"(3, 3)",,,,,,53.0,
B,L,"[3, 2]",1.0,1.0,0.7256860733032227,3.4346179962158203,0.2626081369548324,,325.0
B,L,"[3, 1]",1.0,2.0,0.2240440845489502,1.4893279075622559,0.26882139628267493,54.0,326.0
R,U,"[2, 1]",1.0,3.0,0.36233997344970703,1.7467060089111328,0.38215229977250387,54.0,327.0
Y,R,"[2, 2]",1.0,4.0,0.28124499320983887,1.779237985610962,0.4946997407603899,54.0,328.0
B,L,"[2, 1]",0.0,4.0,0.24663209915161133,1.5636680126190186,0.32528847152233914,54.0,329.0
R,U,"[1, 1]",-1.0,3.0,0.3481130599975586,1.7760579586029053,0.41787606925279436,54.0,330.0
,,"(3, 3)",,,,,,54.0,
B,L,"[3, 2]",1.0,1.0,0.38194799423217773,3.4650509357452393,0.649794307538256,,331.0
B,L,"[3, 1]",1.0,2.0,0.20025205612182617,1.8237318992614746,0.606877663147521,55.0,332.0
R,U,"[2, 1]",1.0,3.0,0.22160696983337402,1.5761351585388184,0.34986843308470505,55.0,333.0
Y,R,"[2, 2]",1.0,4.0,0.22852110862731934,1.8969709873199463,0.6629177418080057,55.0,334.0
B,L,"[2, 1]",-1.0,4.0,0.03766298294067383,5.530772924423218,0.3610623359733235,55.0,335.0
B,L,"[2, 0]",0.0,4.0,0.7328660488128662,1.9759399890899658,0.2540652253029507,55.0,336.0
,,"(3, 3)",,,,,,55.0,
B,L,"[3, 2]",1.0,1.0,0.38825392723083496,9.44738507270813,0.6176706130126973,,337.0
B,L,"[3, 1]",1.0,2.0,0.3639240264892578,2.082916021347046,0.7173147304566666,56.0,338.0
B,L,"[3, 0]",0.0,2.0,0.2559390068054199,1.7284679412841797,0.46289095033094546,56.0,339.0
Y,R,"[3, 1]",0.0,2.0,0.3213019371032715,1.9454059600830078,0.6081197387748521,56.0,340.0
Y,R,"[3, 2]",0.0,2.0,0.24121499061584473,1.5200719833374023,0.27879877711790985,56.0,341.0
G,D,"[4, 2]",-1.0,1.0,0.26236510276794434,1.9781699180603027,0.7231835722253791,56.0,342.0
,,"(3, 3)",,,,,,56.0,
B,L,"[3, 2]",1.0,1.0,0.8372371196746826,3.77412486076355,0.38101548372488603,,343.0
B,L,"[3, 1]",1.0,2.0,0.19501399993896484,1.7971420288085938,0.5947132888385609,57.0,344.0
G,D,"[4, 1]",-1.0,2.0,0.07224798202514648,5.893127918243408,0.7046732464935985,57.0,345.0
B,L,"[4, 0]",0.0,2.0,0.29993200302124023,1.5745790004730225,0.27954225134296984,57.0,346.0
G,D,"[5, 0]",0.0,2.0,0.28958702087402344,1.9050238132476807,0.6177960707118667,57.0,347.0
Y,R,"[5, 1]",-1.0,1.0,0.5007178783416748,1.799206018447876,0.2840683180286585,57.0,348.0
,,"(3, 3)",,,,,,57.0,
B,L,"[3, 2]",1.0,1.0,0.345534086227417,7.35638689994812,0.3905264984511229,,349.0
B,L,"[3, 1]",1.0,2.0,0.23389792442321777,1.7985148429870605,0.5556175131908008,58.0,350.0
G,D,"[4, 1]",-1.0,1.0,0.293010950088501,1.9435079097747803,0.6490420507112311,58.0,351.0
Y,R,"[4, 2]",-1.0,0.0,0.24520516395568848,1.7212700843811035,0.4706193989388194,58.0,352.0
R,U,"[3, 2]",0.0,0.0,0.24949312210083008,1.8469669818878174,0.6010188129457459,58.0,353.0
B,L,"[3, 1]",0.0,0.0,0.1955549716949463,1.6554698944091797,0.4565343460845953,58.0,354.0
,,"(3, 3)",,,,,,58.0,
B,L,"[3, 2]",1.0,1.0,0.5052099227905273,3.76069712638855,0.5337629750852281,,355.0
B,L,"[3, 1]",1.0,2.0,0.20301508903503418,1.939413070678711,0.7232866150043703,59.0,356.0
Y,R,"[3, 2]",0.0,2.0,0.15278005599975586,1.821794033050537,0.6617876516761818,59.0,357.0
B,L,"[3, 1]",0.0,2.0,0.2522428035736084,1.6657660007476807,0.4281603664844601,59.0,358.0
G,D,"[4, 1]",-1.0,1.0,0.5816318988800049,1.998016119003296,0.4096627635086861,59.0,359.0
R,U,"[3, 1]",0.0,1.0,0.3039538860321045,1.852910041809082,0.5456698858326641,59.0,360.0
,,"(3, 3)",,,,,,59.0,
B,L,"[3, 2]",1.0,1.0,0.5987310409545898,3.2357192039489746,0.6977773044220171,,361.0
B,L,"[3, 1]",1.0,2.0,0.17286109924316406,1.9266080856323242,0.7412049313264966,60.0,362.0
Y,R,"[3, 2]",0.0,2.0,0.1962449550628662,1.53358793258667,0.3419543357709483,60.0,363.0
B,L,"[3, 1]",0.0,2.0,0.39507603645324707,1.9915111064910889,0.5999552122246523,60.0,364.0
B,L,"[3, 0]",0.0,2.0,0.2600538730621338,1.898521900177002,0.6317758223441107,60.0,365.0
B,L,"[3, 0]",0.0,2.0,0.30095410346984863,1.7751998901367188,0.4740889050319806,60.0,366.0
,,"(3, 3)",,,,,,60.0,
B,L,"[3, 2]",1.0,1.0,0.7856338024139404,3.913691997528076,0.6544027515762268,,367.0
B,L,"[3, 1]",1.0,2.0,0.2899470329284668,1.619201898574829,0.3238951266844361,61.0,368.0
Y,R,"[3, 2]",0.0,2.0,0.28872203826904297,1.7976000308990479,0.5048338405510324,61.0,369.0
B,L,"[3, 1]",0.0,2.0,0.287708044052124,2.0580880641937256,0.745902120047473,61.0,370.0
B,L,"[3, 0]",0.0,2.0,0.24301481246948242,1.5581719875335693,0.3047083230927474,61.0,371.0
G,D,"[4, 0]",0.0,2.0,0.3828761577606201,1.9130198955535889,0.5340945899678684,61.0,372.0
,,"(3, 3)",,,,,,61.0,
B,L,"[3, 2]",1.0,1.0,0.4470500946044922,3.6148879528045654,0.3994307602641527,,373.0
B,L,"[3, 1]",1.0,2.0,0.22387194633483887,1.928516149520874,0.6942875102291965,62.0,374.0
Y,R,"[3, 2]",0.0,2.0,0.18713998794555664,1.8735039234161377,0.684390200446179,62.0,375.0
B,L,"[3, 1]",0.0,2.0,0.23674488067626953,1.7335808277130127,0.5015434919446522,62.0,376.0
G,D,"[4, 1]",-1.0,1.0,0.23444390296936035,1.5861170291900635,0.3379985659808433,62.0,377.0
R,U,"[3, 1]",0.0,1.0,0.3284270763397217,1.9231269359588623,0.5942541307812887,62.0,378.0
,,"(3, 3)",,,,,,62.0,
B,L,"[3, 2]",1.0,1.0,0.4837009906768799,3.5969650745391846,0.6243948959360618,,379.0
B,L,"[3, 1]",1.0,2.0,0.13495993614196777,1.5359461307525635,0.3938559212307635,63.0,380.0
Y,R,"[3, 2]",0.0,2.0,0.3305490016937256,1.590574026107788,0.2680393047688932,63.0,381.0
B,L,"[3, 1]",0.0,2.0,0.28764891624450684,1.5923559665679932,0.3106026097999881,63.0,382.0
R,U,"[2, 1]",1.0,3.0,0.180372953414917,1.7581901550292969,0.5685047115393393,63.0,383.0
B,L,"[2, 0]",0.0,3.0,0.2106609344482422,1.8199880123138428,0.605028010257695,63.0,384.0
,,"(3, 3)",,,,,,63.0,
B,L,"[3, 2]",1.0,1.0,0.370150089263916,3.532032012939453,0.3042458327826547,,385.0
B,L,"[3, 1]",1.0,2.0,0.4167971611022949,1.9154348373413086,0.486181931362455,64.0,386.0
Y,R,"[3, 2]",0.0,2.0,0.2284832000732422,1.6126289367675781,0.38241888089066073,64.0,387.0
R,U,"[2, 2]",1.0,3.0,0.29984593391418457,1.863684892654419,0.5460458768134608,64.0,388.0
R,U,"[1, 2]",1.0,4.0,0.2450549602508545,1.8742859363555908,0.6201516686877504,64.0,389.0
B,L,"[1, 1]",-1.0,3.0,0.26746082305908203,2.011108160018921,0.7313165633347621,64.0,390.0
,,"(3, 3)",,,,,,64.0,
B,L,"[3, 2]",1.0,1.0,0.5564570426940918,4.592181921005249,0.2908539993071055,,391.0
B,L,"[3, 1]",1.0,2.0,0.23370814323425293,1.7211439609527588,0.4784666563112159,65.0,392.0
Y,R,"[3, 2]",0.0,2.0,0.23808908462524414,1.522346019744873,0.28424087681152893,65.0,393.0
R,U,"[2, 2]",1.0,3.0,0.48294711112976074,1.7734661102294922,0.274411202442044,65.0,394.0
R,U,"[1, 2]",1.0,4.0,0.44029903411865234,1.8758790493011475,0.4335604426332034,65.0,395.0
G,D,"[2, 2]",0.0,4.0,0.31305694580078125,1.6324419975280762,0.31615741441764017,65.0,396.0
,,"(3, 3)",,,,,,65.0,
B,L,"[3, 2]",1.0,1.0,0.5485060214996338,3.196762800216675,0.7460497823038279,,397.0
B,L,"[3, 1]",1.0,2.0,0.3775761127471924,1.8523271083831787,0.46527869584335935,66.0,398.0
Y,R,"[3, 2]",0.0,2.0,0.3019249439239502,1.6634409427642822,0.3455615715326269,66.0,399.0
R,U,"[2, 2]",1.0,3.0,0.3806610107421875,2.067919969558716,0.6798557059422872,66.0,400.0
R,U,"[1, 2]",-1.0,3.0,0.05877494812011719,5.759088039398193,0.5726756282912028,66.0,401.0
B,L,"[1, 1]",-1.0,2.0,0.7066149711608887,2.286876916885376,0.5762167726557983,66.0,402.0
,,"(3, 3)",,,,,,66.0,
B,L,"[3, 2]",-1.0,-1.0,0.45403003692626953,6.0792460441589355,0.30590946205030695,,403.0
G,D,"[4, 2]",1.0,0.0,0.3386061191558838,1.6154391765594482,0.271318528615847,67.0,404.0
G,D,"[5, 2]",1.0,1.0,0.29379916191101074,1.9229490756988525,0.6275293066696419,67.0,405.0
G,D,"[6, 2]",0.0,1.0,0.1870560646057129,1.9042720794677734,0.7149597404877781,67.0,406.0
R,U,"[5, 2]",1.0,2.0,0.23448395729064941,1.70918607711792,0.45776591462638067,67.0,407.0
R,U,"[4, 2]",1.0,3.0,0.2376408576965332,1.6603331565856934,0.4183873020025991,67.0,408.0
,,"(3, 3)",,,,,,67.0,
G,D,"[4, 3]",1.0,1.0,0.8321318626403809,4.244150876998901,0.4294145954016124,,409.0
G,D,"[5, 3]",1.0,2.0,0.3136758804321289,1.740722894668579,0.4367833364682057,68.0,410.0
G,D,"[6, 3]",0.0,2.0,0.5336649417877197,2.2585370540618896,0.6948001164823945,68.0,411.0
R,U,"[5, 3]",1.0,3.0,0.19188714027404785,1.7468090057373047,0.5585745301669595,68.0,412.0
R,U,"[4, 3]",1.0,4.0,0.14899611473083496,1.411417007446289,0.2702960339704204,68.0,413.0
B,L,"[4, 2]",1.0,5.0,0.24126911163330078,1.6156258583068848,0.36920171838862104,68.0,414.0
,,"(3, 3)",,,,,,68.0,
G,D,"[4, 3]",1.0,1.0,0.5391998291015625,7.171526908874512,0.6409534721548572,,415.0
G,D,"[5, 3]",1.0,2.0,0.5020937919616699,2.140486001968384,0.6314933024498908,69.0,416.0
B,L,"[5, 2]",1.0,3.0,0.4972691535949707,1.7938439846038818,0.2922562107016311,69.0,417.0
R,U,"[4, 2]",1.0,4.0,0.7229838371276855,2.171428918838501,0.4469109574810073,69.0,418.0
R,U,"[3, 2]",-1.0,3.0,0.35683393478393555,1.6287519931793213,0.2593349780876783,69.0,419.0
B,L,"[3, 1]",1.0,4.0,0.3051941394805908,2.0319440364837646,0.7240628705934173,69.0,420.0
,,"(3, 3)",,,,,,69.0,
G,D,"[4, 3]",1.0,1.0,0.6848940849304199,3.430730104446411,0.33868262150457557,,421.0
G,D,"[5, 3]",1.0,2.0,0.24477696418762207,1.6080069541931152,0.36340378034873977,70.0,422.0
R,U,"[4, 3]",1.0,3.0,0.30405712127685547,1.6801471710205078,0.37698409634909774,70.0,423.0
R,U,"[3, 3]",-2.0,1.0,0.22186613082885742,1.8610289096832275,0.6377660372749832,70.0,424.0
B,L,"[3, 2]",-1.0,0.0,0.5048868656158447,1.9828150272369385,0.4708337716681939,70.0,425.0
G,D,"[4, 2]",1.0,1.0,0.2577989101409912,1.77634596824646,0.5137864437874999,70.0,426.0
,,"(3, 3)",,,,,,70.0,
G,D,"[4, 3]",1.0,1.0,0.6048800945281982,4.961385011672974,0.625082803266852,,427.0
G,D,"[5, 3]",1.0,2.0,0.9004929065704346,2.2579360008239746,0.3499930493830294,71.0,428.0
B,L,"[5, 2]",1.0,3.0,0.8369519710540771,2.3673760890960693,0.5172429658286789,71.0,429.0
G,D,"[6, 2]",-2.0,3.0,2.3067469596862793,3.983534097671509,0.6174682843138156,71.0,430.0
G,D,"[6, 2]",0.0,3.0,0.7409770488739014,2.4719789028167725,0.7228976165508458,71.0,431.0
B,L,"[6, 1]",-2.0,3.0,1.102653980255127,2.866572141647339,0.7394001621704454,71.0,432.0
,,"(3, 3)",,,,,,71.0,
G,D,"[4, 3]",1.0,1.0,0.6522819995880127,4.2001190185546875,0.5566645638726819,,433.0
G,D,"[5, 3]",1.0,2.0,0.2402949333190918,1.665158987045288,0.4220027733479345,72.0,434.0
G,D,"[6, 3]",0.0,2.0,0.37862610816955566,1.914111852645874,0.5361715245816244,72.0,435.0
B,L,"[6, 2]",0.0,2.0,0.3969230651855469,1.9034838676452637,0.5062898555647073,72.0,436.0
R,U,"[5, 2]",1.0,3.0,0.3666970729827881,1.8624451160430908,0.48538888774286437,72.0,437.0
R,U,"[4, 2]",1.0,4.0,0.33341383934020996,1.7470760345458984,0.3992414561486012,72.0,438.0
,,"(3, 3)",,,,,,72.0,
G,D,"[4, 3]",1.0,1.0,0.523231029510498,19.051981210708618,0.4351769004668558,,439.0
G,D,"[5, 3]",1.0,2.0,0.2063579559326172,1.634490966796875,0.4197498112787842,73.0,440.0
B,L,"[5, 2]",1.0,3.0,0.2877190113067627,1.7637720108032227,0.4667421315005128,73.0,441.0
B,L,"[5, 1]",-1.0,2.0,0.4621541500091553,2.141089916229248,0.6741358662309698,73.0,442.0
R,U,"[4, 1]",1.0,3.0,0.26191115379333496,1.8199348449707031,0.5443037793700904,73.0,443.0
R,U,"[3, 1]",1.0,4.0,0.23565912246704102,1.7771170139312744,0.5381262332911128,73.0,444.0
,,"(3, 3)",,,,,,73.0,
G,D,"[4, 3]",1.0,1.0,0.6122348308563232,3.355370044708252,0.39394953200547944,,445.0
G,D,"[5, 3]",1.0,2.0,0.2183239459991455,1.68123197555542,0.45857947514403785,74.0,446.0
B,L,"[5, 2]",1.0,3.0,0.30878496170043945,1.676734209060669,0.368697496696362,74.0,447.0
G,D,"[6, 2]",0.0,3.0,0.7725791931152344,2.457413911819458,0.6758733542775195,74.0,448.0
R,U,"[5, 2]",1.0,4.0,0.20381402969360352,1.5115752220153809,0.30465549113947393,74.0,449.0
R,U,"[4, 2]",1.0,5.0,0.23903298377990723,1.6874139308929443,0.4418218496969691,74.0,450.0
,,"(3, 3)",,,,,,74.0,
G,D,"[4, 3]",1.0,1.0,0.473416805267334,4.561989068984985,0.5872169170613231,,451.0
G,D,"[5, 3]",1.0,2.0,0.22718405723571777,1.6681020259857178,0.4387520070241956,75.0,452.0
B,L,"[5, 2]",1.0,3.0,0.4318249225616455,2.0553648471832275,0.6273147881803571,75.0,453.0
G,D,"[6, 2]",0.0,3.0,0.7358019351959229,2.1630208492279053,0.4239624303048577,75.0,454.0
R,U,"[5, 2]",1.0,4.0,0.20840191841125488,1.7457799911499023,0.5363446929612796,75.0,455.0
R,U,"[4, 2]",1.0,5.0,0.24643802642822266,1.6984360218048096,0.4516637283181819,75.0,456.0
,,"(3, 3)",,,,,,75.0,
G,D,"[4, 3]",1.0,1.0,0.5213258266448975,3.5766351222991943,0.611429427374989,,457.0
G,D,"[5, 3]",1.0,2.0,0.23063111305236816,1.5580720901489258,0.33638943584771175,76.0,458.0
B,L,"[5, 2]",1.0,3.0,0.6400148868560791,2.243896961212158,0.5966726827567351,76.0,459.0
Y,R,"[5, 3]",1.0,4.0,0.2573740482330322,1.7238578796386719,0.45413546656864867,76.0,460.0
R,U,"[4, 3]",1.0,5.0,0.37355804443359375,1.6523687839508057,0.2733641274649115,76.0,461.0
R,U,"[3, 3]",-2.0,3.0,0.3325321674346924,1.6495380401611328,0.3061779399987283,76.0,462.0
,,"(3, 3)",,,,,,76.0,
G,D,"[4, 3]",1.0,1.0,0.5787358283996582,4.701879978179932,0.7078504933378997,,463.0
G,D,"[5, 3]",1.0,2.0,0.25390100479125977,1.5668318271636963,0.30836630993056346,77.0,464.0
B,L,"[5, 2]",1.0,3.0,0.6460959911346436,2.133090019226074,0.49137844561599436,77.0,465.0
G,D,"[6, 2]",0.0,3.0,0.2599959373474121,1.766875982284546,0.5083390226152393,77.0,466.0
R,U,"[5, 2]",1.0,4.0,0.22440385818481445,1.8340001106262207,0.6089385065696187,77.0,467.0
R,U,"[4, 2]",1.0,5.0,0.20605993270874023,1.7964060306549072,0.5886976473249463,77.0,468.0
,,"(3, 3)",,,,,,77.0,
G,D,"[4, 3]",1.0,1.0,0.5810198783874512,3.989392042160034,0.7447627429763085,,469.0
G,D,"[5, 3]",1.0,2.0,0.21187281608581543,1.5355620384216309,0.33072819910544177,78.0,470.0
B,L,"[5, 2]",1.0,3.0,0.21683311462402344,1.5334420204162598,0.29750408751057833,78.0,471.0
G,D,"[6, 2]",0.0,3.0,0.2526829242706299,1.9289422035217285,0.6595254041881811,78.0,472.0
R,U,"[5, 2]",1.0,4.0,0.2029709815979004,1.6649560928344727,0.4579332489965657,78.0,473.0
R,U,"[4, 2]",1.0,5.0,0.15344500541687012,1.649630069732666,0.49103542719364884,78.0,474.0
,,"(3, 3)",,,,,,78.0,
Y,R,"[3, 4]",-2.0,0.0,1.2436020374298096,3.867316961288452,0.35876579608626386,,475.0
Y,R,"[3, 5]",-1.0,-1.0,0.5709021091461182,2.1145381927490234,0.5399185340292277,79.0,476.0
B,L,"[3, 4]",-1.0,-2.0,0.2833108901977539,1.7483470439910889,0.4548157525098167,79.0,477.0
G,D,"[4, 4]",-1.0,-3.0,0.27834296226501465,1.8924808502197266,0.613891551287678,79.0,478.0
R,U,"[3, 4]",-1.0,-4.0,0.32251906394958496,1.7201950550079346,0.3841998842273024,79.0,479.0
G,D,"[4, 4]",-1.0,-5.0,0.2777431011199951,1.5391819477081299,0.25682753436908007,79.0,480.0
,,"(3, 3)",,,,,,79.0,
G,D,"[4, 3]",1.0,1.0,0.692086935043335,4.267575025558472,0.27456550341377384,,481.0
G,D,"[5, 3]",1.0,2.0,0.4180469512939453,1.8015170097351074,0.3761676794632414,80.0,482.0
B,L,"[5, 2]",1.0,3.0,0.2280130386352539,1.5621159076690674,0.3381467971981206,80.0,483.0
G,D,"[6, 2]",0.0,3.0,0.3583230972290039,1.99326491355896,0.6312342190296854,80.0,484.0
R,U,"[5, 2]",1.0,4.0,0.19549989700317383,1.7221481800079346,0.520210557116171,80.0,485.0
R,U,"[4, 2]",1.0,5.0,0.22585201263427734,1.8507800102233887,0.6209549316589456,80.0,486.0
,,"(3, 3)",,,,,,80.0,
G,D,"[4, 3]",1.0,1.0,0.520535945892334,4.263204097747803,0.5509756285583507,,487.0
G,D,"[5, 3]",1.0,2.0,0.2474370002746582,1.6996259689331055,0.4341851036801213,81.0,488.0
B,L,"[5, 2]",1.0,3.0,0.22560596466064453,1.840620994567871,0.6079425881077716,81.0,489.0
G,D,"[6, 2]",0.0,3.0,0.21123504638671875,1.6432609558105469,0.43481834876229325,81.0,490.0
R,U,"[5, 2]",1.0,4.0,0.17037606239318848,1.5827360153198242,0.4008169083125284,81.0,491.0
R,U,"[4, 2]",1.0,5.0,0.2259960174560547,1.8261799812316895,0.593509091115991,81.0,492.0
,,"(3, 3)",,,,,,81.0,
G,D,"[4, 3]",1.0,1.0,0.4806060791015625,3.4837520122528076,0.3777981321257748,,493.0
G,D,"[5, 3]",-1.0,1.0,0.03320789337158203,5.773666143417358,0.6178123246602334,82.0,494.0
G,D,"[6, 3]",0.0,1.0,0.6360340118408203,2.301801919937134,0.6530904485593083,82.0,495.0
B,L,"[6, 2]",0.0,1.0,0.3362457752227783,2.0031960010528564,0.6728370242913579,82.0,496.0
G,D,"[6, 2]",0.0,1.0,0.21571016311645508,1.928412914276123,0.7180330866378544,82.0,497.0
R,U,"[5, 2]",1.0,2.0,0.2919769287109375,1.9654438495635986,0.666779763880413,82.0,498.0
,,"(3, 3)",,,,,,82.0,
R,U,"[2, 3]",-1.0,-1.0,0.8294310569763184,7.8481550216674805,0.6318331124905509,,499.0
Y,R,"[2, 4]",-1.0,-2.0,0.2379472255706787,1.6060009002685547,0.37166622312036407,83.0,500.0
G,D,"[3, 4]",-1.0,-3.0,0.22260499000549316,1.9023070335388184,0.6736538825797622,83.0,501.0
G,D,"[4, 4]",-1.0,-4.0,0.14771318435668945,1.4663472175598145,0.30715262870613447,83.0,502.0
B,L,"[4, 3]",1.0,-3.0,0.20123696327209473,1.8016588687896729,0.5918270835540105,83.0,503.0
B,L,"[4, 2]",1.0,-2.0,0.2501978874206543,1.693199872970581,0.4353768002440013,83.0,504.0
,,"(3, 3)",,,,,,83.0,
B,L,"[3, 2]",-1.0,-1.0,0.8340249061584473,3.3863768577575684,0.5047953122081045,,505.0
G,D,"[4, 2]",1.0,0.0,0.23581409454345703,1.8192720413208008,0.5739957714917774,84.0,506.0
G,D,"[5, 2]",1.0,1.0,0.19649791717529297,1.9322259426116943,0.7394727631765787,84.0,507.0
G,D,"[6, 2]",0.0,1.0,0.20398187637329102,1.6684999465942383,0.4583165823161029,84.0,508.0
R,U,"[5, 2]",1.0,2.0,0.3434309959411621,2.0351009368896484,0.6933053303167058,84.0,509.0
R,U,"[4, 2]",1.0,3.0,0.21427607536315918,1.7951431274414062,0.5885245750780235,84.0,510.0
,,"(3, 3)",,,,,,84.0,
G,D,"[4, 3]",1.0,1.0,0.3370389938354492,4.734983921051025,0.30724299839406854,,511.0
G,D,"[5, 3]",1.0,2.0,0.32507991790771484,1.8447210788726807,0.518378524693962,85.0,512.0
B,L,"[5, 2]",1.0,3.0,0.2141880989074707,1.8611559867858887,0.6462097043955125,85.0,513.0
R,U,"[4, 2]",1.0,4.0,0.2564830780029297,1.7835149765014648,0.5131651257025891,85.0,514.0
R,U,"[3, 2]",-1.0,3.0,0.5531249046325684,2.1788511276245117,0.6087400452067429,85.0,515.0
G,D,"[4, 2]",1.0,4.0,0.17568302154541016,1.715975046157837,0.5413402823397461,85.0,516.0
,,"(3, 3)",,,,,,85.0,
G,D,"[4, 3]",1.0,1.0,0.6909449100494385,3.325019121170044,0.416583191616654,,517.0
G,D,"[5, 3]",1.0,2.0,0.24482202529907227,1.860002040863037,0.6098254566724073,86.0,518.0
B,L,"[5, 2]",1.0,3.0,0.24196481704711914,1.657454013824463,0.41742224702922814,86.0,519.0
G,D,"[6, 2]",0.0,3.0,0.5293939113616943,2.1976840496063232,0.6649813618732092,86.0,520.0
R,U,"[5, 2]",1.0,4.0,0.18419599533081055,1.5665459632873535,0.3651256770746948,86.0,521.0
R,U,"[4, 2]",1.0,5.0,0.27575111389160156,1.6359059810638428,0.3512109549081783,86.0,522.0
,,"(3, 3)",,,,,,86.0,
G,D,"[4, 3]",1.0,1.0,0.5976319313049316,3.6049211025238037,0.3895004815095951,,523.0
G,D,"[5, 3]",1.0,2.0,0.47149205207824707,2.0038089752197266,0.5263200541782067,87.0,524.0
B,L,"[5, 2]",1.0,3.0,0.2595958709716797,1.5095760822296143,0.2530125736847352,87.0,525.0
G,D,"[6, 2]",0.0,3.0,0.38101887702941895,2.0942890644073486,0.7136054779678495,87.0,526.0
R,U,"[5, 2]",1.0,4.0,0.25606703758239746,1.6023130416870117,0.33299306911816895,87.0,527.0
R,U,"[4, 2]",1.0,5.0,0.36503100395202637,1.993028163909912,0.6257752674216692,87.0,528.0
,,"(3, 3)",,,,,,87.0,
G,D,"[4, 3]",1.0,1.0,0.7431972026824951,3.2232089042663574,0.34931541331916655,,529.0
G,D,"[5, 3]",1.0,2.0,0.25760793685913086,1.782869815826416,0.5153864182737501,88.0,530.0
B,L,"[5, 2]",1.0,3.0,0.2094440460205078,1.8832521438598633,0.6652988393464218,88.0,531.0
G,D,"[6, 2]",-1.0,3.0,0.05853605270385742,5.66043496131897,0.4761213993085218,88.0,532.0
G,D,"[6, 2]",0.0,3.0,0.5443189144134521,1.9616148471832275,0.42119424047476467,88.0,533.0
B,L,"[6, 1]",0.0,3.0,0.4106597900390625,2.0583698749542236,0.6459150689437131,88.0,534.0
,,"(3, 3)",,,,,,88.0,
G,D,"[4, 3]",1.0,1.0,0.46985507011413574,4.122614145278931,0.4186884891865403,,535.0
G,D,"[5, 3]",1.0,2.0,0.38842105865478516,1.737494945526123,0.3398228414386798,89.0,536.0
B,L,"[5, 2]",1.0,3.0,0.3603940010070801,1.8770298957824707,0.5164752355322401,89.0,537.0
G,D,"[6, 2]",0.0,3.0,0.22288107872009277,1.534210205078125,0.3010669040833566,89.0,538.0
R,U,"[5, 2]",1.0,4.0,0.24773597717285156,1.923827886581421,0.6578767683985203,89.0,539.0
R,U,"[4, 2]",1.0,5.0,0.16803288459777832,1.7812230587005615,0.6058890126388798,89.0,540.0
,,"(3, 3)",,,,,,89.0,
G,D,"[4, 3]",1.0,1.0,0.6791870594024658,3.5600459575653076,0.4994251509613412,,541.0
G,D,"[5, 3]",1.0,2.0,0.22825407981872559,1.5385382175445557,0.3048275364189182,90.0,542.0
B,L,"[5, 2]",1.0,3.0,0.2862229347229004,1.5490000247955322,0.25385564874980354,90.0,543.0
G,D,"[6, 2]",0.0,3.0,0.36392688751220703,1.9007861614227295,0.5377586749131466,90.0,544.0
R,U,"[5, 2]",1.0,4.0,0.20203804969787598,1.5396010875701904,0.32755023577130676,90.0,545.0
R,U,"[4, 2]",1.0,5.0,0.22983598709106445,1.9157500267028809,0.6931359216650236,90.0,546.0
,,"(3, 3)",,,,,,90.0,
G,D,"[4, 3]",1.0,1.0,0.3885841369628906,4.954442024230957,0.5311669142494024,,547.0
G,D,"[5, 3]",1.0,2.0,0.24576592445373535,1.857856035232544,0.6054450041389619,91.0,548.0
B,L,"[5, 2]",1.0,3.0,0.19615507125854492,1.601158857345581,0.4070208235863116,91.0,549.0
G,D,"[6, 2]",0.0,3.0,0.26399707794189453,1.90348219871521,0.643528819343133,91.0,550.0
R,U,"[5, 2]",1.0,4.0,0.18297100067138672,1.481550931930542,0.29211890608535684,91.0,551.0
R,U,"[4, 2]",1.0,5.0,0.26165103912353516,1.976222038269043,0.7179440663266741,91.0,552.0
,,"(3, 3)",,,,,,91.0,
G,D,"[4, 3]",1.0,1.0,0.4330720901489258,4.573448181152344,0.5083867551636576,,553.0
G,D,"[5, 3]",1.0,2.0,0.2158219814300537,1.5781989097595215,0.37012362691875633,92.0,554.0
B,L,"[5, 2]",1.0,3.0,0.2945249080657959,1.8670101165771484,0.570246377627557,92.0,555.0
G,D,"[6, 2]",0.0,3.0,0.2121131420135498,1.93951416015625,0.7263472739517703,92.0,556.0
R,U,"[5, 2]",1.0,4.0,0.19081401824951172,1.536309003829956,0.34636781720420506,92.0,557.0
R,U,"[4, 2]",1.0,5.0,0.19586586952209473,1.5345790386199951,0.33123332477884077,92.0,558.0
,,"(3, 3)",,,,,,92.0,
G,D,"[4, 3]",1.0,1.0,0.40723705291748047,4.340335130691528,0.6044358026499008,,559.0
G,D,"[5, 3]",1.0,2.0,0.2196500301361084,1.8310680389404297,0.6022325057901349,93.0,560.0
B,L,"[5, 2]",1.0,3.0,0.24417400360107422,1.946385145187378,0.6985704113536639,93.0,561.0
G,D,"[6, 2]",-1.0,3.0,0.04492807388305664,5.799397945404053,0.6315655070429864,93.0,562.0
G,D,"[6, 2]",0.0,3.0,0.7272350788116455,2.0263688564300537,0.2915827712587947,93.0,563.0
B,L,"[6, 1]",0.0,3.0,0.5835120677947998,1.9992249011993408,0.4240216951560607,93.0,564.0
,,"(3, 3)",,,,,,93.0,
G,D,"[4, 3]",1.0,1.0,0.547652006149292,4.752708196640015,0.6266032853553622,,565.0
G,D,"[5, 3]",1.0,2.0,0.2958710193634033,1.5605220794677734,0.27089130215154666,94.0,566.0
B,L,"[5, 2]",1.0,3.0,0.5675609111785889,1.8672850131988525,0.2880953786955902,94.0,567.0
G,D,"[6, 2]",0.0,3.0,0.41872501373291016,1.6971640586853027,0.26879951977430494,94.0,568.0
R,U,"[5, 2]",1.0,4.0,0.2687249183654785,1.9726738929748535,0.6909883157596397,94.0,569.0
R,U,"[4, 2]",1.0,5.0,0.21120500564575195,1.6741678714752197,0.46543162916489306,94.0,570.0
,,"(3, 3)",,,,,,94.0,
G,D,"[4, 3]",1.0,1.0,0.8080780506134033,3.61124587059021,0.4934141905624517,,571.0
G,D,"[5, 3]",1.0,2.0,0.2449359893798828,1.7294831275939941,0.48960755711643017,95.0,572.0
B,L,"[5, 2]",1.0,3.0,0.25966405868530273,1.7442419528961182,0.4838373164720893,95.0,573.0
G,D,"[6, 2]",0.0,3.0,0.23571205139160156,1.6298949718475342,0.3807169250072598,95.0,574.0
R,U,"[5, 2]",1.0,4.0,0.2513549327850342,1.5443499088287354,0.27510386906658135,95.0,575.0
R,U,"[4, 2]",1.0,5.0,0.33525705337524414,1.8260140419006348,0.48417713432859716,95.0,576.0
,,"(3, 3)",,,,,,95.0,
G,D,"[4, 3]",1.0,1.0,0.5524640083312988,5.5165979862213135,0.5507109862541684,,577.0
G,D,"[5, 3]",1.0,2.0,0.2184159755706787,1.7729179859161377,0.5404199309611932,96.0,578.0
B,L,"[5, 2]",1.0,3.0,0.24276185035705566,1.6027448177337646,0.3602442907028048,96.0,579.0
G,D,"[6, 2]",0.0,3.0,0.3839590549468994,1.6705169677734375,0.2806622370634141,96.0,580.0
R,U,"[5, 2]",1.0,4.0,0.2834439277648926,1.7614948749542236,0.45865144073143027,96.0,581.0
R,U,"[4, 2]",1.0,5.0,0.24279999732971191,1.910153865814209,0.6687667240276255,96.0,582.0
,,"(3, 3)",,,,,,96.0,
G,D,"[4, 3]",1.0,1.0,0.6933188438415527,4.137380123138428,0.3563469561298722,,583.0
B,L,"[4, 2]",1.0,2.0,0.21677207946777344,1.929826021194458,0.7025580229981134,97.0,584.0
Y,R,"[4, 3]",1.0,3.0,0.2586700916290283,1.7007710933685303,0.4370719862792606,97.0,585.0
B,L,"[4, 2]",-2.0,3.0,1.1057782173156738,2.3849661350250244,0.2555042446802463,97.0,586.0
G,D,"[5, 2]",1.0,4.0,0.6843791007995605,2.34891414642334,0.6542334300051749,97.0,587.0
B,L,"[5, 1]",-1.0,3.0,0.21863102912902832,1.8444058895111084,0.615567295195893,97.0,588.0
,,"(3, 3)",,,,,,97.0,
G,D,"[4, 3]",1.0,1.0,0.600208044052124,3.6212759017944336,0.5866943824632342,,589.0
B,L,"[4, 2]",1.0,2.0,0.27895188331604004,1.8668620586395264,0.5872110764817682,98.0,590.0
Y,R,"[4, 3]",1.0,3.0,0.23346805572509766,1.8073158264160156,0.5611366650784013,98.0,591.0
G,D,"[5, 3]",1.0,4.0,0.2475440502166748,1.941282033920288,0.7023422902913288,98.0,592.0
R,U,"[4, 3]",1.0,5.0,0.227463960647583,1.6635611057281494,0.4328895649770479,98.0,593.0
R,U,"[3, 3]",-2.0,3.0,0.222092866897583,1.8847589492797852,0.6507541531153461,98.0,594.0
,,"(3, 3)",,,,,,98.0,
G,D,"[4, 3]",1.0,1.0,0.52264404296875,4.060884952545166,0.5947965147015204,,595.0
B,L,"[4, 2]",1.0,2.0,0.2518489360809326,1.930617094039917,0.6754255755883285,99.0,596.0
Y,R,"[4, 3]",1.0,3.0,0.2016439437866211,1.9438729286193848,0.7358317635601999,99.0,597.0
G,D,"[5, 3]",1.0,4.0,0.25673794746398926,1.7829599380493164,0.5192613698883657,99.0,598.0
R,U,"[4, 3]",1.0,5.0,0.2621910572052002,1.6144781112670898,0.35049437671476746,99.0,599.0
B,L,"[4, 2]",1.0,6.0,0.23676204681396484,1.889786958694458,0.640148612858601,99.0,600.0
,,"(3, 3)",,,,,,99.0,
G,D,"[4, 3]",1.0,1.0,0.5904979705810547,10.63088607788086,0.5715489707213826,,601.0
B,L,"[4, 2]",1.0,2.0,0.19540095329284668,1.506037950515747,0.311010137177234,100.0,602.0
Y,R,"[4, 3]",1.0,3.0,0.26938796043395996,1.778782844543457,0.5062950933683992,100.0,603.0
G,D,"[5, 3]",1.0,4.0,0.1992781162261963,1.5910329818725586,0.39739670455721043,100.0,604.0
R,U,"[4, 3]",1.0,5.0,0.23009586334228516,1.960582971572876,0.7242255400992359,100.0,605.0
B,L,"[4, 2]",1.0,6.0,0.19326519966125488,1.6131198406219482,0.42098537528674207,100.0,606.0
,,"(3, 3)",,,,,,100.0,
G,D,"[4, 3]",1.0,1.0,0.6304998397827148,4.100336790084839,0.45501900749847013,,607.0
B,L,"[4, 2]",1.0,2.0,0.25659608840942383,1.8468308448791504,0.5847756825277644,101.0,608.0
Y,R,"[4, 3]",1.0,3.0,0.22202801704406738,1.6080670356750488,0.3765384287137858,101.0,609.0
G,D,"[5, 3]",1.0,4.0,0.5378749370574951,1.9150910377502441,0.37487347332157245,101.0,610.0
R,U,"[4, 3]",1.0,5.0,0.3163578510284424,1.8308050632476807,0.5223731899110029,101.0,611.0
B,L,"[4, 2]",1.0,6.0,0.3240389823913574,1.5949199199676514,0.26749122603672637,101.0,612.0
,,"(3, 3)",,,,,,101.0,
G,D,"[4, 3]",1.0,1.0,0.43308591842651367,4.062774896621704,0.4967798647055754,,613.0
B,L,"[4, 2]",1.0,2.0,0.29665684700012207,1.7947101593017578,0.4915565057038195,102.0,614.0
Y,R,"[4, 3]",1.0,3.0,0.23426008224487305,1.7409050464630127,0.4993604402047346,102.0,615.0
G,D,"[5, 3]",1.0,4.0,0.2714087963104248,1.6233420372009277,0.33936339173083246,102.0,616.0
R,U,"[4, 3]",1.0,5.0,0.3529999256134033,1.890653133392334,0.5299471267760806,102.0,617.0
B,L,"[4, 2]",1.0,6.0,0.2297229766845703,1.819843053817749,0.5831057105022988,102.0,618.0
,,"(3, 3)",,,,,,102.0,
G,D,"[4, 3]",1.0,1.0,0.5495529174804688,3.117133855819702,0.2507154068239639,,619.0
B,L,"[4, 2]",1.0,2.0,0.4535529613494873,1.9244279861450195,0.4582369876441234,103.0,620.0
Y,R,"[4, 3]",1.0,3.0,0.23903584480285645,1.6268699169158936,0.38516395993144964,103.0,621.0
G,D,"[5, 3]",1.0,4.0,0.29874420166015625,1.6041088104248047,0.3059689955977916,103.0,622.0
R,U,"[4, 3]",1.0,5.0,0.23693299293518066,1.8145859241485596,0.570549082443446,103.0,623.0
B,L,"[4, 2]",1.0,6.0,0.21934103965759277,1.6446340084075928,0.41534454797647685,103.0,624.0
,,"(3, 3)",,,,,,103.0,
G,D,"[4, 3]",1.0,1.0,0.4530181884765625,3.866190195083618,0.29817266516371144,,625.0
B,L,"[4, 2]",1.0,2.0,0.2676539421081543,1.8405449390411377,0.5718687454401217,104.0,626.0
Y,R,"[4, 3]",1.0,3.0,0.29854917526245117,2.003740072250366,0.7087383109571967,104.0,627.0
G,D,"[5, 3]",1.0,4.0,0.16449999809265137,1.4520559310913086,0.294531858327077,104.0,628.0
R,U,"[4, 3]",1.0,5.0,0.23659515380859375,1.6262400150299072,0.38731473049626836,104.0,629.0
B,L,"[4, 2]",1.0,6.0,0.21435093879699707,1.5422840118408203,0.3298714823226773,104.0,630.0
,,"(3, 3)",,,,,,104.0,
G,D,"[4, 3]",1.0,1.0,0.5099360942840576,3.2418630123138428,0.6047755661281116,,631.0
B,L,"[4, 2]",1.0,2.0,0.35517001152038574,1.6662631034851074,0.3215608593221241,105.0,632.0
Y,R,"[4, 3]",1.0,3.0,0.47760510444641113,1.9485950469970703,0.4698871267143331,105.0,633.0
G,D,"[5, 3]",1.0,4.0,0.3296809196472168,1.802004098892212,0.471820326654488,105.0,634.0
R,U,"[4, 3]",1.0,5.0,0.2505831718444824,1.639070987701416,0.3778254617962755,105.0,635.0
B,L,"[4, 2]",1.0,6.0,0.430452823638916,2.0352728366851807,0.6127590705239292,105.0,636.0
,,"(3, 3)",,,,,,105.0,
G,D,"[4, 3]",1.0,1.0,0.40265989303588867,3.5249269008636475,0.721092603312286,,637.0
B,L,"[4, 2]",1.0,2.0,0.21065115928649902,1.8755369186401367,0.6631606902254932,106.0,638.0
Y,R,"[4, 3]",1.0,3.0,0.2097151279449463,1.8854999542236328,0.6654756520049263,106.0,639.0
G,D,"[5, 3]",1.0,4.0,0.18740296363830566,1.7435839176177979,0.5424291565051953,106.0,640.0
R,U,"[4, 3]",1.0,5.0,0.4009888172149658,1.7548930644989014,0.34768587908081106,106.0,641.0
B,L,"[4, 2]",1.0,6.0,0.42658305168151855,1.7655081748962402,0.33003205174953726,106.0,642.0
,,"(3, 3)",,,,,,106.0,
G,D,"[4, 3]",1.0,1.0,0.5433578491210938,3.5601370334625244,0.2901243874104712,,643.0
B,L,"[4, 2]",1.0,2.0,0.30217981338500977,1.998655080795288,0.6883377566858734,107.0,644.0
Y,R,"[4, 3]",1.0,3.0,0.20945000648498535,1.652669906616211,0.4413675434656609,107.0,645.0
G,D,"[5, 3]",1.0,4.0,0.22812414169311523,1.5368058681488037,0.3115641338838372,107.0,646.0
R,U,"[4, 3]",1.0,5.0,0.2456798553466797,1.5462191104888916,0.3077837815097818,107.0,647.0
B,L,"[4, 2]",1.0,6.0,0.27184104919433594,1.9406230449676514,0.6648138961671461,107.0,648.0
,,"(3, 3)",,,,,,107.0,
G,D,"[4, 3]",1.0,1.0,0.3920891284942627,3.6878581047058105,0.5526841164979227,,649.0
B,L,"[4, 2]",1.0,2.0,0.22559285163879395,1.5879030227661133,0.3576311038817149,108.0,650.0
Y,R,"[4, 3]",1.0,3.0,0.28040599822998047,1.9965178966522217,0.7205158060594699,108.0,651.0
G,D,"[5, 3]",1.0,4.0,0.19750094413757324,1.6237430572509766,0.4279259498786132,108.0,652.0
R,U,"[4, 3]",1.0,5.0,0.296051025390625,1.6744980812072754,0.3857061834897796,108.0,653.0
B,L,"[4, 2]",1.0,6.0,0.2177579402923584,1.5277230739593506,0.29692175659217923,108.0,654.0
,,"(3, 3)",,,,,,108.0,
G,D,"[4, 3]",1.0,1.0,0.7835619449615479,2.938253164291382,0.48527069534370126,,655.0
B,L,"[4, 2]",1.0,2.0,0.3350260257720947,1.937168836593628,0.5889956872286545,109.0,656.0
Y,R,"[4, 3]",1.0,3.0,0.2165980339050293,1.8543338775634766,0.609796279858866,109.0,657.0
G,D,"[5, 3]",1.0,4.0,0.322113037109375,2.066990852355957,0.7433308360004852,109.0,658.0
R,U,"[4, 3]",1.0,5.0,0.21506500244140625,1.6974530220031738,0.49112548664314337,109.0,659.0
B,L,"[4, 2]",1.0,6.0,0.3083629608154297,1.6597929000854492,0.35104850632466683,109.0,660.0
,,"(3, 3)",,,,,,109.0,
G,D,"[4, 3]",1.0,1.0,0.4248371124267578,3.776409149169922,0.4106630193403183,,661.0
B,L,"[4, 2]",1.0,2.0,0.23210716247558594,1.5318419933319092,0.2929248859590198,110.0,662.0
Y,R,"[4, 3]",1.0,3.0,0.41588902473449707,1.8977792263031006,0.47384758835535296,110.0,663.0
G,D,"[5, 3]",1.0,4.0,0.318972110748291,1.6071770191192627,0.2810841824781424,110.0,664.0
R,U,"[4, 3]",1.0,5.0,0.43941497802734375,1.7737290859222412,0.32170696487953176,110.0,665.0
B,L,"[4, 2]",1.0,6.0,0.45477890968322754,2.1090850830078125,0.6470873548375738,110.0,666.0
,,"(3, 3)",,,,,,110.0,
G,D,"[4, 3]",1.0,1.0,0.5735468864440918,6.255321979522705,0.4859594396090272,,667.0
B,L,"[4, 2]",1.0,2.0,0.2303159236907959,1.5941321849822998,0.3634874893829471,111.0,668.0
Y,R,"[4, 3]",1.0,3.0,0.2943410873413086,1.9465279579162598,0.6435808225657265,111.0,669.0
G,D,"[5, 3]",1.0,4.0,0.20494794845581055,1.6192731857299805,0.41281014184766246,111.0,670.0
R,U,"[4, 3]",1.0,5.0,0.18174099922180176,1.8878259658813477,0.7003610996399299,111.0,671.0
B,L,"[4, 2]",1.0,6.0,0.18048906326293945,1.6727409362792969,0.4901394916210505,111.0,672.0
,,"(3, 3)",,,,,,111.0,
G,D,"[4, 3]",1.0,1.0,0.649428129196167,3.2235920429229736,0.6133598190172438,,673.0
B,L,"[4, 2]",1.0,2.0,0.22954201698303223,1.716810941696167,0.4804699373100023,112.0,674.0
Y,R,"[4, 3]",1.0,3.0,0.33998703956604004,2.0641958713531494,0.7110747865174859,112.0,675.0
G,D,"[5, 3]",1.0,4.0,0.28208303451538086,1.7899529933929443,0.517911712376725,112.0,676.0
R,U,"[4, 3]",1.0,5.0,0.22317719459533691,1.8147809505462646,0.5826954436476421,112.0,677.0
B,L,"[4, 2]",1.0,6.0,0.30052804946899414,2.0320348739624023,0.7145315087278002,112.0,678.0
,,"(3, 3)",,,,,,112.0,
G,D,"[4, 3]",1.0,1.0,0.4947688579559326,3.0819780826568604,0.2973627131643022,,679.0
B,L,"[4, 2]",1.0,2.0,0.2920699119567871,2.0086910724639893,0.7057232632404358,113.0,680.0
Y,R,"[4, 3]",1.0,3.0,0.21815800666809082,1.5819971561431885,0.3546140663826619,113.0,681.0
G,D,"[5, 3]",1.0,4.0,0.2500150203704834,1.8031768798828125,0.541054195460044,113.0,682.0
R,U,"[4, 3]",1.0,5.0,0.5508019924163818,2.0811939239501953,0.5220437712730326,113.0,683.0
B,L,"[4, 2]",1.0,6.0,0.3095860481262207,1.8478200435638428,0.5363920276126519,113.0,684.0
,,"(3, 3)",,,,,,113.0,
G,D,"[4, 3]",1.0,1.0,0.5423550605773926,3.602376937866211,0.4057153533696256,,685.0
B,L,"[4, 2]",1.0,2.0,0.2919650077819824,1.7938930988311768,0.4994958419473641,114.0,686.0
Y,R,"[4, 3]",1.0,3.0,0.2010338306427002,1.482457160949707,0.26552971758379273,114.0,687.0
G,D,"[5, 3]",1.0,4.0,0.3527071475982666,1.883270025253296,0.5152610960160056,114.0,688.0
R,U,"[4, 3]",1.0,5.0,0.4843578338623047,2.2240049839019775,0.7223432975572261,114.0,689.0
B,L,"[4, 2]",1.0,6.0,0.24278593063354492,1.7089109420776367,0.4650309849269985,114.0,690.0
,,"(3, 3)",,,,,,114.0,
G,D,"[4, 3]",1.0,1.0,0.5870449542999268,3.277292013168335,0.4092765084539532,,691.0
B,L,"[4, 2]",1.0,2.0,0.3014960289001465,1.961122989654541,0.6532298466349917,115.0,692.0
Y,R,"[4, 3]",1.0,3.0,0.30814194679260254,1.9424309730529785,0.6291315990037004,115.0,693.0
G,D,"[5, 3]",1.0,4.0,0.3080298900604248,1.8509230613708496,0.5301665402020006,115.0,694.0
R,U,"[4, 3]",1.0,5.0,0.5881011486053467,2.2747039794921875,0.6714584364428753,115.0,695.0
B,L,"[4, 2]",1.0,6.0,0.22444486618041992,1.614128828048706,0.38582125326121025,115.0,696.0
,,"(3, 3)",,,,,,115.0,
G,D,"[4, 3]",1.0,1.0,0.7570481300354004,6.982283115386963,0.2685735981302131,,697.0
B,L,"[4, 2]",1.0,2.0,0.30376577377319336,1.586663007736206,0.27162143907600167,116.0,698.0
Y,R,"[4, 3]",1.0,3.0,0.33287620544433594,1.9913008213043213,0.6458896564783574,116.0,699.0
G,D,"[5, 3]",1.0,4.0,0.25953078269958496,1.6364250183105469,0.3660111387311855,116.0,700.0
R,U,"[4, 3]",1.0,5.0,0.30928611755371094,1.582118034362793,0.2649065594815253,116.0,701.0
B,L,"[4, 2]",1.0,6.0,0.3699920177459717,1.8060181140899658,0.4209369730794502,116.0,702.0
,,"(3, 3)",,,,,,116.0,
G,D,"[4, 3]",1.0,1.0,0.47309398651123047,3.7287609577178955,0.5829681763441208,,703.0
B,L,"[4, 2]",1.0,2.0,0.2520120143890381,1.8143069744110107,0.5472317999417541,117.0,704.0
Y,R,"[4, 3]",1.0,3.0,0.22023510932922363,1.6299989223480225,0.3940553968068407,117.0,705.0
G,D,"[5, 3]",1.0,4.0,0.35558605194091797,1.8034958839416504,0.44762550494688313,117.0,706.0
R,U,"[4, 3]",1.0,5.0,0.281109094619751,1.8097469806671143,0.5238980237753551,117.0,707.0
B,L,"[4, 2]",1.0,6.0,0.33246922492980957,1.7212460041046143,0.37873059652045143,117.0,708.0
,,"(3, 3)",,,,,,117.0,
G,D,"[4, 3]",1.0,1.0,0.5196881294250488,9.753021955490112,0.5484267731290171,,709.0
B,L,"[4, 2]",1.0,2.0,0.23811101913452148,1.7145898342132568,0.4630594230672183,118.0,710.0
Y,R,"[4, 3]",1.0,3.0,0.2585420608520508,1.9806008338928223,0.710109990887021,118.0,711.0
G,D,"[5, 3]",1.0,4.0,0.18307995796203613,1.8535418510437012,0.6637463350638633,118.0,712.0
R,U,"[4, 3]",1.0,5.0,0.19729399681091309,1.815640926361084,0.6127986389021698,118.0,713.0
B,L,"[4, 2]",1.0,6.0,0.13786697387695312,1.8417260646820068,0.6878953819053444,118.0,714.0
,,"(3, 3)",,,,,,118.0,
G,D,"[4, 3]",1.0,1.0,0.5787160396575928,4.685436964035034,0.6234249475587048,,715.0
B,L,"[4, 2]",1.0,2.0,0.2633991241455078,1.610116958618164,0.35029547336531924,119.0,716.0
Y,R,"[4, 3]",1.0,3.0,0.2698349952697754,2.0121750831604004,0.7288269747132772,119.0,717.0
G,D,"[5, 3]",1.0,4.0,0.2168290615081787,1.937201976776123,0.7160483021267401,119.0,718.0
R,U,"[4, 3]",1.0,5.0,0.21773886680603027,1.825754165649414,0.5919667461219288,119.0,719.0
B,L,"[4, 2]",1.0,6.0,0.37726593017578125,2.039271116256714,0.6646431643293653,119.0,720.0
,,"(3, 3)",,,,,,119.0,
G,D,"[4, 3]",1.0,1.0,0.6166319847106934,4.1272618770599365,0.7419297279807942,,721.0
B,L,"[4, 2]",1.0,2.0,0.24915409088134766,1.8621799945831299,0.6044234199410843,120.0,722.0
Y,R,"[4, 3]",1.0,3.0,0.2582690715789795,1.9557619094848633,0.6932310806698871,120.0,723.0
G,D,"[5, 3]",1.0,4.0,0.22013497352600098,1.5255799293518066,0.30245006840504607,120.0,724.0
R,U,"[4, 3]",1.0,5.0,0.507843017578125,2.051013946533203,0.5367595078427965,120.0,725.0
B,L,"[4, 2]",1.0,6.0,0.31628894805908203,1.5960121154785156,0.26652948128263204,120.0,726.0
,,"(3, 3)",,,,,,120.0,
G,D,"[4, 3]",1.0,1.0,0.6698629856109619,4.0303380489349365,0.47996466227030693,,727.0
B,L,"[4, 2]",1.0,2.0,0.2907900810241699,1.6138479709625244,0.3105293549239402,121.0,728.0
Y,R,"[4, 3]",1.0,3.0,0.35382890701293945,1.9054880142211914,0.549177379245815,121.0,729.0
G,D,"[5, 3]",1.0,4.0,0.25423121452331543,1.6373929977416992,0.370040188521334,121.0,730.0
R,U,"[4, 3]",1.0,5.0,0.2503378391265869,1.6417829990386963,0.37845357762325027,121.0,731.0
B,L,"[4, 2]",1.0,6.0,0.5028798580169678,1.8806798458099365,0.3758142781940854,121.0,732.0
,,"(3, 3)",,,,,,121.0,
G,D,"[4, 3]",1.0,1.0,0.7499871253967285,3.6743922233581543,0.266978482500951,,733.0
B,L,"[4, 2]",1.0,2.0,0.2621018886566162,1.651313066482544,0.3850027035903881,122.0,734.0
Y,R,"[4, 3]",1.0,3.0,0.24137115478515625,1.8103649616241455,0.5618248626535247,122.0,735.0
G,D,"[5, 3]",1.0,4.0,0.2403850555419922,1.4976351261138916,0.25974995898580855,122.0,736.0
R,U,"[4, 3]",1.0,5.0,0.4383249282836914,1.8908779621124268,0.4505607022622995,122.0,737.0
B,L,"[4, 2]",1.0,6.0,0.34356212615966797,1.6011898517608643,0.2520445922931831,122.0,738.0
,,"(3, 3)",,,,,,122.0,
G,D,"[4, 3]",1.0,1.0,0.7475111484527588,3.2911288738250732,0.31007608849906015,,739.0
B,L,"[4, 2]",1.0,2.0,0.3093149662017822,1.7256519794464111,0.4186595024806366,123.0,740.0
Y,R,"[4, 3]",1.0,3.0,0.2770380973815918,1.563175916671753,0.28206903685052637,123.0,741.0
G,D,"[5, 3]",1.0,4.0,0.30443501472473145,1.6399908065795898,0.3220306149450926,123.0,742.0
R,U,"[4, 3]",1.0,5.0,0.34612107276916504,2.0169758796691895,0.6721974668820165,123.0,743.0
B,L,"[4, 2]",1.0,6.0,0.2334611415863037,1.7512919902801514,0.5069318488842498,123.0,744.0
,,"(3, 3)",,,,,,123.0,
G,D,"[4, 3]",1.0,1.0,0.7011969089508057,3.188154935836792,0.47843166185130814,,745.0
B,L,"[4, 2]",1.0,2.0,0.23331093788146973,1.6992290019989014,0.46095875546749965,124.0,746.0
Y,R,"[4, 3]",1.0,3.0,0.4433469772338867,1.8032841682434082,0.3643319157018458,124.0,747.0
G,D,"[5, 3]",1.0,4.0,0.3398289680480957,1.7168700695037842,0.36459700083821744,124.0,748.0
R,U,"[4, 3]",1.0,5.0,0.34229087829589844,1.8421690464019775,0.48997070175037594,124.0,749.0
B,L,"[4, 2]",1.0,6.0,0.30193591117858887,1.583446979522705,0.27355769071654196,124.0,750.0
,,"(3, 3)",,,,,,124.0,
G,D,"[4, 3]",1.0,1.0,0.5364561080932617,3.922137975692749,0.7454719048121141,,751.0
B,L,"[4, 2]",1.0,2.0,0.2922348976135254,1.7688241004943848,0.48102440664447105,125.0,752.0
Y,R,"[4, 3]",1.0,3.0,0.3530890941619873,1.7729370594024658,0.40425061188526873,125.0,753.0
G,D,"[5, 3]",1.0,4.0,0.34809303283691406,1.6631240844726562,0.30075643266992086,125.0,754.0
R,U,"[4, 3]",1.0,5.0,0.594519853591919,1.852895975112915,0.2538110078002448,125.0,755.0
B,L,"[4, 2]",1.0,6.0,0.6021409034729004,2.274617910385132,0.6612467906963986,125.0,756.0
,,"(3, 3)",,,,,,125.0,
G,D,"[4, 3]",1.0,1.0,0.4971959590911865,3.8043081760406494,0.49907217434712514,,757.0
B,L,"[4, 2]",1.0,2.0,0.2305910587310791,1.7365708351135254,0.5024275349968103,126.0,758.0
Y,R,"[4, 3]",1.0,3.0,0.15843701362609863,1.6410858631134033,0.4769821007875192,126.0,759.0
G,D,"[5, 3]",1.0,4.0,0.43874502182006836,1.876028060913086,0.43648252715971003,126.0,760.0
R,U,"[4, 3]",1.0,5.0,0.3587360382080078,2.1134660243988037,0.7496580148115422,126.0,761.0
Y,R,"[4, 4]",-1.0,4.0,0.32230186462402344,1.6688339710235596,0.3357056255491532,126.0,762.0
,,"(3, 3)",,,,,,126.0,
G,D,"[4, 3]",-2.0,0.0,1.0596179962158203,4.61247992515564,0.6147359319370217,,763.0
G,D,"[5, 3]",1.0,1.0,0.510930061340332,2.0415661334991455,0.5227312561348385,127.0,764.0
B,L,"[5, 2]",1.0,2.0,0.29871702194213867,1.6949100494384766,0.40121664266592255,127.0,765.0
Y,R,"[5, 3]",1.0,3.0,0.4097859859466553,2.022916078567505,0.6071560925234518,127.0,766.0
G,D,"[6, 3]",0.0,3.0,0.21708416938781738,1.931096076965332,0.704749832296543,127.0,767.0
R,U,"[5, 3]",1.0,4.0,0.30992889404296875,1.7727761268615723,0.46133112937523574,127.0,768.0
,,"(3, 3)",,,,,,127.0,
G,D,"[4, 3]",1.0,1.0,0.4718301296234131,6.575232028961182,0.40342005571102935,,769.0
B,L,"[4, 2]",1.0,2.0,0.3463928699493408,1.78621506690979,0.43961887646431475,128.0,770.0
Y,R,"[4, 3]",1.0,3.0,0.30086493492126465,1.8194091320037842,0.5089584555274925,128.0,771.0
G,D,"[5, 3]",1.0,4.0,0.24151396751403809,1.9030399322509766,0.6619720816072492,128.0,772.0
R,U,"[4, 3]",1.0,5.0,0.2773900032043457,1.9342939853668213,0.6628798245783721,128.0,773.0
B,L,"[4, 2]",1.0,6.0,0.22990202903747559,1.5717658996582031,0.3352136673792231,128.0,774.0
,,"(3, 3)",,,,,,128.0,
G,D,"[4, 3]",1.0,1.0,0.5081779956817627,3.2305681705474854,0.43200990893626623,,775.0
B,L,"[4, 2]",1.0,2.0,0.257612943649292,1.5238111019134521,0.25620806459790796,129.0,776.0
Y,R,"[4, 3]",1.0,3.0,0.3679800033569336,2.0963330268859863,0.7188057728361663,129.0,777.0
G,D,"[5, 3]",1.0,4.0,0.2199840545654297,1.589935064315796,0.35904878005372315,129.0,778.0
R,U,"[4, 3]",1.0,5.0,0.3627359867095947,1.9685821533203125,0.6107639823682022,129.0,779.0
B,L,"[4, 2]",1.0,6.0,0.26541805267333984,1.9589929580688477,0.7029791145540689,129.0,780.0
,,"(3, 3)",,,,,,129.0,
G,D,"[4, 3]",1.0,1.0,0.6044180393218994,3.1865720748901367,0.4065202209432999,,781.0
B,L,"[4, 2]",1.0,2.0,0.2847020626068115,1.9384269714355469,0.6447658367472191,130.0,782.0
Y,R,"[4, 3]",1.0,3.0,0.1902008056640625,1.531229019165039,0.34278170627074794,130.0,783.0
G,D,"[5, 3]",1.0,4.0,0.23665714263916016,1.8024919033050537,0.5619899654675711,130.0,784.0
R,U,"[4, 3]",1.0,5.0,0.2559020519256592,1.912193775177002,0.6573691658470526,130.0,785.0
B,L,"[4, 2]",1.0,6.0,0.17822813987731934,1.8266959190368652,0.6509558149814472,130.0,786.0
,,"(3, 3)",,,,,,130.0,
G,D,"[4, 3]",1.0,1.0,0.5124108791351318,2.5468099117279053,0.48118813155126655,,787.0
B,L,"[4, 2]",1.0,2.0,0.21199393272399902,1.6145529747009277,0.39583755025928485,131.0,788.0
Y,R,"[4, 3]",1.0,3.0,0.28905797004699707,2.025423049926758,0.7375406667747342,131.0,789.0
R,U,"[3, 3]",-2.0,3.0,1.0258190631866455,2.6364119052886963,0.5740031018255354,131.0,790.0
G,D,"[4, 3]",-2.0,3.0,1.7722399234771729,3.514204978942871,0.7047843113599936,131.0,791.0
G,D,"[5, 3]",1.0,4.0,0.41512513160705566,1.7098820209503174,0.29853926451619583,131.0,792.0
,,"(3, 3)",,,,,,131.0,
G,D,"[4, 3]",1.0,1.0,0.45197296142578125,4.631481170654297,0.6299130298564778,,793.0
B,L,"[4, 2]",1.0,2.0,0.17720699310302734,1.5622849464416504,0.37545084216639896,132.0,794.0
Y,R,"[4, 3]",1.0,3.0,0.24551820755004883,1.55588698387146,0.31494159859824716,132.0,795.0
G,D,"[5, 3]",1.0,4.0,0.41001081466674805,1.6994109153747559,0.28106831478611083,132.0,796.0
R,U,"[4, 3]",1.0,5.0,0.3191049098968506,1.7361350059509277,0.4004470684373183,132.0,797.0
B,L,"[4, 2]",1.0,6.0,0.3144381046295166,1.92637300491333,0.6099110647457073,132.0,798.0
,,"(3, 3)",,,,,,132.0,
G,D,"[4, 3]",1.0,1.0,0.3610689640045166,8.507322072982788,0.43427862083129476,,799.0
B,L,"[4, 2]",1.0,2.0,0.4655001163482666,2.192552089691162,0.7098943957776194,133.0,800.0
Y,R,"[4, 3]",1.0,3.0,0.28316497802734375,1.960413932800293,0.6704056996990599,133.0,801.0
G,D,"[5, 3]",1.0,4.0,0.22754907608032227,1.9624671936035156,0.7329385239471442,133.0,802.0
R,U,"[4, 3]",1.0,5.0,0.2059488296508789,1.7970490455627441,0.5800573212983373,133.0,803.0
B,L,"[4, 2]",1.0,6.0,0.24702095985412598,1.5638959407806396,0.3110683264673475,133.0,804.0
,,"(3, 3)",,,,,,133.0,
G,D,"[4, 3]",-1.0,-1.0,0.45058584213256836,4.445967197418213,0.6064611207840964,,805.0
B,L,"[4, 2]",-1.0,-2.0,0.34635400772094727,1.7378830909729004,0.3947512228290647,134.0,806.0
R,U,"[3, 2]",-1.0,-3.0,0.24003100395202637,1.8992829322814941,0.6603705893402962,134.0,807.0
R,U,"[2, 2]",1.0,-2.0,0.30391693115234375,2.0477778911590576,0.7414356399233973,134.0,808.0
G,D,"[3, 2]",-1.0,-3.0,0.3560061454772949,1.9103758335113525,0.5521319911710056,134.0,809.0
B,L,"[3, 1]",1.0,-2.0,0.2155139446258545,1.6475660800933838,0.4163231803489097,134.0,810.0
,,"(3, 3)",,,,,,134.0,
G,D,"[4, 3]",-1.0,-1.0,0.720221996307373,3.2525250911712646,0.33582846791310883,,811.0
B,L,"[4, 2]",-1.0,-2.0,0.3035738468170166,1.9741439819335938,0.659678853674402,135.0,812.0
Y,R,"[4, 3]",-1.0,-3.0,0.34001898765563965,2.0362370014190674,0.6956986754688782,135.0,813.0
R,U,"[3, 3]",-2.0,-5.0,0.2722148895263672,1.5913059711456299,0.3041989494088771,135.0,814.0
R,U,"[2, 3]",1.0,-4.0,0.2267780303955078,1.9895281791687012,0.7432777339225218,135.0,815.0
B,L,"[2, 2]",1.0,-3.0,0.2088489532470703,1.4935600757598877,0.28734199101740704,135.0,816.0
,,"(3, 3)",,,,,,135.0,
B,L,"[3, 2]",-2.0,0.0,1.3701210021972656,4.047230005264282,0.25142249346219403,,817.0
B,L,"[3, 1]",1.0,1.0,0.30472421646118164,1.890434980392456,0.5747312361710706,136.0,818.0
G,D,"[4, 1]",-1.0,0.0,0.27652716636657715,1.9799199104309082,0.7047667678401595,136.0,819.0
R,U,"[3, 1]",1.0,1.0,0.3203861713409424,2.009394884109497,0.6808294235945591,136.0,820.0
Y,R,"[3, 2]",-1.0,0.0,0.47865796089172363,1.776780128479004,0.2744610416399529,136.0,821.0
G,D,"[4, 2]",-1.0,-1.0,0.42081713676452637,1.8095319271087646,0.3839389392458277,136.0,822.0
,,"(3, 3)",,,,,,136.0,
B,L,"[3, 2]",-1.0,-1.0,0.5066299438476562,3.5749499797821045,0.425747208282094,,823.0
B,L,"[3, 1]",1.0,0.0,0.19781899452209473,1.7482891082763672,0.5404777585870195,137.0,824.0
R,U,"[2, 1]",1.0,1.0,0.23880982398986816,1.7814390659332275,0.5386087283733862,137.0,825.0
R,U,"[1, 1]",1.0,2.0,0.2249739170074463,1.929487943649292,0.7015040183660239,137.0,826.0
B,L,"[1, 0]",0.0,2.0,0.6673080921173096,2.078127861022949,0.3963615474379856,137.0,827.0
G,D,"[2, 0]",0.0,2.0,0.20251202583312988,1.4717609882354736,0.2683448465624043,137.0,828.0
,,"(3, 3)",,,,,,137.0,
Y,R,"[3, 4]",-1.0,-1.0,0.3286879062652588,3.481971025466919,0.26700566977736456,,829.0
B,L,"[3, 3]",-2.0,-3.0,0.2832798957824707,2.0398380756378174,0.7398040450636769,138.0,830.0
R,U,"[2, 3]",1.0,-2.0,0.28429198265075684,1.6825230121612549,0.3892474374749785,138.0,831.0
R,U,"[1, 3]",-1.0,-2.0,0.0258638858795166,5.834869146347046,0.6905330799507685,138.0,832.0
G,D,"[2, 3]",1.0,-1.0,0.30246496200561523,1.8524250984191895,0.5432420908421671,138.0,833.0
B,L,"[2, 2]",1.0,0.0,0.2738199234008789,1.9661259651184082,0.6925092792319401,138.0,834.0
,,"(3, 3)",,,,,,138.0,
G,D,"[4, 3]",-1.0,-1.0,0.5795309543609619,6.229197025299072,0.37215503250891113,,835.0
B,L,"[4, 2]",-1.0,-2.0,0.9128611087799072,2.187919855117798,0.27686005404076736,139.0,836.0
B,L,"[4, 1]",-1.0,-3.0,0.2227649688720703,1.541761875152588,0.318571657336304,139.0,837.0
B,L,"[4, 0]",0.0,-3.0,0.12168097496032715,1.7504220008850098,0.618646592516958,139.0,838.0
R,U,"[3, 0]",0.0,-3.0,0.2996699810028076,1.7176408767700195,0.41981571814908375,139.0,839.0
B,L,"[3, 0]",0.0,-3.0,0.2530341148376465,1.9920518398284912,0.711725656859101,139.0,840.0
,,"(3, 3)",,,,,,139.0,
Y,R,"[3, 4]",-2.0,0.0,1.4016120433807373,4.2766289710998535,0.6386067461994758,,841.0
Y,R,"[3, 5]",-1.0,-1.0,0.8416697978973389,2.3745689392089844,0.5297336561570629,140.0,842.0
B,L,"[3, 4]",-1.0,-2.0,0.22547292709350586,1.8757171630859375,0.6387118329898023,140.0,843.0
R,U,"[2, 4]",-1.0,-3.0,0.17778897285461426,1.601025104522705,0.4232334105092889,140.0,844.0
R,U,"[1, 4]",-1.0,-4.0,0.29877495765686035,1.5841789245605469,0.27449833150992764,140.0,845.0
R,U,"[0, 4]",0.0,-4.0,0.25579309463500977,1.9120309352874756,0.6527658817499713,140.0,846.0
,,"(3, 3)",,,,,,140.0,
R,U,"[2, 3]",1.0,1.0,0.7927999496459961,4.547528028488159,0.5339694899953548,,847.0
R,U,"[1, 3]",-1.0,0.0,0.21796607971191406,1.6465849876403809,0.4138581120477378,141.0,848.0
R,U,"[0, 3]",0.0,0.0,0.25713014602661133,1.8545207977294922,0.5848293504708251,141.0,849.0
R,U,"[0, 3]",0.0,0.0,0.6771001815795898,1.9822869300842285,0.30083680819427033,141.0,850.0
R,U,"[0, 3]",0.0,0.0,0.3899421691894531,2.105400800704956,0.705781952718459,141.0,851.0
R,U,"[0, 3]",0.0,0.0,0.6349859237670898,1.9213929176330566,0.2942975851810354,141.0,852.0
,,"(3, 3)",,,,,,141.0,
G,D,"[4, 3]",-2.0,0.0,1.228182077407837,5.165817022323608,0.6100259384248259,,853.0
G,D,"[5, 3]",-1.0,-1.0,0.32590413093566895,1.6640980243682861,0.34091080116564754,142.0,854.0
B,L,"[5, 2]",-1.0,-2.0,0.21920013427734375,1.963404893875122,0.7372828692319691,142.0,855.0
R,U,"[4, 2]",-1.0,-2.0,0.05297994613647461,5.812252998352051,0.6331023424275628,142.0,856.0
G,D,"[5, 2]",-1.0,-3.0,0.5261809825897217,1.8833198547363281,0.34997669865304376,142.0,857.0
G,D,"[6, 2]",0.0,-3.0,0.6220560073852539,2.320734977722168,0.6870310226098051,142.0,858.0
,,"(3, 3)",,,,,,142.0,
R,U,"[2, 3]",-2.0,0.0,1.1668989658355713,5.33275294303894,0.736425387666404,,859.0
R,U,"[1, 3]",-1.0,-1.0,0.6813390254974365,2.0256829261779785,0.3292556044741647,143.0,860.0
R,U,"[0, 3]",0.0,-1.0,0.4175760746002197,1.7522060871124268,0.33138225153698275,143.0,861.0
R,U,"[0, 3]",0.0,-1.0,0.3720710277557373,2.115684986114502,0.7301432634742038,143.0,862.0
R,U,"[0, 3]",0.0,-1.0,0.29145002365112305,1.7724311351776123,0.46964872929233076,143.0,863.0
R,U,"[0, 3]",0.0,-1.0,0.37913990020751953,1.9558179378509521,0.575304718839996,143.0,864.0
,,"(3, 3)",,,,,,143.0,
G,D,"[4, 3]",-1.0,-1.0,0.49132394790649414,3.559074878692627,0.6011599876866889,,865.0
G,D,"[5, 3]",-1.0,-2.0,0.32527899742126465,1.9369838237762451,0.6048182738844063,144.0,866.0
G,D,"[6, 3]",0.0,-2.0,0.3320631980895996,1.6559350490570068,0.32783946603056113,144.0,867.0
G,D,"[6, 3]",0.0,-2.0,0.33507704734802246,2.0361008644104004,0.7133020901282335,144.0,868.0
G,D,"[6, 3]",0.0,-2.0,0.32111692428588867,1.7278599739074707,0.4082303817573744,144.0,869.0
G,D,"[6, 3]",0.0,-2.0,0.4098849296569824,2.07647705078125,0.6677915801705168,144.0,870.0
,,"(3, 3)",,,,,,144.0,
B,L,"[3, 2]",-1.0,-1.0,0.5448200702667236,3.118950128555298,0.6536575052166478,,871.0
B,L,"[3, 1]",1.0,0.0,0.20471906661987305,1.6741180419921875,0.46130780614028477,145.0,872.0
B,L,"[3, 0]",0.0,0.0,0.4271259307861328,2.0474860668182373,0.6251423135027707,145.0,873.0
B,L,"[3, 0]",0.0,0.0,0.3590998649597168,1.8504180908203125,0.4922768849350162,145.0,874.0
B,L,"[3, 0]",0.0,0.0,0.34320902824401855,1.7879319190979004,0.44697818428417124,145.0,875.0
B,L,"[3, 0]",0.0,0.0,0.262509822845459,1.5654168128967285,0.29596084129678496,145.0,876.0
,,"(3, 3)",,,,,,145.0,
Y,R,"[3, 4]",-1.0,-1.0,0.6727499961853027,3.7099649906158447,0.6725274205517139,,877.0
Y,R,"[3, 5]",-1.0,-2.0,0.19803810119628906,1.7106678485870361,0.4999217919719922,146.0,878.0
Y,R,"[3, 6]",0.0,-2.0,0.20615196228027344,1.9652960300445557,0.7488153730410753,146.0,879.0
Y,R,"[3, 6]",0.0,-2.0,0.1897280216217041,1.6465590000152588,0.4452693143964302,146.0,880.0
Y,R,"[3, 6]",0.0,-2.0,0.18046021461486816,1.6293981075286865,0.4577833161822464,146.0,881.0
Y,R,"[3, 6]",0.0,-2.0,0.2261490821838379,1.602349042892456,0.376950762733483,146.0,882.0
,,"(3, 3)",,,,,,146.0,
G,D,"[4, 3]",-1.0,-1.0,0.704010009765625,4.556219100952148,0.49974502361958606,,883.0
B,L,"[4, 2]",-1.0,-2.0,0.23368096351623535,1.873460054397583,0.6230075208820542,147.0,884.0
B,L,"[4, 1]",-1.0,-3.0,0.26497793197631836,1.6856689453125,0.42573713091397025,147.0,885.0
B,L,"[4, 0]",0.0,-3.0,0.18476390838623047,1.8167870044708252,0.6257668743217744,147.0,886.0
R,U,"[3, 0]",0.0,-3.0,0.17334294319152832,1.868506908416748,0.6941293894577396,147.0,887.0
R,U,"[2, 0]",-1.0,-3.0,0.0606541633605957,5.694332838058472,0.48876397262848864,147.0,888.0
,,"(3, 3)",,,,,,147.0,
R,U,"[2, 3]",1.0,1.0,0.8481271266937256,4.780591011047363,0.5693256454394817,,889.0
R,U,"[1, 3]",-1.0,0.0,0.6014468669891357,2.261259078979492,0.6471030676277381,148.0,890.0
G,D,"[2, 3]",1.0,1.0,0.5267598628997803,2.0782840251922607,0.5423738483875505,148.0,891.0
B,L,"[2, 2]",1.0,2.0,0.725283145904541,2.2284979820251465,0.5040703907886737,148.0,892.0
Y,R,"[2, 3]",1.0,3.0,0.6040558815002441,2.260406017303467,0.6475947521231291,148.0,893.0
G,D,"[3, 3]",-2.0,1.0,0.851344108581543,2.3669378757476807,0.49801976559752253,148.0,894.0
,,"(3, 3)",,,,,,148.0,
R,U,"[2, 3]",-2.0,0.0,1.2974820137023926,4.365730047225952,0.6636728045930619,,895.0
R,U,"[1, 3]",-1.0,-1.0,0.30330395698547363,1.6644251346588135,0.3450180907987747,149.0,896.0
R,U,"[0, 3]",0.0,-1.0,0.2423849105834961,1.7233970165252686,0.4851773679050093,149.0,897.0
G,D,"[1, 3]",-1.0,-2.0,0.2020711898803711,1.586068868637085,0.37134449628338617,149.0,898.0
B,L,"[1, 2]",1.0,-1.0,0.24678897857666016,1.6685688495635986,0.4065351912233354,149.0,899.0
Y,R,"[1, 3]",-1.0,-2.0,0.2901639938354492,1.9891729354858398,0.6953908482102735,149.0,900.0
,,"(3, 3)",,,,,,149.0,
R,U,"[2, 3]",1.0,1.0,0.3595700263977051,4.785439968109131,0.5643792760208113,,901.0
G,D,"[3, 3]",-2.0,-1.0,0.22017502784729004,1.8971519470214844,0.6615645550342723,150.0,902.0
B,L,"[3, 2]",-1.0,-2.0,0.22782611846923828,1.7353780269622803,0.4969980397322328,150.0,903.0
Y,R,"[3, 3]",-2.0,-4.0,0.22501492500305176,1.4934849739074707,0.2574667621835422,150.0,904.0
R,U,"[2, 3]",1.0,-3.0,0.2605900764465332,1.9408349990844727,0.6812073330845063,150.0,905.0
R,U,"[1, 3]",-1.0,-4.0,0.3146848678588867,1.6043219566345215,0.26924188259367954,150.0,906.0
,,"(3, 3)",,,,,,150.0,
R,U,"[2, 3]",1.0,1.0,0.4915199279785156,3.222749948501587,0.3586493091131547,,907.0
R,U,"[1, 3]",-1.0,0.0,0.20611906051635742,1.8833057880401611,0.6749444933348274,151.0,908.0
G,D,"[2, 3]",1.0,1.0,0.22106003761291504,1.6134450435638428,0.3886627325918792,151.0,909.0
B,L,"[2, 2]",-2.0,1.0,1.093289852142334,2.652435064315796,0.5243436463470739,151.0,910.0
R,U,"[1, 2]",1.0,2.0,0.7243618965148926,2.2522799968719482,0.5267450180386766,151.0,911.0
R,U,"[0, 2]",0.0,2.0,0.33842897415161133,1.813004970550537,0.47316692681981903,151.0,912.0
,,"(3, 3)",,,,,,151.0,
R,U,"[2, 3]",1.0,1.0,0.6625680923461914,6.57614803314209,0.6490709628736528,,913.0
R,U,"[1, 3]",-1.0,0.0,0.25469207763671875,1.9216818809509277,0.6541272077131999,152.0,914.0
G,D,"[2, 3]",1.0,1.0,0.23024797439575195,1.812748908996582,0.5668770886846497,152.0,915.0
B,L,"[2, 2]",1.0,2.0,0.35442614555358887,1.775054931640625,0.408950975065992,152.0,916.0
Y,R,"[2, 3]",1.0,3.0,0.39306092262268066,2.0101208686828613,0.6189244927401159,152.0,917.0
G,D,"[3, 3]",-2.0,1.0,0.31653785705566406,1.8729140758514404,0.5418272062697704,152.0,918.0
,,"(3, 3)",,,,,,152.0,
R,U,"[2, 3]",1.0,1.0,0.7608480453491211,3.5932021141052246,0.46854854537061447,,919.0
R,U,"[1, 3]",-1.0,0.0,0.33270907402038574,1.615783929824829,0.2678762946491439,153.0,920.0
G,D,"[2, 3]",1.0,1.0,0.5000779628753662,2.029438018798828,0.5138704892096151,153.0,921.0
B,L,"[2, 2]",1.0,2.0,0.22290396690368652,1.5033869743347168,0.26735421437980866,153.0,922.0
Y,R,"[2, 3]",1.0,3.0,0.23799490928649902,1.4995131492614746,0.2502469801256627,153.0,923.0
Y,R,"[2, 4]",-1.0,2.0,0.3079869747161865,2.0521271228790283,0.7351693759056279,153.0,924.0
,,"(3, 3)",,,,,,153.0,
R,U,"[2, 3]",1.0,1.0,0.952998161315918,3.4721360206604004,0.3912076314687426,,925.0
R,U,"[1, 3]",-1.0,0.0,0.3044559955596924,1.5693790912628174,0.2607219743750729,154.0,926.0
G,D,"[2, 3]",1.0,1.0,0.3448059558868408,1.8341500759124756,0.4947020850437656,154.0,927.0
B,L,"[2, 2]",1.0,2.0,0.21460890769958496,1.6184070110321045,0.41307966340418373,154.0,928.0
Y,R,"[2, 3]",1.0,3.0,0.22941279411315918,1.6123640537261963,0.3755642052125224,154.0,929.0
B,L,"[2, 2]",1.0,4.0,0.2716100215911865,1.8983631134033203,0.6236080029184939,154.0,930.0
,,"(3, 3)",,,,,,154.0,
R,U,"[2, 3]",1.0,1.0,0.5249049663543701,9.38980507850647,0.68008316687017,,931.0
R,U,"[1, 3]",-1.0,0.0,0.3177521228790283,1.5994789600372314,0.2634537968172643,155.0,932.0
G,D,"[2, 3]",1.0,1.0,0.5618131160736084,2.2013258934020996,0.6311309101957729,155.0,933.0
B,L,"[2, 2]",1.0,2.0,0.21614408493041992,1.5194191932678223,0.28413456387481817,155.0,934.0
Y,R,"[2, 3]",1.0,3.0,0.3892250061035156,1.962796926498413,0.5633495730118019,155.0,935.0
B,L,"[2, 2]",1.0,4.0,0.315687894821167,1.6085948944091797,0.272237412997555,155.0,936.0
,,"(3, 3)",,,,,,155.0,
G,D,"[4, 3]",-1.0,-1.0,0.46754002571105957,11.305087089538574,0.41054799589756796,,937.0
R,U,"[3, 3]",-2.0,-3.0,0.23312020301818848,1.7813630104064941,0.5419892512214874,156.0,938.0
R,U,"[2, 3]",-1.0,-3.0,0.09357094764709473,5.719955205917358,0.4787458723373678,156.0,939.0
R,U,"[1, 3]",-1.0,-4.0,0.6644020080566406,2.2360689640045166,0.5646909212813885,156.0,940.0
R,U,"[0, 3]",0.0,-4.0,0.25127506256103516,1.7279000282287598,0.4592884096340391,156.0,941.0
G,D,"[1, 3]",-1.0,-5.0,0.34387898445129395,1.859816074371338,0.5192008952375881,156.0,942.0
,,"(3, 3)",,,,,,156.0,
R,U,"[2, 3]",-2.0,0.0,1.3510777950286865,5.271942138671875,0.6249197477936479,,943.0
R,U,"[1, 3]",-1.0,-1.0,0.38564014434814453,1.9356391429901123,0.5440113880927506,157.0,944.0
R,U,"[0, 3]",0.0,-1.0,0.30130600929260254,2.01754093170166,0.7112347132980981,157.0,945.0
G,D,"[1, 3]",-1.0,-2.0,0.2717471122741699,1.8612940311431885,0.5894048470835731,157.0,946.0
B,L,"[1, 2]",1.0,-1.0,0.2562570571899414,1.5990219116210938,0.3386583749713459,157.0,947.0
B,L,"[1, 1]",1.0,0.0,0.25951409339904785,1.8646841049194336,0.6030891382103294,157.0,948.0
,,"(3, 3)",,,,,,157.0,
R,U,"[2, 3]",1.0,1.0,0.5726919174194336,5.041343927383423,0.44506395261497267,,949.0
R,U,"[1, 3]",-1.0,0.0,0.3115198612213135,1.9353480339050293,0.6134882229299179,158.0,950.0
G,D,"[2, 3]",1.0,1.0,0.25948596000671387,1.6116600036621094,0.3420498474222172,158.0,951.0
B,L,"[2, 2]",1.0,2.0,0.37554407119750977,1.7214479446411133,0.34693213656219063,158.0,952.0
Y,R,"[2, 3]",1.0,3.0,0.2623448371887207,1.7837910652160645,0.514003890754695,158.0,953.0
B,L,"[2, 2]",1.0,4.0,0.24394989013671875,1.7476229667663574,0.4949497022335539,158.0,954.0
,,"(3, 3)",,,,,,158.0,
R,U,"[2, 3]",1.0,1.0,0.9439570903778076,3.463430166244507,0.32559648165813354,,955.0
R,U,"[1, 3]",-1.0,0.0,0.6152958869934082,1.9966681003570557,0.37221165342741663,159.0,956.0
G,D,"[2, 3]",1.0,1.0,0.33736395835876465,1.8328900337219238,0.5049086164641758,159.0,957.0
B,L,"[2, 2]",1.0,2.0,0.21500205993652344,1.9456350803375244,0.7335797287679429,159.0,958.0
Y,R,"[2, 3]",1.0,3.0,0.1941971778869629,1.6265301704406738,0.42747164576547675,159.0,959.0
B,L,"[2, 2]",1.0,4.0,0.2455739974975586,1.8144340515136719,0.5749215204964689,159.0,960.0
,,"(3, 3)",,,,,,159.0,
R,U,"[2, 3]",1.0,1.0,0.5867669582366943,3.5584709644317627,0.3671122100963136,,961.0
R,U,"[1, 3]",-1.0,0.0,0.2642099857330322,1.581084966659546,0.2983340740927774,160.0,962.0
G,D,"[2, 3]",1.0,1.0,0.25808095932006836,1.8915290832519531,0.6229556401557418,160.0,963.0
B,L,"[2, 2]",1.0,2.0,0.14065098762512207,1.6620569229125977,0.5185138737841737,160.0,964.0
Y,R,"[2, 3]",1.0,3.0,0.23509907722473145,1.7450921535491943,0.4971350702879356,160.0,965.0
B,L,"[2, 2]",1.0,4.0,0.24721789360046387,1.6360480785369873,0.38325017546696216,160.0,966.0
,,"(3, 3)",,,,,,160.0,
R,U,"[2, 3]",1.0,1.0,0.42412400245666504,3.7888669967651367,0.42230248822316135,,967.0
R,U,"[1, 3]",-1.0,0.0,0.2667980194091797,1.9886081218719482,0.7272625625565619,161.0,968.0
G,D,"[2, 3]",1.0,1.0,0.2274460792541504,1.9402859210968018,0.7179494779338254,161.0,969.0
B,L,"[2, 2]",1.0,2.0,0.23549604415893555,1.9447779655456543,0.6959113591385329,161.0,970.0
Y,R,"[2, 3]",1.0,3.0,0.22178983688354492,1.9648771286010742,0.744131525185677,161.0,971.0
B,L,"[2, 2]",1.0,4.0,0.23984694480895996,1.5846569538116455,0.345920398734586,161.0,972.0
,,"(3, 3)",,,,,,161.0,
R,U,"[2, 3]",1.0,1.0,0.42136693000793457,4.743494033813477,0.7392676964873072,,973.0
G,D,"[3, 3]",-2.0,-1.0,0.26755404472351074,1.5354290008544922,0.258456245606631,162.0,974.0
R,U,"[2, 3]",1.0,0.0,0.41028594970703125,1.8855650424957275,0.4773378784120838,162.0,975.0
G,D,"[3, 3]",-2.0,0.0,1.4631149768829346,3.0862550735473633,0.5968798563016084,162.0,976.0
R,U,"[2, 3]",1.0,1.0,0.8150959014892578,2.5204341411590576,0.7005586030524565,162.0,977.0
G,D,"[3, 3]",-2.0,-1.0,0.26854920387268066,1.972066879272461,0.6893933544487301,162.0,978.0
,,"(3, 3)",,,,,,162.0,
R,U,"[2, 3]",1.0,1.0,0.39615392684936523,3.657938003540039,0.49757730678920015,,979.0
G,D,"[3, 3]",-2.0,-1.0,0.22040796279907227,1.6273610591888428,0.40820347426007064,163.0,980.0
R,U,"[2, 3]",1.0,0.0,0.21678900718688965,1.6261069774627686,0.4010563935500665,163.0,981.0
B,L,"[2, 2]",1.0,1.0,0.20096707344055176,1.7400929927825928,0.5244321964297083,163.0,982.0
Y,R,"[2, 3]",1.0,2.0,0.22440099716186523,1.6359968185424805,0.41068916922581417,163.0,983.0
B,L,"[2, 2]",1.0,3.0,0.2539041042327881,1.6626479625701904,0.4068064151952636,163.0,984.0
,,"(3, 3)",,,,,,163.0,
R,U,"[2, 3]",1.0,1.0,0.400968074798584,4.975313901901245,0.6820345906189509,,985.0
G,D,"[3, 3]",-2.0,-1.0,0.2671358585357666,1.57269287109375,0.28842809765467303,164.0,986.0
R,U,"[2, 3]",1.0,0.0,0.5240828990936279,1.9545187950134277,0.4263705961041017,164.0,987.0
R,U,"[1, 3]",-1.0,-1.0,0.3086669445037842,1.6200158596038818,0.31306894342760333,164.0,988.0
B,L,"[1, 2]",1.0,0.0,0.2652928829193115,1.9717350006103516,0.6847364717655751,164.0,989.0
Y,R,"[1, 3]",-1.0,-1.0,0.19379401206970215,1.716027021408081,0.5175671683326347,164.0,990.0
,,"(3, 3)",,,,,,164.0,
R,U,"[2, 3]",1.0,1.0,0.4113738536834717,3.648253917694092,0.7321911602980287,,991.0
G,D,"[3, 3]",-2.0,-1.0,0.26444220542907715,1.5989010334014893,0.3314093653569093,165.0,992.0
R,U,"[2, 3]",1.0,0.0,0.34036707878112793,2.0652990341186523,0.7130913863172901,165.0,993.0
G,D,"[3, 3]",-1.0,0.0,0.09779906272888184,5.640881061553955,0.387810927709269,165.0,994.0
R,U,"[2, 3]",1.0,1.0,0.4496488571166992,2.0986440181732178,0.636261104755871,165.0,995.0
B,L,"[2, 2]",1.0,2.0,0.3146030902862549,1.9941110610961914,0.6804248224223169,165.0,996.0
,,"(3, 3)",,,,,,165.0,
R,U,"[2, 3]",1.0,1.0,0.551483154296875,5.872050046920776,0.25297981670814146,,997.0
B,L,"[2, 2]",1.0,2.0,0.3191530704498291,2.004945993423462,0.6743640272900117,166.0,998.0
Y,R,"[2, 3]",1.0,3.0,0.2712130546569824,1.6381700038909912,0.3630215568585686,166.0,999.0
B,L,"[2, 2]",1.0,4.0,0.32128000259399414,1.9962151050567627,0.6591659447503816,166.0,1000.0
G,D,"[3, 2]",-1.0,3.0,0.2562899589538574,1.5940580368041992,0.33684827603937756,166.0,1001.0
R,U,"[2, 2]",1.0,4.0,0.2090620994567871,1.6743571758270264,0.46121828658174385,166.0,1002.0
,,"(3, 3)",,,,,,166.0,
R,U,"[2, 3]",1.0,1.0,0.8469247817993164,4.108017921447754,0.4525068952115921,,1003.0
B,L,"[2, 2]",1.0,2.0,0.25896501541137695,1.7519960403442383,0.4877313329768469,167.0,1004.0
Y,R,"[2, 3]",1.0,3.0,0.4519689083099365,1.8635780811309814,0.4014602373862078,167.0,1005.0
B,L,"[2, 2]",1.0,4.0,0.20658111572265625,1.695862054824829,0.4806286140496661,167.0,1006.0
Y,R,"[2, 3]",1.0,5.0,0.23163604736328125,1.6358931064605713,0.40000807679084543,167.0,1007.0
R,U,"[1, 3]",-1.0,4.0,0.29715490341186523,1.7604589462280273,0.44367204765337664,167.0,1008.0
,,"(3, 3)",,,,,,167.0,
R,U,"[2, 3]",1.0,1.0,0.6277668476104736,3.4864699840545654,0.3972376429225977,,1009.0
B,L,"[2, 2]",1.0,2.0,0.2233109474182129,1.7016749382019043,0.4654331461771455,168.0,1010.0
Y,R,"[2, 3]",1.0,3.0,0.2603878974914551,1.9560821056365967,0.6880435244994301,168.0,1011.0
B,L,"[2, 2]",1.0,4.0,0.3544490337371826,1.8055610656738281,0.4438779340586234,168.0,1012.0
Y,R,"[2, 3]",1.0,5.0,0.18882393836975098,1.508357048034668,0.3191428420788533,168.0,1013.0
G,D,"[3, 3]",-2.0,3.0,0.4008820056915283,2.106510877609253,0.6920173183361391,168.0,1014.0
,,"(3, 3)",,,,,,168.0,
R,U,"[2, 3]",1.0,1.0,0.5079131126403809,3.303115129470825,0.3787594261427675,,1015.0
B,L,"[2, 2]",1.0,2.0,0.22203803062438965,1.7709689140319824,0.5497259653042306,169.0,1016.0
Y,R,"[2, 3]",1.0,3.0,0.259814977645874,1.605808973312378,0.33903828783719797,169.0,1017.0
B,L,"[2, 2]",1.0,4.0,0.3068690299987793,1.7496609687805176,0.4387469330573416,169.0,1018.0
Y,R,"[2, 3]",1.0,5.0,0.2520630359649658,1.658653974533081,0.39772197257608116,169.0,1019.0
Y,R,"[2, 4]",-1.0,4.0,0.2477879524230957,1.8139939308166504,0.5615931259364808,169.0,1020.0
,,"(3, 3)",,,,,,169.0,
R,U,"[2, 3]",1.0,1.0,0.4104650020599365,4.273883819580078,0.6852281569224308,,1021.0
B,L,"[2, 2]",1.0,2.0,0.18416810035705566,1.9165170192718506,0.7183379864066259,170.0,1022.0
Y,R,"[2, 3]",1.0,3.0,0.19678711891174316,1.4814519882202148,0.28365637094378127,170.0,1023.0
B,L,"[2, 2]",1.0,4.0,0.3353269100189209,1.8244209289550781,0.4746138052859257,170.0,1024.0
Y,R,"[2, 3]",1.0,5.0,0.2831737995147705,2.0222299098968506,0.7298448997911953,170.0,1025.0
R,U,"[1, 3]",-1.0,4.0,0.2275240421295166,1.6329050064086914,0.3799276189458064,170.0,1026.0
,,"(3, 3)",,,,,,170.0,
R,U,"[2, 3]",1.0,1.0,0.7071719169616699,3.764578104019165,0.461095222415885,,1027.0
B,L,"[2, 2]",1.0,2.0,0.25826597213745117,1.7149391174316406,0.4595733221047401,171.0,1028.0
Y,R,"[2, 3]",1.0,3.0,0.2927849292755127,1.994861125946045,0.704217309102062,171.0,1029.0
B,L,"[2, 2]",1.0,4.0,0.24580788612365723,1.6971728801727295,0.4518842820021677,171.0,1030.0
Y,R,"[2, 3]",1.0,5.0,0.23493099212646484,1.7413890361785889,0.5099456058579954,171.0,1031.0
G,D,"[3, 3]",-2.0,3.0,0.23647809028625488,1.5243608951568604,0.30101524595429946,171.0,1032.0
,,"(3, 3)",,,,,,171.0,
R,U,"[2, 3]",1.0,1.0,0.43448495864868164,3.343557834625244,0.361302010087388,,1033.0
B,L,"[2, 2]",1.0,2.0,0.20616793632507324,1.550633192062378,0.345309117490567,172.0,1034.0
G,D,"[3, 2]",-1.0,1.0,0.23012900352478027,1.7952780723571777,0.5570865869343713,172.0,1035.0
Y,R,"[3, 3]",-2.0,-1.0,0.19231104850769043,1.9409539699554443,0.7479710894726577,172.0,1036.0
B,L,"[3, 2]",-1.0,-2.0,0.4021139144897461,1.9022951126098633,0.4838163796917509,172.0,1037.0
R,U,"[2, 2]",1.0,-1.0,0.2102820873260498,1.9072179794311523,0.6909375723810333,172.0,1038.0
,,"(3, 3)",,,,,,172.0,
R,U,"[2, 3]",1.0,1.0,0.39926600456237793,3.2009289264678955,0.7251733667010312,,1039.0
B,L,"[2, 2]",1.0,2.0,0.22171902656555176,1.901029109954834,0.6763106453894226,173.0,1040.0
Y,R,"[2, 3]",1.0,3.0,0.2766001224517822,1.854640007019043,0.5811207056562745,173.0,1041.0
B,L,"[2, 2]",1.0,4.0,0.26935601234436035,1.547814130783081,0.26263204333936985,173.0,1042.0
Y,R,"[2, 3]",1.0,5.0,0.3367159366607666,1.9962949752807617,0.6587490303062917,173.0,1043.0
B,L,"[2, 2]",1.0,6.0,0.26174092292785645,1.786503791809082,0.5288057939246255,173.0,1044.0
,,"(3, 3)",,,,,,173.0,
R,U,"[2, 3]",1.0,1.0,0.7433431148529053,3.2334349155426025,0.46242962280875943,,1045.0
B,L,"[2, 2]",1.0,2.0,0.276400089263916,1.5577068328857422,0.28693669285309553,174.0,1046.0
Y,R,"[2, 3]",1.0,3.0,0.32236313819885254,1.989285945892334,0.6592174728888083,174.0,1047.0
B,L,"[2, 2]",1.0,4.0,0.2144298553466797,1.6247820854187012,0.41753317526968814,174.0,1048.0
Y,R,"[2, 3]",1.0,5.0,0.23013091087341309,1.6223981380462646,0.39004421602362727,174.0,1049.0
B,L,"[2, 2]",1.0,6.0,0.32230615615844727,1.6269569396972656,0.30043777252123827,174.0,1050.0
,,"(3, 3)",,,,,,174.0,
R,U,"[2, 3]",1.0,1.0,0.5132350921630859,5.193561792373657,0.27779716475147365,,1051.0
B,L,"[2, 2]",1.0,2.0,0.30594706535339355,1.593008041381836,0.2874332052957902,175.0,1052.0
Y,R,"[2, 3]",1.0,3.0,0.2859950065612793,2.017806053161621,0.7216203211959871,175.0,1053.0
B,L,"[2, 2]",1.0,4.0,0.22855114936828613,1.66762113571167,0.43947821438088264,175.0,1054.0
Y,R,"[2, 3]",1.0,5.0,0.2697410583496094,1.665755033493042,0.3887433332541296,175.0,1055.0
B,L,"[2, 2]",1.0,6.0,0.3262350559234619,1.6177690029144287,0.2898673768292138,175.0,1056.0
,,"(3, 3)",,,,,,175.0,
R,U,"[2, 3]",1.0,1.0,0.4318959712982178,5.69641900062561,0.46946039409504203,,1057.0
B,L,"[2, 2]",1.0,2.0,0.2536630630493164,1.7873508930206299,0.5235698413411467,176.0,1058.0
Y,R,"[2, 3]",1.0,3.0,0.24640297889709473,1.9866349697113037,0.7433132647632256,176.0,1059.0
B,L,"[2, 2]",1.0,4.0,0.18938112258911133,1.8326010704040527,0.6426980685553241,176.0,1060.0
Y,R,"[2, 3]",1.0,5.0,0.20891189575195312,1.669532060623169,0.4622723827941816,176.0,1061.0
B,L,"[2, 2]",1.0,6.0,0.24529600143432617,1.866386890411377,0.6288745428298737,176.0,1062.0
,,"(3, 3)",,,,,,176.0,
R,U,"[2, 3]",1.0,1.0,0.5525820255279541,3.713230848312378,0.6753382669267045,,1063.0
B,L,"[2, 2]",1.0,2.0,0.2662839889526367,1.58577299118042,0.3115018913216054,177.0,1064.0
Y,R,"[2, 3]",1.0,3.0,0.27701377868652344,1.7376301288604736,0.4659541332330228,177.0,1065.0
B,L,"[2, 2]",1.0,4.0,0.26407599449157715,1.8625588417053223,0.5949026509716613,177.0,1066.0
Y,R,"[2, 3]",1.0,5.0,0.2412559986114502,1.646906852722168,0.40889455511503814,177.0,1067.0
B,L,"[2, 2]",1.0,6.0,0.2690718173980713,1.8485100269317627,0.5738779718931564,177.0,1068.0
,,"(3, 3)",,,,,,177.0,
R,U,"[2, 3]",1.0,1.0,0.4444301128387451,26.555513858795166,0.7131508445561224,,1069.0
B,L,"[2, 2]",1.0,2.0,0.2903871536254883,1.7433078289031982,0.4401297119350765,178.0,1070.0
Y,R,"[2, 3]",1.0,3.0,0.3449859619140625,1.9290168285369873,0.5858686689890966,178.0,1071.0
B,L,"[2, 2]",1.0,4.0,0.24071407318115234,1.6003878116607666,0.3529793707369026,178.0,1072.0
Y,R,"[2, 3]",1.0,5.0,0.36286091804504395,1.8900728225708008,0.5264138804571147,178.0,1073.0
B,L,"[2, 2]",1.0,6.0,0.21258997917175293,1.5403778553009033,0.3335989561548976,178.0,1074.0
,,"(3, 3)",,,,,,178.0,
R,U,"[2, 3]",-2.0,0.0,1.2088589668273926,3.5916669368743896,0.25877326860436817,,1075.0
