button_choice,action_choice,coordinate_choice,reward,cumulative_reward,rt,total_trial_time,iti,block_n,trial_n
Y,R,"[3, 4]",-2.0,0.0,2.3236160278320312,4.017208099365234,0.6512114808159599,0.0,1.0
B,L,"[3, 3]",0.0,0.0,0.5235238075256348,2.1301989555358887,0.5982214764494971,0.0,2.0
G,D,"[4, 3]",-1.0,-1.0,0.9591400623321533,2.4700419902801514,0.48485434127832877,0.0,3.0
Y,R,"[4, 4]",-1.0,-2.0,0.6485049724578857,2.174191951751709,0.4926008176084663,0.0,4.0
B,L,"[4, 3]",0.0,-2.0,0.36916494369506836,1.8561151027679443,0.498779411684923,0.0,5.0
R,U,"[3, 3]",0.0,-2.0,0.4506239891052246,1.867581844329834,0.4163363116209893,0.0,6.0
,,"(3, 3)",,,,,,0.0,
Y,R,"[3, 4]",-1.0,-1.0,0.9883041381835938,8.41952896118164,0.5027483199843312,,7.0
Y,R,"[3, 5]",-1.0,-2.0,0.3708169460296631,2.0710439682006836,0.6901800823231314,1.0,8.0
R,U,"[2, 5]",-1.0,-3.0,0.2521779537200928,1.8405778408050537,0.5809116554375757,1.0,9.0
B,L,"[2, 4]",-1.0,-4.0,0.2459559440612793,1.8591058254241943,0.6066608697983313,1.0,10.0
G,D,"[3, 4]",0.0,-4.0,0.4977600574493408,1.773310899734497,0.2803560247003497,1.0,11.0
Y,R,"[3, 5]",-2.0,-4.0,1.0575690269470215,2.5857720375061035,0.4825784230617505,1.0,12.0
,,"(3, 3)",,,,,,1.0,
R,U,"[2, 3]",-1.0,-1.0,0.6400749683380127,7.7214930057525635,0.7205830901037348,,13.0
G,D,"[3, 3]",0.0,-1.0,0.2889409065246582,1.560805082321167,0.26540521074112383,2.0,14.0
G,D,"[4, 3]",-1.0,-2.0,0.36330580711364746,1.9594299793243408,0.5743681808896512,2.0,15.0
B,L,"[4, 2]",-1.0,-3.0,0.4858100414276123,1.7647030353546143,0.28949782163044946,2.0,16.0
G,D,"[5, 2]",-2.0,-3.0,1.6938390731811523,3.1536149978637695,0.4264268159394552,2.0,17.0
G,D,"[6, 2]",0.0,-3.0,0.6639089584350586,2.1768689155578613,0.5198299939935428,2.0,18.0
,,"(3, 3)",,,,,,2.0,
Y,R,"[3, 4]",-1.0,-1.0,0.7363801002502441,6.403723955154419,0.44036497417637216,,19.0
Y,R,"[3, 5]",-1.0,-2.0,0.3877880573272705,1.7701561450958252,0.3772489104814649,3.0,20.0
Y,R,"[3, 6]",0.0,-2.0,0.4742288589477539,1.7656621932983398,0.2931118628145135,3.0,21.0
Y,R,"[3, 6]",0.0,-2.0,0.32093119621276855,2.0552539825439453,0.7312783034557164,3.0,22.0
Y,R,"[3, 6]",0.0,-2.0,0.24409818649291992,1.6086409091949463,0.3569363573097701,3.0,23.0
Y,R,"[3, 6]",0.0,-2.0,0.4101138114929199,1.6992371082305908,0.2896328435717248,3.0,24.0
,,"(3, 3)",,,,,,3.0,
B,L,"[3, 2]",-2.0,0.0,1.1551599502563477,7.172296047210693,0.26202382004699,,25.0
B,L,"[3, 1]",1.0,1.0,0.4556598663330078,1.7920520305633545,0.33733683476509585,4.0,26.0
B,L,"[3, 0]",0.0,1.0,0.44886112213134766,1.9584410190582275,0.5124516992968222,4.0,27.0
B,L,"[3, 0]",0.0,1.0,0.5366740226745605,2.1192100048065186,0.5813898600924068,4.0,28.0
Y,R,"[3, 1]",0.0,1.0,0.2575361728668213,1.6526188850402832,0.3843161469140072,4.0,29.0
G,D,"[4, 1]",-1.0,0.0,0.3157999515533447,1.6468379497528076,0.31470877021590044,4.0,30.0
,,"(3, 3)",,,,,,4.0,
B,L,"[3, 2]",1.0,1.0,0.8179419040679932,4.1839821338653564,0.2821415998521251,,31.0
Y,R,"[3, 3]",0.0,1.0,0.35647106170654297,1.7770709991455078,0.40882850708740365,5.0,32.0
B,L,"[3, 2]",0.0,1.0,0.23411798477172852,1.5866649150848389,0.3624425586107163,5.0,33.0
R,U,"[2, 2]",-1.0,1.0,0.010916948318481445,5.519414901733398,0.39862255861766976,5.0,34.0
R,U,"[1, 2]",1.0,2.0,0.4104030132293701,1.8551859855651855,0.4037386600429292,5.0,35.0
G,D,"[2, 2]",0.0,2.0,0.34485912322998047,1.9239718914031982,0.5776245151045721,5.0,36.0
,,"(3, 3)",,,,,,5.0,
Y,R,"[3, 4]",-1.0,-1.0,0.761667013168335,5.002542018890381,0.3803621959610811,,37.0
B,L,"[3, 3]",0.0,-1.0,0.24427080154418945,1.5987908840179443,0.3459910120437645,6.0,38.0
G,D,"[4, 3]",-1.0,-2.0,0.23998498916625977,1.5917129516601562,0.3543663577359116,6.0,39.0
B,L,"[4, 2]",-1.0,-3.0,0.26920604705810547,1.9244799613952637,0.6451833110247087,6.0,40.0
R,U,"[3, 2]",-1.0,-3.0,0.004397869110107422,5.681509017944336,0.5601932732074804,6.0,41.0
R,U,"[2, 2]",1.0,-2.0,0.37058305740356445,1.6256449222564697,0.2530510346492299,6.0,42.0
,,"(3, 3)",,,,,,6.0,
R,U,"[2, 3]",-1.0,-1.0,0.6220800876617432,4.702728033065796,0.5220420325188391,,43.0
G,D,"[3, 3]",0.0,-1.0,0.752263069152832,2.4151980876922607,0.6538587787306128,7.0,44.0
B,L,"[3, 2]",1.0,0.0,0.24663496017456055,1.9023818969726562,0.6395777857582013,7.0,45.0
B,L,"[3, 1]",1.0,1.0,0.3927469253540039,1.9276809692382812,0.5339730862850508,7.0,46.0
B,L,"[3, 0]",0.0,1.0,0.2866091728210449,1.7982959747314453,0.49910765521775186,7.0,47.0
Y,R,"[3, 1]",0.0,1.0,0.239501953125,1.8300628662109375,0.5790719036210658,7.0,48.0
,,"(3, 3)",,,,,,7.0,
R,U,"[2, 3]",-1.0,-1.0,0.6414649486541748,5.678389072418213,0.3910566327558699,,49.0
G,D,"[3, 3]",0.0,-1.0,0.4016890525817871,2.03316593170166,0.6239799307291098,8.0,50.0
G,D,"[4, 3]",-1.0,-2.0,0.2805049419403076,1.8390789031982422,0.5464582512118394,8.0,51.0
B,L,"[4, 2]",-1.0,-3.0,0.2595400810241699,2.0192060470581055,0.7489565361428514,8.0,52.0
R,U,"[3, 2]",1.0,-2.0,0.33792805671691895,1.6163380146026611,0.2658191663867178,8.0,53.0
R,U,"[2, 2]",1.0,-1.0,0.6663720607757568,2.1398978233337402,0.4553951965790238,8.0,54.0
,,"(3, 3)",,,,,,8.0,
Y,R,"[3, 4]",-1.0,-1.0,0.9451849460601807,4.063711881637573,0.4527767385534738,,55.0
B,L,"[3, 3]",0.0,-1.0,0.6795990467071533,1.9783880710601807,0.29788109905805593,9.0,56.0
Y,R,"[3, 4]",0.0,-1.0,0.35231995582580566,1.8241450786590576,0.4720411689685775,9.0,57.0
G,D,"[4, 4]",-1.0,-2.0,0.25879597663879395,1.6271419525146484,0.3658276691367813,9.0,58.0
R,U,"[3, 4]",0.0,-2.0,0.35344386100769043,2.116122007369995,0.7483354232851698,9.0,59.0
B,L,"[3, 3]",0.0,-2.0,0.354902982711792,1.6469471454620361,0.2790679297488613,9.0,60.0
,,"(3, 3)",,,,,,9.0,
B,L,"[3, 2]",1.0,1.0,0.7090740203857422,4.588926076889038,0.7177459315529249,,61.0
B,L,"[3, 1]",1.0,2.0,0.2846798896789551,1.5821161270141602,0.283521760081059,10.0,62.0
G,D,"[4, 1]",-1.0,1.0,0.9254708290100098,2.6073479652404785,0.6738068067506159,10.0,63.0
B,L,"[4, 0]",0.0,1.0,0.2664909362792969,1.649298906326294,0.3899705641636328,10.0,64.0
B,L,"[4, 0]",0.0,1.0,0.5615370273590088,2.029573917388916,0.4697118394113658,10.0,65.0
Y,R,"[4, 1]",0.0,1.0,0.3143429756164551,1.7448251247406006,0.4312692622508982,10.0,66.0
,,"(3, 3)",,,,,,10.0,
R,U,"[2, 3]",-1.0,-1.0,0.4786951541900635,6.680216073989868,0.5947557643562439,,67.0
R,U,"[1, 3]",1.0,0.0,0.3289058208465576,1.8449678421020508,0.5063399522796594,11.0,68.0
G,D,"[2, 3]",0.0,0.0,0.2580418586730957,2.006866931915283,0.7465154605384872,11.0,69.0
B,L,"[2, 2]",1.0,1.0,0.26253294944763184,1.7018330097198486,0.43206176247490113,11.0,70.0
Y,R,"[2, 3]",0.0,1.0,0.4075918197631836,2.0925779342651367,0.6746564728803948,11.0,71.0
R,U,"[1, 3]",0.0,1.0,0.3384709358215332,1.8323190212249756,0.5069537126962269,11.0,72.0
,,"(3, 3)",,,,,,11.0,
R,U,"[2, 3]",-1.0,-1.0,0.6642940044403076,4.879668951034546,0.46992631677278185,,73.0
G,D,"[3, 3]",0.0,-1.0,0.27172303199768066,1.8183867931365967,0.5383686074627607,12.0,74.0
B,L,"[3, 2]",1.0,0.0,0.24703097343444824,1.8036129474639893,0.541887105938369,12.0,75.0
Y,R,"[3, 3]",0.0,0.0,0.25025081634521484,1.494278907775879,0.25317129620100554,12.0,76.0
B,L,"[3, 2]",0.0,0.0,0.32816410064697266,1.788139820098877,0.4577832197556622,12.0,77.0
G,D,"[4, 2]",-1.0,-1.0,0.2560851573944092,1.5849969387054443,0.32617553402917226,12.0,78.0
,,"(3, 3)",,,,,,12.0,
Y,R,"[3, 4]",-1.0,-1.0,0.7423899173736572,3.8347787857055664,0.6775696012699222,,79.0
B,L,"[3, 3]",0.0,-1.0,0.32546114921569824,1.877133846282959,0.5547483843469521,13.0,80.0
Y,R,"[3, 4]",0.0,-1.0,0.5303258895874023,1.9123179912567139,0.3837133948827843,13.0,81.0
Y,R,"[3, 5]",-1.0,-2.0,0.33455586433410645,1.6759741306304932,0.3267280677468179,13.0,82.0
G,D,"[4, 5]",-1.0,-3.0,0.5069479942321777,1.797569990158081,0.29096367762238595,13.0,83.0
R,U,"[3, 5]",0.0,-3.0,0.6330230236053467,2.008164882659912,0.3825039688634851,13.0,84.0
,,"(3, 3)",,,,,,13.0,
R,U,"[2, 3]",-1.0,-1.0,0.8433120250701904,4.763092041015625,0.4290149802356996,,85.0
G,D,"[3, 3]",0.0,-1.0,0.28856611251831055,1.617177963256836,0.3295088839052122,14.0,86.0
B,L,"[3, 2]",1.0,0.0,0.5729618072509766,2.006974935531616,0.4364122465723593,14.0,87.0
B,L,"[3, 1]",1.0,1.0,0.5294721126556396,2.1807568073272705,0.6502316235722374,14.0,88.0
B,L,"[3, 0]",0.0,1.0,0.6661210060119629,2.3537778854370117,0.6707994446949314,14.0,89.0
Y,R,"[3, 1]",0.0,1.0,0.5912830829620361,2.143862009048462,0.5481690988252497,14.0,90.0
,,"(3, 3)",,,,,,14.0,
B,L,"[3, 2]",-2.0,0.0,1.027094841003418,4.834635019302368,0.46639168056745023,,91.0
B,L,"[3, 1]",1.0,1.0,0.6780281066894531,2.380798816680908,0.6968292163522529,15.0,92.0
G,D,"[4, 1]",-1.0,0.0,0.6867659091949463,2.088689088821411,0.3859797632872349,15.0,93.0
B,L,"[4, 0]",0.0,0.0,0.5715010166168213,1.9550349712371826,0.3742460276413999,15.0,94.0
B,L,"[4, 0]",0.0,0.0,0.4798431396484375,1.7735989093780518,0.29798212092722476,15.0,95.0
Y,R,"[4, 1]",0.0,0.0,0.4133188724517822,2.1527631282806396,0.7336460388537854,15.0,96.0
,,"(3, 3)",,,,,,15.0,
R,U,"[2, 3]",-1.0,-1.0,0.7298130989074707,5.479588985443115,0.29723442214149476,,97.0
G,D,"[3, 3]",0.0,-1.0,0.36723899841308594,2.0855629444122314,0.6990976597250734,16.0,98.0
B,L,"[3, 2]",1.0,0.0,0.23598384857177734,1.6182138919830322,0.36747328271036156,16.0,99.0
B,L,"[3, 1]",1.0,1.0,0.4305140972137451,2.131027936935425,0.6985062521290992,16.0,100.0
B,L,"[3, 0]",0.0,1.0,0.32608699798583984,1.6405918598175049,0.3059426780905507,16.0,101.0
Y,R,"[3, 1]",0.0,1.0,0.39583921432495117,1.7989628314971924,0.4049133999925791,16.0,102.0
,,"(3, 3)",,,,,,16.0,
G,D,"[4, 3]",-2.0,0.0,1.018298864364624,4.599339008331299,0.38754441898319963,,103.0
G,D,"[5, 3]",-1.0,-1.0,0.32703113555908203,1.9505400657653809,0.6211992859845585,17.0,104.0
B,L,"[5, 2]",-1.0,-2.0,0.28226399421691895,1.6428179740905762,0.34774052984688414,17.0,105.0
R,U,"[4, 2]",-1.0,-3.0,0.44934892654418945,1.8132240772247314,0.3443943107855408,17.0,106.0
G,D,"[5, 2]",0.0,-3.0,0.3844139575958252,2.012906074523926,0.6240011955841194,17.0,107.0
Y,R,"[5, 3]",0.0,-3.0,0.4037799835205078,1.6980719566345215,0.30535570236348664,17.0,108.0
,,"(3, 3)",,,,,,17.0,
B,L,"[3, 2]",1.0,1.0,0.6138319969177246,4.191257953643799,0.6130997200451789,,109.0
B,L,"[3, 1]",1.0,2.0,0.20300889015197754,1.6456620693206787,0.4256643301470388,18.0,110.0
Y,R,"[3, 2]",0.0,2.0,0.7155029773712158,2.4161629676818848,0.7080929467355653,18.0,111.0
G,D,"[4, 2]",-2.0,2.0,1.2899229526519775,2.6989729404449463,0.37417616310469987,18.0,112.0
G,D,"[5, 2]",-1.0,1.0,0.4690079689025879,1.797785997390747,0.3222045591241263,18.0,113.0
B,L,"[5, 1]",-1.0,0.0,0.44006800651550293,1.7339301109313965,0.2894093647208862,18.0,114.0
,,"(3, 3)",,,,,,18.0,
B,L,"[3, 2]",1.0,1.0,0.4565708637237549,3.182827949523926,0.40578611689269306,,115.0
B,L,"[3, 1]",1.0,2.0,0.2095479965209961,1.6875109672546387,0.4765723692387523,19.0,116.0
R,U,"[2, 1]",-2.0,2.0,1.2723779678344727,2.8041582107543945,0.48045138712805163,19.0,117.0
R,U,"[1, 1]",-1.0,1.0,0.24172401428222656,1.8236780166625977,0.5706390641858201,19.0,118.0
Y,R,"[1, 2]",1.0,2.0,0.4691019058227539,1.848168134689331,0.36912470506022643,19.0,119.0
B,L,"[1, 1]",0.0,2.0,0.5252411365509033,2.266649007797241,0.7355239343554714,19.0,120.0
,,"(3, 3)",,,,,,19.0,
B,L,"[3, 2]",1.0,1.0,0.5488429069519043,3.6307599544525146,0.3502886351439459,,121.0
B,L,"[3, 1]",1.0,2.0,0.24631786346435547,1.7222199440002441,0.47208122858994034,20.0,122.0
B,L,"[3, 0]",0.0,2.0,0.2017960548400879,1.7651619911193848,0.5706218516436405,20.0,123.0
R,U,"[2, 0]",0.0,2.0,0.25111889839172363,1.660508155822754,0.4145708803361757,20.0,124.0
Y,R,"[2, 1]",1.0,3.0,0.44850707054138184,1.9883060455322266,0.5195206604480211,20.0,125.0
Y,R,"[2, 2]",1.0,4.0,0.44237303733825684,1.949862003326416,0.5026948840407063,20.0,126.0
,,"(3, 3)",,,,,,20.0,
B,L,"[3, 2]",1.0,1.0,0.5479030609130859,4.191334009170532,0.4609259498325265,,127.0
B,L,"[3, 1]",1.0,2.0,0.1746368408203125,1.4705631732940674,0.2982467216284139,21.0,128.0
Y,R,"[3, 2]",0.0,2.0,0.31384992599487305,1.5787439346313477,0.2604064889885806,21.0,129.0
Y,R,"[3, 3]",0.0,2.0,0.3042287826538086,1.765491008758545,0.45906778205353416,21.0,130.0
R,U,"[2, 3]",-1.0,1.0,0.29668712615966797,1.7302970886230469,0.42288153379529525,21.0,131.0
G,D,"[3, 3]",0.0,1.0,0.23244595527648926,1.643751859664917,0.4166226560463938,21.0,132.0
,,"(3, 3)",,,,,,21.0,
B,L,"[3, 2]",1.0,1.0,0.4243619441986084,4.063272953033447,0.679705242317153,,133.0
B,L,"[3, 1]",1.0,2.0,0.19602203369140625,1.5084412097930908,0.30512577096214,22.0,134.0
B,L,"[3, 0]",0.0,2.0,0.46296095848083496,1.79677414894104,0.33519939299686546,22.0,135.0
Y,R,"[3, 1]",0.0,2.0,0.31714606285095215,1.8730449676513672,0.558031960468913,22.0,136.0
G,D,"[4, 1]",-1.0,1.0,0.2835841178894043,1.7294518947601318,0.43773976432589745,22.0,137.0
R,U,"[3, 1]",0.0,1.0,0.2722799777984619,1.92901611328125,0.6499382057733427,22.0,138.0
,,"(3, 3)",,,,,,22.0,
B,L,"[3, 2]",1.0,1.0,0.5369689464569092,4.080636978149414,0.6805785695055567,,139.0
B,L,"[3, 1]",1.0,2.0,0.19858098030090332,1.7807869911193848,0.5613635533728221,23.0,140.0
G,D,"[4, 1]",-1.0,1.0,0.7920260429382324,2.0504751205444336,0.2621589129026461,23.0,141.0
B,L,"[4, 0]",0.0,1.0,0.31211090087890625,1.8237271308898926,0.5191310251692323,23.0,142.0
Y,R,"[4, 1]",0.0,1.0,0.2469618320465088,1.7445030212402344,0.49702325716422985,23.0,143.0
Y,R,"[4, 2]",-1.0,0.0,0.2900240421295166,1.7243850231170654,0.4214885191481249,23.0,144.0
,,"(3, 3)",,,,,,23.0,
B,L,"[3, 2]",1.0,1.0,0.5948781967163086,3.9158740043640137,0.5703525849324278,,145.0
B,L,"[3, 1]",1.0,2.0,0.19814109802246094,1.4598321914672852,0.26389201693329944,24.0,146.0
B,L,"[3, 0]",0.0,2.0,0.3231041431427002,1.8911890983581543,0.5548773130240936,24.0,147.0
B,L,"[3, 0]",0.0,2.0,0.377269983291626,1.9411718845367432,0.5627813921821319,24.0,148.0
B,L,"[3, 0]",0.0,2.0,0.29688477516174316,1.8514418601989746,0.5477226453046279,24.0,149.0
B,L,"[3, 0]",0.0,2.0,0.3551790714263916,1.8435449600219727,0.4912957717355036,24.0,150.0
,,"(3, 3)",,,,,,24.0,
B,L,"[3, 2]",1.0,1.0,0.8654849529266357,3.9249308109283447,0.49958764928370986,,151.0
B,L,"[3, 1]",1.0,2.0,0.3253920078277588,1.8209669589996338,0.487308941587342,25.0,152.0
B,L,"[3, 0]",0.0,2.0,0.6609010696411133,1.9266948699951172,0.26441022597575164,25.0,153.0
Y,R,"[3, 1]",0.0,2.0,0.38154101371765137,1.672630786895752,0.2869163726972313,25.0,154.0
B,L,"[3, 0]",0.0,2.0,0.49788498878479004,2.21750807762146,0.7206132474813107,25.0,155.0
Y,R,"[3, 1]",0.0,2.0,0.3092529773712158,1.7730419635772705,0.46062677974446004,25.0,156.0
,,"(3, 3)",,,,,,25.0,
B,L,"[3, 2]",1.0,1.0,0.5307810306549072,3.554766893386841,0.4988638923639503,,157.0
B,L,"[3, 1]",1.0,2.0,0.2746269702911377,1.667160987854004,0.38272842430977555,26.0,158.0
B,L,"[3, 0]",0.0,2.0,0.6536459922790527,2.3007278442382812,0.6336261856317345,26.0,159.0
R,U,"[2, 0]",0.0,2.0,0.2617340087890625,1.8073718547821045,0.5407310153854498,26.0,160.0
G,D,"[3, 0]",0.0,2.0,0.5856928825378418,2.2824950218200684,0.7064870336489157,26.0,161.0
Y,R,"[3, 1]",0.0,2.0,0.33852100372314453,1.9601719379425049,0.6167808195598488,26.0,162.0
,,"(3, 3)",,,,,,26.0,
B,L,"[3, 2]",1.0,1.0,0.5234529972076416,4.3502278327941895,0.5502964333076723,,163.0
B,L,"[3, 1]",1.0,2.0,0.22816896438598633,1.7768709659576416,0.5440221919293231,27.0,164.0
R,U,"[2, 1]",1.0,3.0,0.3414320945739746,1.8305909633636475,0.4912130877854151,27.0,165.0
R,U,"[1, 1]",-1.0,2.0,0.778282880783081,2.103088855743408,0.3278033774718017,27.0,166.0
G,D,"[2, 1]",0.0,2.0,0.4392430782318115,2.0833208560943604,0.644238638110517,27.0,167.0
G,D,"[3, 1]",0.0,2.0,0.887225866317749,2.604006052017212,0.7149551374104298,27.0,168.0
,,"(3, 3)",,,,,,27.0,
B,L,"[3, 2]",1.0,1.0,0.8400318622589111,3.529378890991211,0.328077877090571,,169.0
B,L,"[3, 1]",1.0,2.0,0.3088109493255615,1.7209630012512207,0.41568650279991204,28.0,170.0
R,U,"[2, 1]",1.0,3.0,0.22171401977539062,1.8077502250671387,0.5731931409507136,28.0,171.0
Y,R,"[2, 2]",1.0,4.0,0.20882201194763184,1.543558120727539,0.33384993783158123,28.0,172.0
G,D,"[3, 2]",0.0,4.0,0.3446540832519531,1.9270379543304443,0.5773162943862246,28.0,173.0
Y,R,"[3, 3]",0.0,4.0,0.2790389060974121,1.5639278888702393,0.2915345869594523,28.0,174.0
,,"(3, 3)",,,,,,28.0,
B,L,"[3, 2]",1.0,1.0,0.7989180088043213,3.985214948654175,0.41026239428194294,,175.0
B,L,"[3, 1]",1.0,2.0,0.2112870216369629,1.7948980331420898,0.5883102513434304,29.0,176.0
R,U,"[2, 1]",1.0,3.0,0.18836092948913574,1.6304411888122559,0.43537772606714414,29.0,177.0
Y,R,"[2, 2]",1.0,4.0,0.23315787315368652,1.947206974029541,0.6989149036155833,29.0,178.0
Y,R,"[2, 3]",-1.0,3.0,0.19506096839904785,1.8244569301605225,0.6067710401191764,29.0,179.0
G,D,"[3, 3]",0.0,3.0,0.9066779613494873,2.1707990169525146,0.2613991002522672,29.0,180.0
,,"(3, 3)",,,,,,29.0,
B,L,"[3, 2]",1.0,1.0,0.6395270824432373,3.616429090499878,0.47764982625300106,,181.0
B,L,"[3, 1]",1.0,2.0,0.2696101665496826,1.6789021492004395,0.40670575751684385,30.0,182.0
R,U,"[2, 1]",1.0,3.0,0.20107698440551758,1.6771368980407715,0.46712712878193285,30.0,183.0
Y,R,"[2, 2]",1.0,4.0,0.19077086448669434,1.8375968933105469,0.6379237288794111,30.0,184.0
G,D,"[3, 2]",0.0,4.0,0.20372700691223145,1.9523990154266357,0.7403076056792728,30.0,185.0
B,L,"[3, 1]",0.0,4.0,0.22155499458312988,1.659229040145874,0.4331195328677166,30.0,186.0
,,"(3, 3)",,,,,,30.0,
B,L,"[3, 2]",1.0,1.0,0.6975181102752686,3.549941062927246,0.5163144787799012,,187.0
B,L,"[3, 1]",1.0,2.0,0.20721793174743652,1.906865119934082,0.6897738031147213,31.0,188.0
R,U,"[2, 1]",1.0,3.0,0.17869091033935547,1.5893049240112305,0.41278431900186796,31.0,189.0
Y,R,"[2, 2]",1.0,4.0,0.360975980758667,1.6761457920074463,0.322286817349869,31.0,190.0
B,L,"[2, 1]",0.0,4.0,0.4365849494934082,2.015316963195801,0.5708746313165647,31.0,191.0
R,U,"[1, 1]",-1.0,3.0,0.24346709251403809,1.888826847076416,0.6429337888359022,31.0,192.0
,,"(3, 3)",,,,,,31.0,
B,L,"[3, 2]",1.0,1.0,0.44712018966674805,3.39658784866333,0.4396887154627736,,193.0
B,L,"[3, 1]",1.0,2.0,0.2168898582458496,1.6337089538574219,0.4068092748508171,32.0,194.0
R,U,"[2, 1]",1.0,3.0,0.27263307571411133,1.9890029430389404,0.7288409475826876,32.0,195.0
Y,R,"[2, 2]",1.0,4.0,0.1774730682373047,1.5667450428009033,0.39592643896077967,32.0,196.0
R,U,"[1, 2]",1.0,5.0,0.25481510162353516,1.5979409217834473,0.343957561934483,32.0,197.0
Y,R,"[1, 3]",1.0,6.0,0.5956919193267822,1.9129328727722168,0.32372937691193826,32.0,198.0
,,"(3, 3)",,,,,,32.0,
B,L,"[3, 2]",1.0,1.0,0.694058895111084,3.6884891986846924,0.3621974649629336,,199.0
B,L,"[3, 1]",1.0,2.0,0.3641691207885742,1.6047320365905762,0.2504144329149517,33.0,200.0
R,U,"[2, 1]",1.0,3.0,0.3673121929168701,1.7561061382293701,0.373137967117852,33.0,201.0
Y,R,"[2, 2]",1.0,4.0,0.20032095909118652,1.5015251636505127,0.2911602704172006,33.0,202.0
R,U,"[1, 2]",1.0,5.0,0.28687381744384766,1.9481050968170166,0.6728625439539471,33.0,203.0
Y,R,"[1, 3]",1.0,6.0,0.19169116020202637,1.6538941860198975,0.45998834687942197,33.0,204.0
,,"(3, 3)",,,,,,33.0,
B,L,"[3, 2]",1.0,1.0,0.6338341236114502,4.105062007904053,0.5647500465811511,,205.0
B,L,"[3, 1]",1.0,2.0,0.21544098854064941,1.8334400653839111,0.6149684008910926,34.0,206.0
R,U,"[2, 1]",1.0,3.0,0.19382500648498535,1.730816125869751,0.5291993135903444,34.0,207.0
Y,R,"[2, 2]",1.0,4.0,0.21339797973632812,1.8076379299163818,0.6034986853575708,34.0,208.0
R,U,"[1, 2]",1.0,5.0,0.16367793083190918,1.498054027557373,0.3351835797298839,34.0,209.0
Y,R,"[1, 3]",1.0,6.0,0.2567930221557617,1.544213056564331,0.27972344235304236,34.0,210.0
,,"(3, 3)",,,,,,34.0,
B,L,"[3, 2]",1.0,1.0,0.4853510856628418,6.550213098526001,0.6461310875125859,,211.0
B,L,"[3, 1]",1.0,2.0,0.17293596267700195,1.48114013671875,0.2943907096592032,35.0,212.0
R,U,"[2, 1]",1.0,3.0,0.3262479305267334,2.0080249309539795,0.6856282150989278,35.0,213.0
Y,R,"[2, 2]",1.0,4.0,0.17671895027160645,1.75449800491333,0.5731058440121273,35.0,214.0
R,U,"[1, 2]",1.0,5.0,0.37549901008605957,1.7386291027069092,0.36212900489736327,35.0,215.0
Y,R,"[1, 3]",1.0,6.0,0.4024479389190674,1.9153847694396973,0.5106744920428976,35.0,216.0
,,"(3, 3)",,,,,,35.0,
B,L,"[3, 2]",1.0,1.0,0.5570299625396729,3.5924549102783203,0.4202271802796372,,217.0
B,L,"[3, 1]",1.0,2.0,0.26391005516052246,1.8842668533325195,0.6207860618877181,36.0,218.0
R,U,"[2, 1]",1.0,3.0,0.22961807250976562,1.9374809265136719,0.7080860724060638,36.0,219.0
Y,R,"[2, 2]",1.0,4.0,0.396543025970459,1.9411602020263672,0.5494852988832317,36.0,220.0
R,U,"[1, 2]",1.0,5.0,0.29540205001831055,1.7378730773925781,0.4375514330831253,36.0,221.0
Y,R,"[1, 3]",1.0,6.0,0.4341459274291992,1.8934581279754639,0.4477116900289437,36.0,222.0
,,"(3, 3)",,,,,,36.0,
B,L,"[3, 2]",1.0,1.0,0.8855850696563721,4.286319017410278,0.36761666406286336,,223.0
B,L,"[3, 1]",1.0,2.0,0.3941459655761719,1.8942739963531494,0.49493253372272134,37.0,224.0
R,U,"[2, 1]",1.0,3.0,0.23291707038879395,1.6675808429718018,0.4292854745744272,37.0,225.0
Y,R,"[2, 2]",1.0,4.0,0.25312280654907227,1.5219309329986572,0.2681981467779335,37.0,226.0
R,U,"[1, 2]",1.0,5.0,0.4188261032104492,2.086005210876465,0.6535455793092474,37.0,227.0
Y,R,"[1, 3]",1.0,6.0,0.2255408763885498,1.5439629554748535,0.3147079297666057,37.0,228.0
,,"(3, 3)",,,,,,37.0,
B,L,"[3, 2]",1.0,1.0,0.5851421356201172,3.8558318614959717,0.6035471087035358,,229.0
B,L,"[3, 1]",1.0,2.0,0.1920480728149414,1.5063729286193848,0.31036802139031594,38.0,230.0
R,U,"[2, 1]",1.0,3.0,0.293809175491333,1.6621818542480469,0.37234181216618983,38.0,231.0
Y,R,"[2, 2]",1.0,4.0,0.15543389320373535,1.6310300827026367,0.47009676183154175,38.0,232.0
R,U,"[1, 2]",-1.0,4.0,0.09930992126464844,5.782577991485596,0.5360610749918453,38.0,233.0
R,U,"[0, 2]",0.0,4.0,0.3387949466705322,1.7647960186004639,0.41772972462286817,38.0,234.0
,,"(3, 3)",,,,,,38.0,
B,L,"[3, 2]",1.0,1.0,0.4006688594818115,4.02340292930603,0.3246570196417334,,235.0
B,L,"[3, 1]",1.0,2.0,0.33753514289855957,1.7060179710388184,0.3639247231075952,39.0,236.0
R,U,"[2, 1]",1.0,3.0,0.39696407318115234,1.7452030181884766,0.3423344783146914,39.0,237.0
Y,R,"[2, 2]",1.0,4.0,0.4996151924133301,1.8192219734191895,0.32840233086581416,39.0,238.0
R,U,"[1, 2]",1.0,5.0,0.37717580795288086,1.8360521793365479,0.4643755867962112,39.0,239.0
Y,R,"[1, 3]",1.0,6.0,0.3822460174560547,1.6658051013946533,0.263760925338451,39.0,240.0
,,"(3, 3)",,,,,,39.0,
B,L,"[3, 2]",1.0,1.0,0.7943449020385742,3.59269118309021,0.48957577889951714,,241.0
B,L,"[3, 1]",1.0,2.0,0.4628260135650635,2.2087509632110596,0.7481654224162853,40.0,242.0
R,U,"[2, 1]",1.0,3.0,0.369844913482666,2.083791971206665,0.6985990258465222,40.0,243.0
Y,R,"[2, 2]",1.0,4.0,0.463515043258667,1.7323641777038574,0.26478950679559793,40.0,244.0
R,U,"[1, 2]",1.0,5.0,0.6735169887542725,2.236156940460205,0.5506925646466463,40.0,245.0
Y,R,"[1, 3]",1.0,6.0,0.566107988357544,2.0970630645751953,0.5311013361949735,40.0,246.0
,,"(3, 3)",,,,,,40.0,
B,L,"[3, 2]",-2.0,0.0,1.104447841644287,4.244507074356079,0.3427642981617996,,247.0
B,L,"[3, 1]",1.0,1.0,0.229996919631958,1.9322140216827393,0.7077638299156255,41.0,248.0
B,L,"[3, 0]",0.0,1.0,0.18388700485229492,1.6561989784240723,0.46426507740255263,41.0,249.0
R,U,"[2, 0]",0.0,1.0,0.19504594802856445,1.8720369338989258,0.669463149765646,41.0,250.0
Y,R,"[2, 1]",1.0,2.0,0.2483510971069336,1.7231340408325195,0.4594906121964481,41.0,251.0
R,U,"[1, 1]",-1.0,1.0,0.16875314712524414,1.44492506980896,0.27140868105843435,41.0,252.0
,,"(3, 3)",,,,,,41.0,
B,L,"[3, 2]",1.0,1.0,0.3068101406097412,3.152271032333374,0.540094960379242,,253.0
B,L,"[3, 1]",1.0,2.0,0.18113017082214355,1.5458240509033203,0.3693311821606019,42.0,254.0
R,U,"[2, 1]",1.0,3.0,0.17803096771240234,1.8869202136993408,0.7059179330135426,42.0,255.0
Y,R,"[2, 2]",-1.0,3.0,0.0865778923034668,5.913853883743286,0.6869210021040071,42.0,256.0
Y,R,"[2, 3]",-1.0,2.0,0.24212002754211426,1.8318819999694824,0.5852828656557978,42.0,257.0
R,U,"[1, 3]",1.0,3.0,0.7339248657226562,2.4748342037200928,0.7266850646475334,42.0,258.0
,,"(3, 3)",,,,,,42.0,
B,L,"[3, 2]",1.0,1.0,0.42179298400878906,3.2366490364074707,0.5636384610512657,,259.0
B,L,"[3, 1]",1.0,2.0,0.21556591987609863,1.753709077835083,0.5174169088683185,43.0,260.0
R,U,"[2, 1]",1.0,3.0,0.20249080657958984,1.9227759838104248,0.706675944697668,43.0,261.0
Y,R,"[2, 2]",1.0,4.0,0.18688106536865234,1.4535150527954102,0.2771212147998682,43.0,262.0
R,U,"[1, 2]",1.0,5.0,0.4760160446166992,1.8822269439697266,0.409505917727858,43.0,263.0
Y,R,"[1, 3]",1.0,6.0,0.3656790256500244,1.9971089363098145,0.6230418655368438,43.0,264.0
,,"(3, 3)",,,,,,43.0,
B,L,"[3, 2]",1.0,1.0,0.37709903717041016,3.0908219814300537,0.3806996689798328,,265.0
B,L,"[3, 1]",1.0,2.0,0.2777891159057617,1.5579910278320312,0.2722822588291268,44.0,266.0
R,U,"[2, 1]",1.0,3.0,0.5088751316070557,2.141155958175659,0.6296645715546143,44.0,267.0
Y,R,"[2, 2]",1.0,4.0,0.35803914070129395,1.7601590156555176,0.39024108278088226,44.0,268.0
R,U,"[1, 2]",1.0,5.0,0.3671600818634033,1.9001259803771973,0.5234372480394882,44.0,269.0
Y,R,"[1, 3]",1.0,6.0,0.2972729206085205,1.5759038925170898,0.28300220030722306,44.0,270.0
,,"(3, 3)",,,,,,44.0,
B,L,"[3, 2]",1.0,1.0,0.4860649108886719,3.655655860900879,0.6382293272212444,,271.0
B,L,"[3, 1]",-1.0,1.0,0.08399200439453125,5.829378843307495,0.6178042958891536,45.0,272.0
R,U,"[2, 1]",1.0,2.0,0.36423397064208984,1.9279570579528809,0.5626470544050051,45.0,273.0
Y,R,"[2, 2]",1.0,3.0,0.2239089012145996,1.9482920169830322,0.6941128910799041,45.0,274.0
R,U,"[1, 2]",1.0,4.0,0.20224499702453613,1.782336950302124,0.5765098599052154,45.0,275.0
Y,R,"[1, 3]",1.0,5.0,0.3171861171722412,2.0651209354400635,0.74147267760285,45.0,276.0
,,"(3, 3)",,,,,,45.0,
B,L,"[3, 2]",1.0,1.0,0.5294790267944336,3.7719719409942627,0.7465898671975292,,277.0
B,L,"[3, 1]",1.0,2.0,0.23229503631591797,1.9621131420135498,0.7090374396974808,46.0,278.0
R,U,"[2, 1]",1.0,3.0,0.25830793380737305,1.8968520164489746,0.639274480332834,46.0,279.0
Y,R,"[2, 2]",1.0,4.0,0.3492698669433594,1.7644050121307373,0.42071898173011246,46.0,280.0
R,U,"[1, 2]",1.0,5.0,0.3971259593963623,1.9225528240203857,0.5265097055423108,46.0,281.0
Y,R,"[1, 3]",1.0,6.0,0.39004993438720703,2.0919480323791504,0.701719256251874,46.0,282.0
,,"(3, 3)",,,,,,46.0,
B,L,"[3, 2]",1.0,1.0,0.4660911560058594,3.181044101715088,0.28299245412312823,,283.0
B,L,"[3, 1]",1.0,2.0,0.5439109802246094,2.048954963684082,0.4984318874322912,47.0,284.0
R,U,"[2, 1]",1.0,3.0,0.35800909996032715,2.0322489738464355,0.6640199814364245,47.0,285.0
Y,R,"[2, 2]",1.0,4.0,0.19084692001342773,1.9363839626312256,0.733568825402116,47.0,286.0
R,U,"[1, 2]",1.0,5.0,0.2205510139465332,1.5889458656311035,0.35645906870841887,47.0,287.0
Y,R,"[1, 3]",1.0,6.0,0.5311439037322998,2.0254628658294678,0.49864255385314193,47.0,288.0
,,"(3, 3)",,,,,,47.0,
B,L,"[3, 2]",1.0,1.0,0.6271729469299316,3.63703989982605,0.3689212817467874,,289.0
B,L,"[3, 1]",1.0,2.0,0.42197704315185547,2.001209020614624,0.5697052775262766,48.0,290.0
R,U,"[2, 1]",1.0,3.0,0.34407997131347656,1.836590051651001,0.4899657697633109,48.0,291.0
Y,R,"[2, 2]",1.0,4.0,0.2519099712371826,1.7193100452423096,0.4593569117838419,48.0,292.0
R,U,"[1, 2]",1.0,5.0,0.337860107421875,1.9863700866699219,0.6455620998443501,48.0,293.0
Y,R,"[1, 3]",1.0,6.0,0.2440650463104248,1.8281590938568115,0.5904671113000546,48.0,294.0
,,"(3, 3)",,,,,,48.0,
B,L,"[3, 2]",1.0,1.0,0.7969319820404053,4.193278074264526,0.3841536607702178,,295.0
B,L,"[3, 1]",1.0,2.0,0.3574531078338623,1.9757680892944336,0.6097069355334943,49.0,296.0
R,U,"[2, 1]",1.0,3.0,0.3978729248046875,1.7614421844482422,0.37130024947775286,49.0,297.0
R,U,"[1, 1]",-1.0,2.0,0.4493119716644287,1.87677001953125,0.4145606323219149,49.0,298.0
R,U,"[0, 1]",-2.0,2.0,1.0070221424102783,2.727107048034668,0.6581834365579522,49.0,299.0
Y,R,"[0, 2]",-2.0,2.0,1.0824329853057861,2.3850839138031006,0.27724283136015815,49.0,300.0
,,"(3, 3)",,,,,,49.0,
B,L,"[3, 2]",1.0,1.0,0.47443103790283203,3.610337972640991,0.7372746872861407,,301.0
B,L,"[3, 1]",1.0,2.0,0.20765113830566406,1.7391481399536133,0.5265493669490949,50.0,302.0
R,U,"[2, 1]",1.0,3.0,0.39531707763671875,1.8377580642700195,0.447677479926629,50.0,303.0
Y,R,"[2, 2]",1.0,4.0,0.3775620460510254,2.013545036315918,0.6278142593858356,50.0,304.0
R,U,"[1, 2]",1.0,5.0,0.2654290199279785,1.6260249614715576,0.33743346732425605,50.0,305.0
Y,R,"[1, 3]",1.0,6.0,0.5722599029541016,2.0531229972839355,0.4737665170003609,50.0,306.0
,,"(3, 3)",,,,,,50.0,
B,L,"[3, 2]",1.0,1.0,0.5111069679260254,15.133728981018066,0.5410590429630904,,307.0
B,L,"[3, 1]",1.0,2.0,0.3614199161529541,1.8662159442901611,0.5072430305088871,51.0,308.0
R,U,"[2, 1]",1.0,3.0,0.34781312942504883,1.6996920108795166,0.35718146736951956,51.0,309.0
Y,R,"[2, 2]",1.0,4.0,0.4091908931732178,1.678973913192749,0.26961691349716405,51.0,310.0
R,U,"[1, 2]",1.0,5.0,0.4375460147857666,1.902878999710083,0.4722726858242396,51.0,311.0
Y,R,"[1, 3]",1.0,6.0,0.4303159713745117,2.0722508430480957,0.6443181224233316,51.0,312.0
,,"(3, 3)",,,,,,51.0,
B,L,"[3, 2]",1.0,1.0,0.685291051864624,3.776155948638916,0.4707870523577594,,313.0
B,L,"[3, 1]",1.0,2.0,0.3151209354400635,1.6937849521636963,0.38134899333047395,52.0,314.0
R,U,"[2, 1]",1.0,3.0,0.30876994132995605,1.9608080387115479,0.6418978519451182,52.0,315.0
Y,R,"[2, 2]",1.0,4.0,0.22295808792114258,1.8289310932159424,0.6042343184670675,52.0,316.0
R,U,"[1, 2]",1.0,5.0,0.3286740779876709,1.9274661540985107,0.5978852961897082,52.0,317.0
Y,R,"[1, 3]",1.0,6.0,0.3238840103149414,2.065181016921997,0.7300497747868224,52.0,318.0
,,"(3, 3)",,,,,,52.0,
B,L,"[3, 2]",1.0,1.0,0.41007399559020996,3.703153133392334,0.749984980980719,,319.0
B,L,"[3, 1]",1.0,2.0,0.2950630187988281,2.038283109664917,0.7383313459936063,53.0,320.0
R,U,"[2, 1]",1.0,3.0,0.26699090003967285,2.008136034011841,0.7298749623687815,53.0,321.0
Y,R,"[2, 2]",1.0,4.0,0.306232213973999,1.9240119457244873,0.6041044626113827,53.0,322.0
R,U,"[1, 2]",1.0,5.0,0.28146791458129883,1.7236151695251465,0.4445989452035482,53.0,323.0
Y,R,"[1, 3]",1.0,6.0,0.3899838924407959,1.9516630172729492,0.5628085787131303,53.0,324.0
,,"(3, 3)",,,,,,53.0,
B,L,"[3, 2]",1.0,1.0,0.6294970512390137,3.9678549766540527,0.7472738397400495,,325.0
B,L,"[3, 1]",1.0,2.0,0.2137010097503662,1.8965799808502197,0.6771232399707987,54.0,326.0
R,U,"[2, 1]",1.0,3.0,0.40337491035461426,1.8475010395050049,0.44167467362121426,54.0,327.0
Y,R,"[2, 2]",1.0,4.0,0.30245208740234375,1.937582015991211,0.6290100454376624,54.0,328.0
R,U,"[1, 2]",1.0,5.0,0.44937896728515625,2.184220790863037,0.7298003711781154,54.0,329.0
Y,R,"[1, 3]",1.0,6.0,0.3943159580230713,1.6753880977630615,0.2723496274423845,54.0,330.0
,,"(3, 3)",,,,,,54.0,
B,L,"[3, 2]",1.0,1.0,0.5831658840179443,3.125967025756836,0.39836220668534944,,331.0
B,L,"[3, 1]",1.0,2.0,0.376629114151001,1.8496809005737305,0.4645349317084794,55.0,332.0
R,U,"[2, 1]",1.0,3.0,0.34560203552246094,1.8087530136108398,0.4566523700641785,55.0,333.0
Y,R,"[2, 2]",1.0,4.0,0.3715488910675049,1.9019279479980469,0.5253135977239414,55.0,334.0
R,U,"[1, 2]",1.0,5.0,0.32880687713623047,1.9831721782684326,0.6583819947933358,55.0,335.0
Y,R,"[1, 3]",1.0,6.0,0.26554012298583984,1.6011509895324707,0.34309672793721785,55.0,336.0
,,"(3, 3)",,,,,,55.0,
B,L,"[3, 2]",1.0,1.0,0.6488981246948242,3.513279914855957,0.5896968624259371,,337.0
B,L,"[3, 1]",1.0,2.0,0.26087498664855957,1.919842004776001,0.6593283042554055,56.0,338.0
R,U,"[2, 1]",1.0,3.0,0.1934049129486084,1.9042110443115234,0.7135473426945201,56.0,339.0
Y,R,"[2, 2]",1.0,4.0,0.1938788890838623,1.5301849842071533,0.3275945759071023,56.0,340.0
R,U,"[1, 2]",1.0,5.0,0.5081710815429688,2.0048859119415283,0.49893356497372143,56.0,341.0
Y,R,"[1, 3]",1.0,6.0,0.30968594551086426,1.986616849899292,0.6685021096861279,56.0,342.0
,,"(3, 3)",,,,,,56.0,
B,L,"[3, 2]",1.0,1.0,0.5388309955596924,5.813520908355713,0.6323630167460539,,343.0
B,L,"[3, 1]",1.0,2.0,0.2588489055633545,1.6994798183441162,0.43206900611321275,57.0,344.0
R,U,"[2, 1]",1.0,3.0,0.37671494483947754,2.0789740085601807,0.6942039479145379,57.0,345.0
Y,R,"[2, 2]",1.0,4.0,0.24812006950378418,1.6502580642700195,0.4113165681220669,57.0,346.0
R,U,"[1, 2]",1.0,5.0,0.33016490936279297,2.0696871280670166,0.7473270288646249,57.0,347.0
Y,R,"[1, 3]",1.0,6.0,0.31392908096313477,1.5689549446105957,0.25024052121053353,57.0,348.0
,,"(3, 3)",,,,,,57.0,
B,L,"[3, 2]",1.0,1.0,0.7427968978881836,3.8482229709625244,0.5149269751314678,,349.0
B,L,"[3, 1]",1.0,2.0,0.2575340270996094,1.6779098510742188,0.4096824534567359,58.0,350.0
R,U,"[2, 1]",1.0,3.0,0.3468201160430908,1.7055108547210693,0.36531086427990855,58.0,351.0
Y,R,"[2, 2]",1.0,4.0,0.2943599224090576,1.7997779846191406,0.4981721664043159,58.0,352.0
R,U,"[1, 2]",1.0,5.0,0.2674269676208496,1.6597068309783936,0.37472871094451393,58.0,353.0
Y,R,"[1, 3]",1.0,6.0,0.29431819915771484,1.9214110374450684,0.629312485516337,58.0,354.0
,,"(3, 3)",,,,,,58.0,
B,L,"[3, 2]",1.0,1.0,0.5213890075683594,3.435171127319336,0.6977427758731201,,355.0
B,L,"[3, 1]",1.0,2.0,0.20876812934875488,1.5950279235839844,0.3764524311932138,59.0,356.0
R,U,"[2, 1]",1.0,3.0,0.27176809310913086,1.782534122467041,0.5088739254053554,59.0,357.0
Y,R,"[2, 2]",1.0,4.0,0.19631195068359375,1.4757709503173828,0.2849158649586203,59.0,358.0
R,U,"[1, 2]",1.0,5.0,0.3739769458770752,1.7688310146331787,0.3870454370101244,59.0,359.0
Y,R,"[1, 3]",1.0,6.0,0.3187699317932129,1.6398200988769531,0.3103312902828082,59.0,360.0
,,"(3, 3)",,,,,,59.0,
B,L,"[3, 2]",1.0,1.0,0.6320328712463379,11.523546934127808,0.4004658144909471,,361.0
B,L,"[3, 1]",1.0,2.0,0.3730599880218506,1.6344389915466309,0.25197512800093663,60.0,362.0
R,U,"[2, 1]",1.0,3.0,0.40778207778930664,2.044368028640747,0.6292036514686647,60.0,363.0
Y,R,"[2, 2]",1.0,4.0,0.21853399276733398,1.9380578994750977,0.7171861190707594,60.0,364.0
R,U,"[1, 2]",1.0,5.0,0.23380112648010254,1.9276189804077148,0.6946923214022447,60.0,365.0
Y,R,"[1, 3]",1.0,6.0,0.20798015594482422,1.7445528507232666,0.539544101132267,60.0,366.0
,,"(3, 3)",,,,,,60.0,
B,L,"[3, 2]",1.0,1.0,0.5659019947052002,3.2747199535369873,0.26471201413690754,,367.0
B,L,"[3, 1]",1.0,2.0,0.39331793785095215,2.0088939666748047,0.6065954950861467,61.0,368.0
R,U,"[2, 1]",1.0,3.0,0.21709895133972168,1.6878561973571777,0.4612042398385689,61.0,369.0
Y,R,"[2, 2]",1.0,4.0,0.2877311706542969,1.750607967376709,0.4784988452187643,61.0,370.0
R,U,"[1, 2]",1.0,5.0,0.25087404251098633,1.785611867904663,0.5307584062475165,61.0,371.0
Y,R,"[1, 3]",1.0,6.0,0.17594599723815918,1.5524749755859375,0.3668542869759852,61.0,372.0
,,"(3, 3)",,,,,,61.0,
B,L,"[3, 2]",1.0,1.0,0.5605530738830566,3.3050119876861572,0.32185571387348577,,373.0
B,L,"[3, 1]",1.0,2.0,0.5700278282165527,1.9290568828582764,0.350948515309095,62.0,374.0
R,U,"[2, 1]",1.0,3.0,0.25055599212646484,1.6075990200042725,0.3420125776526285,62.0,375.0
Y,R,"[2, 2]",1.0,4.0,0.19664812088012695,1.5137090682983398,0.3224283271585791,62.0,376.0
R,U,"[1, 2]",1.0,5.0,0.22104382514953613,1.7726631164550781,0.5448596032819057,62.0,377.0
Y,R,"[1, 3]",1.0,6.0,0.31942200660705566,1.8320469856262207,0.5101499212201851,62.0,378.0
,,"(3, 3)",,,,,,62.0,
B,L,"[3, 2]",1.0,1.0,0.5373671054840088,4.854468822479248,0.747961192667578,,379.0
B,L,"[3, 1]",1.0,2.0,0.19675707817077637,1.753269910812378,0.5511874225896704,63.0,380.0
R,U,"[2, 1]",1.0,3.0,0.2210230827331543,1.7818310260772705,0.5499860632095914,63.0,381.0
Y,R,"[2, 2]",1.0,4.0,0.23659396171569824,1.748150110244751,0.49820098803466234,63.0,382.0
R,U,"[1, 2]",1.0,5.0,0.2747209072113037,1.7665481567382812,0.4814588498507142,63.0,383.0
Y,R,"[1, 3]",1.0,6.0,0.4168529510498047,2.0238499641418457,0.5883436189673136,63.0,384.0
,,"(3, 3)",,,,,,63.0,
B,L,"[3, 2]",1.0,1.0,0.705909013748169,3.539764881134033,0.49524198748380166,,385.0
B,L,"[3, 1]",1.0,2.0,0.4064290523529053,1.6844329833984375,0.2798198697153751,64.0,386.0
R,U,"[2, 1]",1.0,3.0,0.6012609004974365,1.896712064743042,0.27646771807579945,64.0,387.0
Y,R,"[2, 2]",1.0,4.0,0.7719249725341797,2.2713589668273926,0.49764516696721445,64.0,388.0
R,U,"[1, 2]",1.0,5.0,0.293018102645874,1.626572847366333,0.3243988600289504,64.0,389.0
Y,R,"[1, 3]",1.0,6.0,0.5482809543609619,1.9311740398406982,0.38873972409166635,64.0,390.0
,,"(3, 3)",,,,,,64.0,
B,L,"[3, 2]",1.0,1.0,0.8062431812286377,3.3865411281585693,0.3255936902029079,,391.0
B,L,"[3, 1]",1.0,2.0,0.5729339122772217,2.2425339221954346,0.6677884851983003,65.0,392.0
R,U,"[2, 1]",1.0,3.0,0.7348928451538086,2.035714864730835,0.28717677434091454,65.0,393.0
Y,R,"[2, 2]",1.0,4.0,0.6023440361022949,2.0696802139282227,0.4568051122638342,65.0,394.0
R,U,"[1, 2]",1.0,5.0,0.5638089179992676,2.114093065261841,0.554138743749998,65.0,395.0
Y,R,"[1, 3]",1.0,6.0,0.440093994140625,1.8500020503997803,0.4043436927112089,65.0,396.0
,,"(3, 3)",,,,,,65.0,
B,L,"[3, 2]",1.0,1.0,0.7265720367431641,5.296297073364258,0.6505548363043279,,397.0
B,L,"[3, 1]",1.0,2.0,0.511430025100708,2.147493839263916,0.6313111654450909,66.0,398.0
R,U,"[2, 1]",1.0,3.0,0.4945869445800781,1.7868969440460205,0.2852313359224233,66.0,399.0
Y,R,"[2, 2]",1.0,4.0,0.5454521179199219,1.8735790252685547,0.3254953027975949,66.0,400.0
R,U,"[1, 2]",1.0,5.0,0.5227000713348389,2.2489428520202637,0.7240143385064417,66.0,401.0
Y,R,"[1, 3]",1.0,6.0,0.49924516677856445,2.233595848083496,0.7076762605681768,66.0,402.0
,,"(3, 3)",,,,,,66.0,
B,L,"[3, 2]",-1.0,-1.0,0.4361889362335205,9.530457973480225,0.7385033874430478,,403.0
Y,R,"[3, 3]",-2.0,-1.0,1.8105449676513672,3.385528087615967,0.5405103785918515,67.0,404.0
G,D,"[4, 3]",1.0,0.0,0.7022230625152588,2.4160399436950684,0.7065989277976967,67.0,405.0
G,D,"[5, 3]",1.0,1.0,0.3996860980987549,2.1519858837127686,0.7419492589469464,67.0,406.0
R,U,"[4, 3]",1.0,2.0,0.33476901054382324,1.6000730991363525,0.259355901804385,67.0,407.0
Y,R,"[4, 4]",-1.0,1.0,0.3517777919769287,2.056101083755493,0.6983109217672238,67.0,408.0
,,"(3, 3)",,,,,,67.0,
G,D,"[4, 3]",1.0,1.0,0.23256206512451172,3.2843949794769287,0.29972401012776284,,409.0
G,D,"[5, 3]",1.0,2.0,0.29035091400146484,1.5895459651947021,0.2893323496398138,68.0,410.0
B,L,"[5, 2]",1.0,3.0,0.3956949710845947,2.033363103866577,0.639052355954018,68.0,411.0
B,L,"[5, 1]",-1.0,2.0,0.36406397819519043,1.992962121963501,0.6153592146246395,68.0,412.0
Y,R,"[5, 2]",1.0,3.0,0.5358188152313232,2.072093963623047,0.5210525485313541,68.0,413.0
Y,R,"[5, 3]",1.0,4.0,0.3368799686431885,1.7553699016571045,0.40986699914422386,68.0,414.0
,,"(3, 3)",,,,,,68.0,
G,D,"[4, 3]",1.0,1.0,0.7039871215820312,3.560818910598755,0.5538843223960607,,415.0
G,D,"[5, 3]",1.0,2.0,0.20252394676208496,1.6218740940093994,0.4092213421386141,69.0,416.0
Y,R,"[5, 4]",-1.0,1.0,0.29996514320373535,1.8853180408477783,0.5777024421120458,69.0,417.0
R,U,"[4, 4]",-1.0,0.0,0.3576021194458008,1.861495018005371,0.5060295858634558,69.0,418.0
Y,R,"[4, 5]",-1.0,-1.0,0.4340238571166992,1.8722879886627197,0.4281876130562212,69.0,419.0
R,U,"[3, 5]",-2.0,-1.0,1.6972618103027344,3.25624680519104,0.5346537289678799,69.0,420.0
,,"(3, 3)",,,,,,69.0,
G,D,"[4, 3]",1.0,1.0,0.6319680213928223,3.6754648685455322,0.5102945505571359,,421.0
G,D,"[5, 3]",1.0,2.0,0.2932610511779785,1.8015949726104736,0.5118098193835252,70.0,422.0
R,U,"[4, 3]",1.0,3.0,0.24526691436767578,1.8476710319519043,0.6092612566259444,70.0,423.0
Y,R,"[4, 4]",-1.0,2.0,0.2102031707763672,1.6705470085144043,0.4633718986725557,70.0,424.0
Y,R,"[4, 5]",-1.0,1.0,0.21291303634643555,1.5915501117706299,0.3717149436094941,70.0,425.0
B,L,"[4, 4]",-1.0,0.0,0.27267909049987793,1.7014191150665283,0.4230903400123292,70.0,426.0
,,"(3, 3)",,,,,,70.0,
G,D,"[4, 3]",1.0,1.0,0.8303179740905762,3.641268014907837,0.4314125834911414,,427.0
G,D,"[5, 3]",1.0,2.0,0.2537670135498047,1.8801541328430176,0.6113980536419468,71.0,428.0
R,U,"[4, 3]",1.0,3.0,0.23218488693237305,1.7518970966339111,0.5131540059675042,71.0,429.0
R,U,"[3, 3]",-2.0,1.0,0.6356170177459717,1.9158411026000977,0.26259452855300014,71.0,430.0
B,L,"[3, 2]",-2.0,1.0,1.4098529815673828,2.8529579639434814,0.4155994561131043,71.0,431.0
G,D,"[4, 2]",1.0,2.0,0.8912191390991211,2.630018949508667,0.7288151507946969,71.0,432.0
,,"(3, 3)",,,,,,71.0,
G,D,"[4, 3]",1.0,1.0,0.6416308879852295,3.307079792022705,0.3193529897822918,,433.0
G,D,"[5, 3]",1.0,2.0,0.24797892570495605,1.5569179058074951,0.3097993825908335,72.0,434.0
G,D,"[6, 3]",0.0,2.0,0.22213196754455566,1.8267390727996826,0.6028063210042123,72.0,435.0
R,U,"[5, 3]",1.0,3.0,0.4138000011444092,1.7101919651031494,0.28005919182538286,72.0,436.0
B,L,"[5, 2]",1.0,4.0,0.2953488826751709,1.5946118831634521,0.2912954281721097,72.0,437.0
B,L,"[5, 1]",-1.0,3.0,0.5819549560546875,2.0105769634246826,0.4184930041851328,72.0,438.0
,,"(3, 3)",,,,,,72.0,
G,D,"[4, 3]",1.0,1.0,0.9069170951843262,3.9408018589019775,0.625764576090186,,439.0
G,D,"[5, 3]",1.0,2.0,0.20211005210876465,1.9284188747406006,0.7207987699091984,73.0,440.0
B,L,"[5, 2]",1.0,3.0,0.20282506942749023,1.6460158824920654,0.4338171459269705,73.0,441.0
R,U,"[4, 2]",1.0,4.0,0.23698186874389648,1.4999358654022217,0.25063585323573945,73.0,442.0
Y,R,"[4, 3]",1.0,5.0,0.41193079948425293,2.030029058456421,0.6137106929061826,73.0,443.0
Y,R,"[4, 4]",-1.0,4.0,0.5407259464263916,2.19706392288208,0.6440618021247686,73.0,444.0
,,"(3, 3)",,,,,,73.0,
G,D,"[4, 3]",1.0,1.0,0.7436699867248535,3.2713499069213867,0.28265350632466246,,445.0
G,D,"[5, 3]",1.0,2.0,0.32140612602233887,1.865022897720337,0.5307720548143335,74.0,446.0
B,L,"[5, 2]",1.0,3.0,0.23568987846374512,1.7933568954467773,0.540734434997547,74.0,447.0
R,U,"[4, 2]",1.0,4.0,0.19937896728515625,1.7323429584503174,0.5396889983352167,74.0,448.0
Y,R,"[4, 3]",1.0,5.0,0.2350020408630371,1.518834114074707,0.27550747552147065,74.0,449.0
G,D,"[5, 3]",1.0,6.0,0.3175160884857178,1.6499102115631104,0.32534648575034053,74.0,450.0
,,"(3, 3)",,,,,,74.0,
G,D,"[4, 3]",1.0,1.0,0.6206870079040527,3.455389976501465,0.6139980754745034,,451.0
G,D,"[5, 3]",1.0,2.0,0.16878390312194824,1.551091194152832,0.3653817792440598,75.0,452.0
B,L,"[5, 2]",1.0,3.0,0.22882080078125,1.5254490375518799,0.2908928342094092,75.0,453.0
R,U,"[4, 2]",1.0,4.0,0.24234795570373535,1.6920008659362793,0.4492914040104124,75.0,454.0
Y,R,"[4, 3]",1.0,5.0,0.20837879180908203,1.63423490524292,0.41684043405521337,75.0,455.0
B,L,"[4, 2]",1.0,6.0,0.7324271202087402,2.334235191345215,0.6011316122793666,75.0,456.0
,,"(3, 3)",,,,,,75.0,
G,D,"[4, 3]",1.0,1.0,0.6353700160980225,3.223349094390869,0.5910658404405478,,457.0
G,D,"[5, 3]",1.0,2.0,0.1293649673461914,1.681067943572998,0.5556976116327608,76.0,458.0
R,U,"[4, 3]",1.0,3.0,0.24030089378356934,1.634657859802246,0.3905319437835732,76.0,459.0
Y,R,"[4, 4]",-1.0,2.0,0.28089308738708496,2.0371789932250977,0.7439504885887928,76.0,460.0
B,L,"[4, 3]",1.0,3.0,0.9793829917907715,2.4094810485839844,0.4370791686723779,76.0,461.0
Y,R,"[4, 4]",-2.0,3.0,1.057116985321045,2.831278085708618,0.73462074698519,76.0,462.0
,,"(3, 3)",,,,,,76.0,
G,D,"[4, 3]",1.0,1.0,0.682520866394043,3.6258809566497803,0.7106393427934201,,463.0
G,D,"[5, 3]",-1.0,1.0,0.02313089370727539,5.5171589851379395,0.3783059264984439,77.0,464.0
B,L,"[5, 2]",1.0,2.0,0.46683311462402344,2.0512478351593018,0.5794766740956611,77.0,465.0
R,U,"[4, 2]",1.0,3.0,0.2151319980621338,1.6651239395141602,0.42807806597502424,77.0,466.0
Y,R,"[4, 3]",1.0,4.0,0.43605589866638184,2.0254621505737305,0.5867174255658498,77.0,467.0
G,D,"[5, 3]",1.0,5.0,0.20986390113830566,1.8942780494689941,0.6809425367322613,77.0,468.0
,,"(3, 3)",,,,,,77.0,
G,D,"[4, 3]",1.0,1.0,0.6345729827880859,3.867156982421875,0.6815349018615502,,469.0
G,D,"[5, 3]",1.0,2.0,0.33347010612487793,2.093657970428467,0.7417187158665027,78.0,470.0
B,L,"[5, 2]",1.0,3.0,0.25917911529541016,1.9861819744110107,0.7278580122870878,78.0,471.0
R,U,"[4, 2]",1.0,4.0,0.2537841796875,1.8482990264892578,0.5932018220569262,78.0,472.0
Y,R,"[4, 3]",1.0,5.0,0.24303889274597168,1.7532458305358887,0.5131311162880974,78.0,473.0
G,D,"[5, 3]",1.0,6.0,0.22126293182373047,1.680027961730957,0.4433394885405148,78.0,474.0
,,"(3, 3)",,,,,,78.0,
G,D,"[4, 3]",1.0,1.0,0.7274777889251709,3.4580788612365723,0.684744614198951,,475.0
G,D,"[5, 3]",1.0,2.0,0.19605588912963867,1.9121859073638916,0.7133470747954271,79.0,476.0
B,L,"[5, 2]",1.0,3.0,0.25949621200561523,1.7235360145568848,0.4537841604013485,79.0,477.0
R,U,"[4, 2]",1.0,4.0,0.3439059257507324,2.041080951690674,0.6946343590147428,79.0,478.0
Y,R,"[4, 3]",1.0,5.0,0.3437159061431885,1.5926709175109863,0.25442575725659217,79.0,479.0
G,D,"[5, 3]",1.0,6.0,0.9256768226623535,2.5393848419189453,0.6102265028275808,79.0,480.0
,,"(3, 3)",,,,,,79.0,
G,D,"[4, 3]",1.0,1.0,0.7489280700683594,3.7360270023345947,0.49643028046987214,,481.0
G,D,"[5, 3]",1.0,2.0,0.26455116271972656,1.6461408138275146,0.3761766441994302,80.0,482.0
B,L,"[5, 2]",1.0,3.0,0.40710997581481934,1.682452917098999,0.275370272286724,80.0,483.0
R,U,"[4, 2]",1.0,4.0,0.4978480339050293,1.8549458980560303,0.363663766013363,80.0,484.0
Y,R,"[4, 3]",1.0,5.0,0.42528486251831055,2.118431806564331,0.6816878770173689,80.0,485.0
G,D,"[5, 3]",1.0,6.0,0.24273896217346191,1.734170913696289,0.4826155753310175,80.0,486.0
,,"(3, 3)",,,,,,80.0,
G,D,"[4, 3]",-2.0,0.0,1.1105849742889404,4.133090019226074,0.5326041381402228,,487.0
G,D,"[5, 3]",1.0,1.0,0.8403329849243164,2.385523796081543,0.534805595899067,81.0,488.0
G,D,"[6, 3]",0.0,1.0,0.29939889907836914,1.6190390586853027,0.30397209524773383,81.0,489.0
Y,R,"[6, 4]",0.0,1.0,0.7735531330108643,2.368533134460449,0.5890085949953137,81.0,490.0
R,U,"[5, 4]",-1.0,0.0,0.7379109859466553,2.4690499305725098,0.724554953010238,81.0,491.0
B,L,"[5, 3]",1.0,1.0,0.7552850246429443,2.4587438106536865,0.7000342820415966,81.0,492.0
,,"(3, 3)",,,,,,81.0,
G,D,"[4, 3]",1.0,1.0,0.6112759113311768,3.7214879989624023,0.6885166142631092,,493.0
G,D,"[5, 3]",1.0,2.0,0.17202115058898926,1.9200420379638672,0.7421235579348846,82.0,494.0
B,L,"[5, 2]",1.0,3.0,0.5905120372772217,2.243061065673828,0.6512899201813238,82.0,495.0
R,U,"[4, 2]",1.0,4.0,0.295579195022583,2.030241012573242,0.7318232692494139,82.0,496.0
Y,R,"[4, 3]",1.0,5.0,0.2347259521484375,1.722628116607666,0.4711581567981643,82.0,497.0
G,D,"[5, 3]",1.0,6.0,0.4028170108795166,1.9108049869537354,0.49871533426504394,82.0,498.0
,,"(3, 3)",,,,,,82.0,
G,D,"[4, 3]",1.0,1.0,0.6122629642486572,2.9620440006256104,0.29441066467339266,,499.0
G,D,"[5, 3]",1.0,2.0,0.4481639862060547,2.048537015914917,0.6093393150626807,83.0,500.0
B,L,"[5, 2]",1.0,3.0,0.3823890686035156,2.016808032989502,0.6261751876506243,83.0,501.0
R,U,"[4, 2]",1.0,4.0,0.23969388008117676,1.646852970123291,0.4065835941715772,83.0,502.0
Y,R,"[4, 3]",1.0,5.0,0.3620798587799072,1.6881320476531982,0.32806827171449376,83.0,503.0
G,D,"[5, 3]",1.0,6.0,0.42450809478759766,2.053398847579956,0.6312975859338413,83.0,504.0
,,"(3, 3)",,,,,,83.0,
G,D,"[4, 3]",1.0,1.0,0.7164828777313232,3.5381710529327393,0.4363418425764289,,505.0
G,D,"[5, 3]",1.0,2.0,0.25560808181762695,1.646881103515625,0.38330379681247145,84.0,506.0
B,L,"[5, 2]",1.0,3.0,0.3798661231994629,1.6874990463256836,0.3042337860146117,84.0,507.0
R,U,"[4, 2]",1.0,4.0,0.29333019256591797,1.5641920566558838,0.26851461133295734,84.0,508.0
Y,R,"[4, 3]",1.0,5.0,0.2777688503265381,1.5333740711212158,0.2520186511127328,84.0,509.0
G,D,"[5, 3]",1.0,6.0,0.30069780349731445,1.626420021057129,0.3115752677672014,84.0,510.0
,,"(3, 3)",,,,,,84.0,
G,D,"[4, 3]",1.0,1.0,0.7213070392608643,3.839385986328125,0.30096652480575836,,511.0
G,D,"[5, 3]",1.0,2.0,0.4870309829711914,1.7528300285339355,0.25383836121746617,85.0,512.0
B,L,"[5, 2]",1.0,3.0,0.3420679569244385,1.7295920848846436,0.3835194698929691,85.0,513.0
R,U,"[4, 2]",1.0,4.0,0.35296010971069336,1.799192190170288,0.43253237947508666,85.0,514.0
Y,R,"[4, 3]",1.0,5.0,0.43201684951782227,2.055047035217285,0.604151079586065,85.0,515.0
G,D,"[5, 3]",1.0,6.0,0.24194598197937012,1.7605159282684326,0.5148104892246574,85.0,516.0
,,"(3, 3)",,,,,,85.0,
G,D,"[4, 3]",1.0,1.0,0.845952033996582,3.4530417919158936,0.4180677500837771,,517.0
G,D,"[5, 3]",1.0,2.0,0.4434170722961426,2.10188889503479,0.6528878519239034,86.0,518.0
B,L,"[5, 2]",1.0,3.0,0.26750683784484863,1.7546799182891846,0.474560275666604,86.0,519.0
R,U,"[4, 2]",1.0,4.0,0.24562907218933105,1.8597209453582764,0.6175230790693638,86.0,520.0
Y,R,"[4, 3]",1.0,5.0,0.2129230499267578,1.6676650047302246,0.45208320350234354,86.0,521.0
R,U,"[3, 3]",-2.0,3.0,0.8263750076293945,2.5498828887939453,0.7184774594339918,86.0,522.0
,,"(3, 3)",,,,,,86.0,
G,D,"[4, 3]",-2.0,0.0,1.0533008575439453,4.026890993118286,0.3124711647075317,,523.0
G,D,"[5, 3]",1.0,1.0,0.36281919479370117,1.6179640293121338,0.2637336236205849,87.0,524.0
G,D,"[6, 3]",0.0,1.0,0.3148210048675537,2.0124411582946777,0.6928229385833605,87.0,525.0
R,U,"[5, 3]",1.0,2.0,0.1556720733642578,1.5379951000213623,0.3808862993186803,87.0,526.0
Y,R,"[5, 4]",-1.0,1.0,0.19081592559814453,1.526231050491333,0.3237634553131099,87.0,527.0
G,D,"[6, 4]",0.0,1.0,0.6410222053527832,2.3191051483154297,0.6757371668231795,87.0,528.0
,,"(3, 3)",,,,,,87.0,
G,D,"[4, 3]",1.0,1.0,0.40451598167419434,3.0700411796569824,0.32961261655137664,,529.0
G,D,"[5, 3]",1.0,2.0,0.2963709831237793,1.5942180156707764,0.29068865495059015,88.0,530.0
B,L,"[5, 2]",1.0,3.0,0.25191211700439453,1.8023231029510498,0.5427839382089772,88.0,531.0
R,U,"[4, 2]",-1.0,3.0,0.05329608917236328,5.493729829788208,0.3200643980125977,88.0,532.0
Y,R,"[4, 3]",1.0,4.0,0.5244629383087158,1.9718809127807617,0.4419099708049875,88.0,533.0
G,D,"[5, 3]",1.0,5.0,0.7216141223907471,2.164579153060913,0.43976088841151023,88.0,534.0
,,"(3, 3)",,,,,,88.0,
G,D,"[4, 3]",1.0,1.0,0.6197729110717773,3.281342029571533,0.2714198561053189,,535.0
G,D,"[5, 3]",1.0,2.0,0.2957630157470703,2.0408170223236084,0.7450359353196981,89.0,536.0
B,L,"[5, 2]",1.0,3.0,0.41777896881103516,1.7256090641021729,0.3045003187846607,89.0,537.0
R,U,"[4, 2]",1.0,4.0,0.5132620334625244,1.7962589263916016,0.2841843080232763,89.0,538.0
Y,R,"[4, 3]",1.0,5.0,0.41044092178344727,2.0015718936920166,0.585416067754436,89.0,539.0
G,D,"[5, 3]",1.0,6.0,0.4264228343963623,2.110368013381958,0.6790789091789007,89.0,540.0
,,"(3, 3)",,,,,,89.0,
G,D,"[4, 3]",1.0,1.0,0.8094749450683594,22.525593996047974,0.42188998961960644,,541.0
G,D,"[5, 3]",1.0,2.0,0.2503390312194824,1.8135738372802734,0.5519896137150058,90.0,542.0
B,L,"[5, 2]",1.0,3.0,0.28344202041625977,1.6814448833465576,0.3835241030311674,90.0,543.0
R,U,"[4, 2]",1.0,4.0,0.305156946182251,1.9294140338897705,0.6128521038569332,90.0,544.0
Y,R,"[4, 3]",1.0,5.0,0.20496106147766113,1.500101089477539,0.28014642974608756,90.0,545.0
G,D,"[5, 3]",1.0,6.0,0.4148681163787842,1.8832640647888184,0.4465693016445173,90.0,546.0
,,"(3, 3)",,,,,,90.0,
G,D,"[4, 3]",1.0,1.0,0.5422298908233643,3.384289026260376,0.4973933138249739,,547.0
G,D,"[5, 3]",1.0,2.0,0.2833518981933594,1.6908488273620605,0.38839605057873816,91.0,548.0
B,L,"[5, 2]",1.0,3.0,0.4962038993835449,1.819601058959961,0.324870074138834,91.0,549.0
R,U,"[4, 2]",1.0,4.0,0.5003020763397217,2.033895969390869,0.525129207179071,91.0,550.0
Y,R,"[4, 3]",1.0,5.0,0.20219707489013672,1.4943678379058838,0.2864852264075418,91.0,551.0
G,D,"[5, 3]",1.0,6.0,0.2781991958618164,1.7404730319976807,0.46010611217187725,91.0,552.0
,,"(3, 3)",,,,,,91.0,
G,D,"[4, 3]",1.0,1.0,0.6301758289337158,3.081096887588501,0.25827985349915067,,553.0
G,D,"[5, 3]",1.0,2.0,0.3336501121520996,1.6917331218719482,0.34982304988450197,92.0,554.0
B,L,"[5, 2]",1.0,3.0,0.32071900367736816,1.8512110710144043,0.5175423135023391,92.0,555.0
R,U,"[4, 2]",1.0,4.0,0.7508220672607422,2.0622670650482178,0.29671876216244153,92.0,556.0
Y,R,"[4, 3]",1.0,5.0,0.3461618423461914,2.015446186065674,0.6616853069319937,92.0,557.0
G,D,"[5, 3]",1.0,6.0,0.23535799980163574,1.5938141345977783,0.35595446293180943,92.0,558.0
,,"(3, 3)",,,,,,92.0,
G,D,"[4, 3]",1.0,1.0,0.6064369678497314,3.4231441020965576,0.6456336225832036,,559.0
G,D,"[5, 3]",1.0,2.0,0.253856897354126,1.7997090816497803,0.5453135850431343,93.0,560.0
B,L,"[5, 2]",1.0,3.0,0.28578996658325195,1.5949170589447021,0.3072619799423751,93.0,561.0
R,U,"[4, 2]",1.0,4.0,0.654714822769165,1.976585865020752,0.3170731056909187,93.0,562.0
Y,R,"[4, 3]",1.0,5.0,0.8364360332489014,2.142104148864746,0.2925294110438133,93.0,563.0
G,D,"[5, 3]",1.0,6.0,0.5252139568328857,1.792959213256836,0.26902407215558505,93.0,564.0
,,"(3, 3)",,,,,,93.0,
G,D,"[4, 3]",1.0,1.0,0.8345351219177246,3.135885000228882,0.3882146200875991,,565.0
G,D,"[5, 3]",1.0,2.0,0.6272380352020264,1.9985160827636719,0.37017452774042037,94.0,566.0
B,L,"[5, 2]",-2.0,2.0,1.3512380123138428,2.855663776397705,0.47568870147602726,94.0,567.0
R,U,"[4, 2]",1.0,3.0,0.7295260429382324,2.474346876144409,0.7498350828938003,94.0,568.0
Y,R,"[4, 3]",1.0,4.0,0.21706914901733398,1.7078781127929688,0.47461217061150845,94.0,569.0
G,D,"[5, 3]",1.0,5.0,0.2661471366882324,1.6534740924835205,0.39471324144566466,94.0,570.0
,,"(3, 3)",,,,,,94.0,
G,D,"[4, 3]",1.0,1.0,0.7582099437713623,2.9680449962615967,0.34638925310003765,,571.0
G,D,"[5, 3]",1.0,2.0,0.29087400436401367,1.6216988563537598,0.3180697802487894,95.0,572.0
B,L,"[5, 2]",1.0,3.0,0.4435710906982422,2.0929439067840576,0.644022892943947,95.0,573.0
R,U,"[4, 2]",1.0,4.0,0.22420716285705566,1.8458778858184814,0.6233849009282522,95.0,574.0
Y,R,"[4, 3]",1.0,5.0,0.20507216453552246,1.7950599193572998,0.585113559285806,95.0,575.0
R,U,"[3, 3]",-2.0,3.0,0.29025912284851074,1.6142971515655518,0.316365800522649,95.0,576.0
,,"(3, 3)",,,,,,95.0,
G,D,"[4, 3]",1.0,1.0,0.8192620277404785,3.550554037094116,0.350138375974899,,577.0
G,D,"[5, 3]",1.0,2.0,0.5345518589019775,1.8150968551635742,0.26552380165793693,96.0,578.0
B,L,"[5, 2]",1.0,3.0,0.3801698684692383,1.839735984802246,0.4550312017475894,96.0,579.0
R,U,"[4, 2]",1.0,4.0,0.25577497482299805,1.7949340343475342,0.5499621415069375,96.0,580.0
Y,R,"[4, 3]",1.0,5.0,0.17989087104797363,1.6715049743652344,0.48831254321308787,96.0,581.0
G,D,"[5, 3]",1.0,6.0,0.25048089027404785,1.9225409030914307,0.6606019004271577,96.0,582.0
,,"(3, 3)",,,,,,96.0,
G,D,"[4, 3]",1.0,1.0,0.7695930004119873,3.163886070251465,0.4413681633748386,,583.0
G,D,"[5, 3]",1.0,2.0,0.2922389507293701,1.8481049537658691,0.5559712808306798,97.0,584.0
B,L,"[5, 2]",1.0,3.0,0.5884110927581787,2.290714979171753,0.6966489201071169,97.0,585.0
R,U,"[4, 2]",1.0,4.0,0.23431992530822754,1.9650239944458008,0.71184455578961,97.0,586.0
Y,R,"[4, 3]",1.0,5.0,0.2483828067779541,1.7319090366363525,0.47727796516066007,97.0,587.0
G,D,"[5, 3]",1.0,6.0,0.3609640598297119,1.9642128944396973,0.6080708546832522,97.0,588.0
,,"(3, 3)",,,,,,97.0,
G,D,"[4, 3]",1.0,1.0,0.5468161106109619,4.125977993011475,0.6674231505944332,,589.0
G,D,"[5, 3]",1.0,2.0,0.26436781883239746,1.8435850143432617,0.577835391059318,98.0,590.0
B,L,"[5, 2]",1.0,3.0,0.36095094680786133,1.6916279792785645,0.3363513081958224,98.0,591.0
R,U,"[4, 2]",1.0,4.0,0.5280861854553223,2.0285611152648926,0.49800559256947174,98.0,592.0
Y,R,"[4, 3]",1.0,5.0,0.22387099266052246,1.7213220596313477,0.4860438938094561,98.0,593.0
G,D,"[5, 3]",1.0,6.0,0.2812340259552002,2.014178991317749,0.7333864379120643,98.0,594.0
,,"(3, 3)",,,,,,98.0,
G,D,"[4, 3]",1.0,1.0,0.6755590438842773,3.3491129875183105,0.4994128065891113,,595.0
G,D,"[5, 3]",1.0,2.0,0.23965215682983398,1.5329368114471436,0.2825979382790175,99.0,596.0
B,L,"[5, 2]",1.0,3.0,0.30637693405151367,1.6535680294036865,0.3362037130918462,99.0,597.0
R,U,"[4, 2]",1.0,4.0,0.43236398696899414,1.7295770645141602,0.29915964351965807,99.0,598.0
Y,R,"[4, 3]",1.0,5.0,0.3812839984893799,2.094693183898926,0.7100352325789774,99.0,599.0
G,D,"[5, 3]",1.0,6.0,0.21893095970153809,1.783440113067627,0.5604056946194602,99.0,600.0
,,"(3, 3)",,,,,,99.0,
G,D,"[4, 3]",1.0,1.0,0.8221971988677979,3.361680030822754,0.37237970836754636,,601.0
G,D,"[5, 3]",1.0,2.0,0.514279842376709,2.0020620822906494,0.4907406202843706,100.0,602.0
B,L,"[5, 2]",1.0,3.0,0.40018391609191895,1.723134994506836,0.31423315457909096,100.0,603.0
R,U,"[4, 2]",1.0,4.0,0.5129730701446533,1.865311861038208,0.34635989657402055,100.0,604.0
Y,R,"[4, 3]",1.0,5.0,0.6782550811767578,2.3885350227355957,0.701087189775293,100.0,605.0
G,D,"[5, 3]",1.0,6.0,0.3490481376647949,2.094897985458374,0.7292749306558319,100.0,606.0
,,"(3, 3)",,,,,,100.0,
G,D,"[4, 3]",1.0,1.0,0.8105859756469727,3.911761999130249,0.6412088216600238,,607.0
G,D,"[5, 3]",1.0,2.0,0.5070819854736328,1.983299970626831,0.47467653636579243,101.0,608.0
B,L,"[5, 2]",1.0,3.0,0.2408158779144287,1.9119060039520264,0.6697836813495086,101.0,609.0
R,U,"[4, 2]",1.0,4.0,0.30635595321655273,1.784938097000122,0.47165655357552627,101.0,610.0
Y,R,"[4, 3]",1.0,5.0,0.20995497703552246,1.8667020797729492,0.6548698790377911,101.0,611.0
R,U,"[3, 3]",-2.0,3.0,0.33158397674560547,1.8204407691955566,0.4755771790775272,101.0,612.0
,,"(3, 3)",,,,,,101.0,
G,D,"[4, 3]",-2.0,0.0,1.0635161399841309,4.554008960723877,0.3130367767900612,,613.0
G,D,"[5, 3]",1.0,1.0,0.3971850872039795,2.1161999702453613,0.7122576294324315,102.0,614.0
B,L,"[5, 2]",1.0,2.0,0.16342782974243164,1.5729329586029053,0.4188878477803417,102.0,615.0
R,U,"[4, 2]",1.0,3.0,0.2251601219177246,1.7853610515594482,0.5542358707763286,102.0,616.0
Y,R,"[4, 3]",1.0,4.0,0.21875977516174316,1.5105619430541992,0.28171687523538314,102.0,617.0
G,D,"[5, 3]",1.0,5.0,0.35829997062683105,1.8555951118469238,0.48705833368754764,102.0,618.0
,,"(3, 3)",,,,,,102.0,
G,D,"[4, 3]",1.0,1.0,0.6585619449615479,3.243971109390259,0.28147087053490205,,619.0
G,D,"[5, 3]",1.0,2.0,0.43674302101135254,1.7567169666290283,0.3047193602412467,103.0,620.0
B,L,"[5, 2]",1.0,3.0,0.5575151443481445,2.1428279876708984,0.5805158183106834,103.0,621.0
R,U,"[4, 2]",1.0,4.0,0.22754502296447754,1.9136440753936768,0.6775971934947662,103.0,622.0
Y,R,"[4, 3]",1.0,5.0,0.21444106101989746,1.4816319942474365,0.2762503633169265,103.0,623.0
G,D,"[5, 3]",-2.0,5.0,1.223365068435669,2.645185947418213,0.38798751899981737,103.0,624.0
,,"(3, 3)",,,,,,103.0,
G,D,"[4, 3]",1.0,1.0,0.9399909973144531,4.094051122665405,0.5819105767091033,,625.0
G,D,"[5, 3]",1.0,2.0,0.2895519733428955,1.8558340072631836,0.5545071781535518,104.0,626.0
B,L,"[5, 2]",1.0,3.0,0.23470306396484375,1.6081700325012207,0.36288682396604927,104.0,627.0
R,U,"[4, 2]",1.0,4.0,0.2843449115753174,1.8554811477661133,0.5514646571864881,104.0,628.0
Y,R,"[4, 3]",1.0,5.0,0.21608805656433105,1.936474084854126,0.7212640903355625,104.0,629.0
G,D,"[5, 3]",1.0,6.0,0.15675711631774902,1.5632100105285645,0.4014997949563894,104.0,630.0
,,"(3, 3)",,,,,,104.0,
G,D,"[4, 3]",1.0,1.0,0.3543541431427002,3.8885819911956787,0.3399902943485325,,631.0
G,D,"[5, 3]",1.0,2.0,0.26201295852661133,2.004880905151367,0.7445421027303913,105.0,632.0
B,L,"[5, 2]",-1.0,2.0,0.05133414268493652,5.766818046569824,0.5950245060024041,105.0,633.0
R,U,"[4, 2]",1.0,3.0,0.33843398094177246,1.8102660179138184,0.4720303995978741,105.0,634.0
Y,R,"[4, 3]",1.0,4.0,0.23885011672973633,1.6192810535430908,0.3748021613435832,105.0,635.0
G,D,"[5, 3]",1.0,5.0,0.3293590545654297,1.9535200595855713,0.6281075925905678,105.0,636.0
,,"(3, 3)",,,,,,105.0,
G,D,"[4, 3]",1.0,1.0,0.6109850406646729,3.490622043609619,0.25251814964829034,,637.0
G,D,"[5, 3]",1.0,2.0,0.3185901641845703,1.753931999206543,0.43974005216494494,106.0,638.0
B,L,"[5, 2]",1.0,3.0,0.28763294219970703,1.7906529903411865,0.49697216925742915,106.0,639.0
R,U,"[4, 2]",1.0,4.0,0.2218620777130127,1.5844039916992188,0.3481438969065059,106.0,640.0
Y,R,"[4, 3]",1.0,5.0,0.40323710441589355,2.0456008911132812,0.6266936709142809,106.0,641.0
G,D,"[5, 3]",1.0,6.0,0.2961728572845459,1.6297152042388916,0.34019198743268625,106.0,642.0
,,"(3, 3)",,,,,,106.0,
G,D,"[4, 3]",1.0,1.0,0.4109017848968506,9.091193914413452,0.5480571068724762,,643.0
G,D,"[5, 3]",1.0,2.0,0.22603893280029297,1.688417911529541,0.4533083036767382,107.0,644.0
B,L,"[5, 2]",1.0,3.0,0.29772305488586426,1.7109408378601074,0.41415210041336675,107.0,645.0
R,U,"[4, 2]",1.0,4.0,0.5075168609619141,2.078474998474121,0.5591494397919075,107.0,646.0
Y,R,"[4, 3]",1.0,5.0,0.2125108242034912,1.6471660137176514,0.43987596450725747,107.0,647.0
G,D,"[5, 3]",1.0,6.0,0.2516779899597168,1.7349557876586914,0.47464199066928847,107.0,648.0
,,"(3, 3)",,,,,,107.0,
G,D,"[4, 3]",1.0,1.0,0.4965348243713379,3.0915470123291016,0.5997522498303283,,649.0
G,D,"[5, 3]",1.0,2.0,0.23752713203430176,1.6254339218139648,0.3753906158946967,108.0,650.0
B,L,"[5, 2]",1.0,3.0,0.563776969909668,1.911971092224121,0.3539821966486265,108.0,651.0
R,U,"[4, 2]",1.0,4.0,0.3403928279876709,1.7150578498840332,0.3691386506535554,108.0,652.0
Y,R,"[4, 3]",1.0,5.0,0.4435269832611084,2.1262998580932617,0.678312326510791,108.0,653.0
G,D,"[5, 3]",1.0,6.0,0.22641205787658691,1.8854429721832275,0.6640039208393229,108.0,654.0
,,"(3, 3)",,,,,,108.0,
G,D,"[4, 3]",1.0,1.0,0.5207479000091553,4.830899953842163,0.7115234050364059,,655.0
G,D,"[5, 3]",1.0,2.0,0.23848700523376465,1.7359421253204346,0.4977371101653438,109.0,656.0
B,L,"[5, 2]",1.0,3.0,0.281566858291626,2.024847984313965,0.7390795891117468,109.0,657.0
R,U,"[4, 2]",1.0,4.0,0.45903992652893066,1.9780488014221191,0.5172972659645854,109.0,658.0
Y,R,"[4, 3]",1.0,5.0,0.28867292404174805,1.7251019477844238,0.42583377923337407,109.0,659.0
G,D,"[5, 3]",1.0,6.0,0.32613110542297363,1.7420790195465088,0.4180719366555945,109.0,660.0
,,"(3, 3)",,,,,,109.0,
G,D,"[4, 3]",1.0,1.0,0.4027378559112549,3.1653919219970703,0.6165588202799192,,661.0
G,D,"[5, 3]",1.0,2.0,0.23359084129333496,1.7040431499481201,0.4541917358155441,110.0,662.0
B,L,"[5, 2]",1.0,3.0,0.4177591800689697,1.7540500164031982,0.32511672874022035,110.0,663.0
R,U,"[4, 2]",1.0,4.0,0.5540180206298828,2.1546571254730225,0.59599228340369,110.0,664.0
Y,R,"[4, 3]",1.0,5.0,0.3482029438018799,1.9846839904785156,0.597525608696284,110.0,665.0
G,D,"[5, 3]",1.0,6.0,0.3382730484008789,1.7364509105682373,0.38412901565480123,110.0,666.0
,,"(3, 3)",,,,,,110.0,
G,D,"[4, 3]",1.0,1.0,0.4754462242126465,4.267811059951782,0.5851110221324067,,667.0
G,D,"[5, 3]",1.0,2.0,0.3499910831451416,2.10138201713562,0.7365173144757551,111.0,668.0
B,L,"[5, 2]",1.0,3.0,0.4141249656677246,1.7979540824890137,0.3847271284286853,111.0,669.0
R,U,"[4, 2]",1.0,4.0,0.5371520519256592,2.080315113067627,0.5316755094486276,111.0,670.0
Y,R,"[4, 3]",1.0,5.0,0.47490501403808594,1.9857959747314453,0.5007663645703158,111.0,671.0
G,D,"[5, 3]",1.0,6.0,0.4776880741119385,2.033397912979126,0.5508127930966005,111.0,672.0
,,"(3, 3)",,,,,,111.0,
G,D,"[4, 3]",1.0,1.0,0.4793570041656494,3.6046228408813477,0.538837618340221,,673.0
G,D,"[5, 3]",1.0,2.0,0.2327108383178711,1.6594569683074951,0.41517732905456656,112.0,674.0
B,L,"[5, 2]",1.0,3.0,0.4098789691925049,1.873077154159546,0.45480132199869805,112.0,675.0
R,U,"[4, 2]",1.0,4.0,0.34723997116088867,1.9650969505310059,0.6199167172964719,112.0,676.0
Y,R,"[4, 3]",1.0,5.0,0.26162290573120117,1.8328659534454346,0.56940850022646,112.0,677.0
G,D,"[5, 3]",1.0,6.0,0.27178311347961426,1.591313123703003,0.3111026381116635,112.0,678.0
,,"(3, 3)",,,,,,112.0,
G,D,"[4, 3]",1.0,1.0,0.44054293632507324,8.714268207550049,0.2755599077069224,,679.0
G,D,"[5, 3]",1.0,2.0,0.37601208686828613,1.920224905014038,0.5453822275917086,113.0,680.0
B,L,"[5, 2]",1.0,3.0,0.21010589599609375,1.7057459354400635,0.5011982666964712,113.0,681.0
R,U,"[4, 2]",1.0,4.0,0.377626895904541,1.9937138557434082,0.6116146087873189,113.0,682.0
Y,R,"[4, 3]",1.0,5.0,0.2091689109802246,1.5297858715057373,0.32498224799261,113.0,683.0
G,D,"[5, 3]",1.0,6.0,0.3289639949798584,1.9334030151367188,0.6082496464481884,113.0,684.0
,,"(3, 3)",,,,,,113.0,
G,D,"[4, 3]",1.0,1.0,0.3930940628051758,3.49257493019104,0.41784852412917234,,685.0
G,D,"[5, 3]",1.0,2.0,0.2631099224090576,2.000859022140503,0.7349046563393415,114.0,686.0
B,L,"[5, 2]",1.0,3.0,0.2468869686126709,1.5337951183319092,0.28578312229627406,114.0,687.0
R,U,"[4, 2]",1.0,4.0,0.5198187828063965,2.2591910362243652,0.7278632132081162,114.0,688.0
Y,R,"[4, 3]",1.0,5.0,0.22582077980041504,1.6831560134887695,0.4613025050567764,114.0,689.0
G,D,"[5, 3]",1.0,6.0,0.3215019702911377,1.88435697555542,0.5622981029483382,114.0,690.0
,,"(3, 3)",,,,,,114.0,
G,D,"[4, 3]",1.0,1.0,0.7725789546966553,3.6869280338287354,0.7160689261868831,,691.0
G,D,"[5, 3]",-2.0,1.0,1.356147050857544,2.8637359142303467,0.4631578225036821,115.0,692.0
B,L,"[5, 2]",1.0,2.0,0.2636251449584961,1.9181950092315674,0.6480036515884264,115.0,693.0
R,U,"[4, 2]",1.0,3.0,0.3230748176574707,1.9811501502990723,0.6457674648744779,115.0,694.0
Y,R,"[4, 3]",1.0,4.0,0.4816300868988037,2.1594929695129395,0.6719518534637297,115.0,695.0
G,D,"[5, 3]",1.0,5.0,0.348006010055542,1.596890926361084,0.25262284991606043,115.0,696.0
,,"(3, 3)",,,,,,115.0,
G,D,"[4, 3]",1.0,1.0,0.5210959911346436,3.9341371059417725,0.5201271303691044,,697.0
G,D,"[5, 3]",1.0,2.0,0.32372498512268066,1.8593361377716064,0.5290285764421994,116.0,698.0
B,L,"[5, 2]",1.0,3.0,0.2867310047149658,1.6484570503234863,0.3613143795789152,116.0,699.0
R,U,"[4, 2]",1.0,4.0,0.6578450202941895,2.133898973464966,0.4783086198232279,116.0,700.0
Y,R,"[4, 3]",1.0,5.0,0.45656704902648926,2.197298049926758,0.7421152279041386,116.0,701.0
G,D,"[5, 3]",1.0,6.0,0.27974486351013184,2.0003390312194824,0.725868498220592,116.0,702.0
,,"(3, 3)",,,,,,116.0,
G,D,"[4, 3]",1.0,1.0,0.6574039459228516,3.9357919692993164,0.7448706346874563,,703.0
G,D,"[5, 3]",1.0,2.0,0.3904409408569336,1.6752350330352783,0.2874423243091476,117.0,704.0
B,L,"[5, 2]",1.0,3.0,0.7062320709228516,2.074856996536255,0.36208247308301417,117.0,705.0
R,U,"[4, 2]",1.0,4.0,0.6306629180908203,2.180182933807373,0.5588088677651923,117.0,706.0
Y,R,"[4, 3]",1.0,5.0,0.5813281536102295,2.252239942550659,0.6775931418334811,117.0,707.0
G,D,"[5, 3]",1.0,6.0,0.7844760417938232,2.218400001525879,0.4297611237282462,117.0,708.0
,,"(3, 3)",,,,,,117.0,
G,D,"[4, 3]",1.0,1.0,0.6178607940673828,3.504983901977539,0.41804441567594564,,709.0
G,D,"[5, 3]",1.0,2.0,0.43111181259155273,1.9270071983337402,0.4950470401666152,118.0,710.0
B,L,"[5, 2]",1.0,3.0,0.3358919620513916,1.9882190227508545,0.6495541154526306,118.0,711.0
R,U,"[4, 2]",1.0,4.0,0.28888702392578125,1.9242868423461914,0.6243819615127248,118.0,712.0
Y,R,"[4, 3]",1.0,5.0,0.42302584648132324,1.9730088710784912,0.5471834447560529,118.0,713.0
G,D,"[5, 3]",1.0,6.0,0.38689613342285156,1.8247478008270264,0.42224690005078447,118.0,714.0
,,"(3, 3)",,,,,,118.0,
G,D,"[4, 3]",1.0,1.0,0.3884308338165283,13.761940956115723,0.7005398034963173,,715.0
G,D,"[5, 3]",1.0,2.0,0.2601430416107178,1.6710238456726074,0.40535870154758336,119.0,716.0
B,L,"[5, 2]",1.0,3.0,0.32187581062316895,2.0148658752441406,0.6865907315423001,119.0,717.0
R,U,"[4, 2]",1.0,4.0,0.24483013153076172,1.578735113143921,0.3325249449289843,119.0,718.0
Y,R,"[4, 3]",1.0,5.0,0.4175992012023926,2.08447003364563,0.6499153350957091,119.0,719.0
G,D,"[5, 3]",1.0,6.0,0.29495906829833984,1.6245040893554688,0.32482004679718013,119.0,720.0
,,"(3, 3)",,,,,,119.0,
G,D,"[4, 3]",1.0,1.0,0.37754297256469727,15.810896873474121,0.5522980089298901,,721.0
G,D,"[5, 3]",1.0,2.0,0.2827188968658447,1.8293159008026123,0.548400933659286,120.0,722.0
B,L,"[5, 2]",1.0,3.0,0.35060691833496094,1.644373893737793,0.27630641979533904,120.0,723.0
R,U,"[4, 2]",1.0,4.0,0.3813471794128418,1.664773941040039,0.29098346019631605,120.0,724.0
Y,R,"[4, 3]",1.0,5.0,0.312453031539917,1.6214139461517334,0.312510737956473,120.0,725.0
G,D,"[5, 3]",1.0,6.0,0.3950650691986084,2.015501022338867,0.6278728422038091,120.0,726.0
,,"(3, 3)",,,,,,120.0,
G,D,"[4, 3]",1.0,1.0,0.8075809478759766,3.969511032104492,0.44763002673540786,,727.0
G,D,"[5, 3]",1.0,2.0,0.23617291450500488,1.5780730247497559,0.32572477576148895,121.0,728.0
B,L,"[5, 2]",1.0,3.0,0.30434703826904297,2.0015130043029785,0.6935560878908156,121.0,729.0
R,U,"[4, 2]",1.0,4.0,0.33550310134887695,1.8511769771575928,0.511739444072036,121.0,730.0
Y,R,"[4, 3]",1.0,5.0,0.39745092391967773,1.8874938488006592,0.49910853607097083,121.0,731.0
G,D,"[5, 3]",1.0,6.0,0.36950087547302246,1.7052428722381592,0.32135325095558254,121.0,732.0
,,"(3, 3)",,,,,,121.0,
G,D,"[4, 3]",1.0,1.0,0.530189037322998,4.541730880737305,0.6461974539909092,,733.0
G,D,"[5, 3]",1.0,2.0,0.28687500953674316,1.6435089111328125,0.33997226875560727,122.0,734.0
B,L,"[5, 2]",1.0,3.0,0.4288179874420166,2.042011022567749,0.6150724025292165,122.0,735.0
R,U,"[4, 2]",1.0,4.0,0.4315028190612793,2.00734806060791,0.5724739379853125,122.0,736.0
Y,R,"[4, 3]",1.0,5.0,0.24123311042785645,1.8816962242126465,0.6374063658460489,122.0,737.0
G,D,"[5, 3]",1.0,6.0,0.3104851245880127,1.9464449882507324,0.6339029308372601,122.0,738.0
,,"(3, 3)",,,,,,122.0,
G,D,"[4, 3]",1.0,1.0,0.6453680992126465,3.676654815673828,0.44414215339396074,,739.0
G,D,"[5, 3]",1.0,2.0,0.5248441696166992,2.1011579036712646,0.5785480834658567,123.0,740.0
B,L,"[5, 2]",1.0,3.0,0.5758988857269287,2.1687750816345215,0.5978006436773511,123.0,741.0
R,U,"[4, 2]",1.0,4.0,0.30661916732788086,2.0135228633880615,0.6942055802035023,123.0,742.0
Y,R,"[4, 3]",1.0,5.0,0.21883797645568848,1.84303617477417,0.6205889267554041,123.0,743.0
G,D,"[5, 3]",1.0,6.0,0.38396501541137695,1.8891451358795166,0.4931958805349136,123.0,744.0
,,"(3, 3)",,,,,,123.0,
G,D,"[4, 3]",1.0,1.0,0.5547518730163574,4.3884429931640625,0.7482119917997352,,745.0
G,D,"[5, 3]",1.0,2.0,0.29479098320007324,2.042205810546875,0.7404354296886946,124.0,746.0
B,L,"[5, 2]",-2.0,2.0,1.0243752002716064,2.5609259605407715,0.5015878068301818,124.0,747.0
R,U,"[4, 2]",1.0,3.0,0.5537738800048828,2.120285987854004,0.555053167982473,124.0,748.0
Y,R,"[4, 3]",1.0,4.0,0.6361970901489258,2.0583229064941406,0.4136652447363518,124.0,749.0
G,D,"[5, 3]",1.0,5.0,0.6165759563446045,2.0950398445129395,0.4754916172062026,124.0,750.0
,,"(3, 3)",,,,,,124.0,
G,D,"[4, 3]",-2.0,0.0,1.0778839588165283,3.8076460361480713,0.5996346578366096,,751.0
G,D,"[5, 3]",1.0,1.0,0.7048089504241943,2.3078551292419434,0.5908416209703806,125.0,752.0
B,L,"[5, 2]",1.0,2.0,0.21203207969665527,1.7335231304168701,0.5244372942755068,125.0,753.0
R,U,"[4, 2]",1.0,3.0,0.33057284355163574,1.7946619987487793,0.4692895370952519,125.0,754.0
Y,R,"[4, 3]",1.0,4.0,0.3285951614379883,1.7928798198699951,0.46213856889772564,125.0,755.0
G,D,"[5, 3]",1.0,5.0,0.7044839859008789,2.2014710903167725,0.4969323382187376,125.0,756.0
,,"(3, 3)",,,,,,125.0,
G,D,"[4, 3]",1.0,1.0,0.6679251194000244,5.0570080280303955,0.37072309006408727,,757.0
G,D,"[5, 3]",1.0,2.0,0.49894118309020996,1.8914239406585693,0.3955112954364733,126.0,758.0
B,L,"[5, 2]",1.0,3.0,0.43276119232177734,1.9565110206604004,0.5186596108986238,126.0,759.0
R,U,"[4, 2]",1.0,4.0,0.3460521697998047,1.86716890335083,0.5191508139327803,126.0,760.0
Y,R,"[4, 3]",1.0,5.0,0.2856318950653076,1.6816630363464355,0.38437207945964974,126.0,761.0
G,D,"[5, 3]",1.0,6.0,0.34326887130737305,1.666046142578125,0.3172511200798751,126.0,762.0
,,"(3, 3)",,,,,,126.0,
G,D,"[4, 3]",1.0,1.0,0.7986431121826172,3.974545955657959,0.508356859643261,,763.0
G,D,"[5, 3]",1.0,2.0,0.18903708457946777,1.6950819492340088,0.5033161484466379,127.0,764.0
B,L,"[5, 2]",1.0,3.0,0.32515788078308105,1.7932720184326172,0.46335514624743884,127.0,765.0
R,U,"[4, 2]",1.0,4.0,0.2791478633880615,1.5514209270477295,0.26504435872409,127.0,766.0
Y,R,"[4, 3]",1.0,5.0,0.3933432102203369,1.9473369121551514,0.5451963728408917,127.0,767.0
R,U,"[3, 3]",-2.0,3.0,0.19792985916137695,1.4843039512634277,0.27999843893635445,127.0,768.0
,,"(3, 3)",,,,,,127.0,
G,D,"[4, 3]",1.0,1.0,0.34760594367980957,3.494966983795166,0.44168279707694647,,769.0
G,D,"[5, 3]",1.0,2.0,0.4239940643310547,2.0104310512542725,0.5852070919555848,128.0,770.0
B,L,"[5, 2]",1.0,3.0,0.22440099716186523,1.7264189720153809,0.49503142830009056,128.0,771.0
R,U,"[4, 2]",1.0,4.0,0.26288890838623047,1.5683228969573975,0.31369488343155644,128.0,772.0
Y,R,"[4, 3]",1.0,5.0,0.3903629779815674,1.7457411289215088,0.342610706897858,128.0,773.0
G,D,"[5, 3]",1.0,6.0,0.355086088180542,1.9652249813079834,0.6077044917610279,128.0,774.0
,,"(3, 3)",,,,,,128.0,
G,D,"[4, 3]",1.0,1.0,0.6680419445037842,3.797523021697998,0.7217677482920359,,775.0
G,D,"[5, 3]",1.0,2.0,0.2584850788116455,1.8577959537506104,0.5964071270395721,129.0,776.0
B,L,"[5, 2]",1.0,3.0,0.297882080078125,1.5938210487365723,0.2905861947844375,129.0,777.0
R,U,"[4, 2]",1.0,4.0,0.5117669105529785,1.8610670566558838,0.35170151420874696,129.0,778.0
Y,R,"[4, 3]",1.0,5.0,0.43320798873901367,1.876662015914917,0.42823044858370973,129.0,779.0
G,D,"[5, 3]",1.0,6.0,0.5534610748291016,2.2551469802856445,0.6997767039554907,129.0,780.0
,,"(3, 3)",,,,,,129.0,
G,D,"[4, 3]",1.0,1.0,0.5978109836578369,5.001551866531372,0.6516457962954096,,781.0
G,D,"[5, 3]",1.0,2.0,0.43401098251342773,2.0798017978668213,0.6311661553639574,130.0,782.0
B,L,"[5, 2]",1.0,3.0,0.2446889877319336,1.6103720664978027,0.35874743007057525,130.0,783.0
R,U,"[4, 2]",1.0,4.0,0.4609808921813965,2.143543004989624,0.6851543759735246,130.0,784.0
Y,R,"[4, 3]",1.0,5.0,0.3081989288330078,1.8830499649047852,0.5681640631577043,130.0,785.0
G,D,"[5, 3]",1.0,6.0,0.25470590591430664,1.856208086013794,0.591263907914504,130.0,786.0
,,"(3, 3)",,,,,,130.0,
G,D,"[4, 3]",1.0,1.0,0.7517061233520508,21.320756196975708,0.36281895327265734,,787.0
G,D,"[5, 3]",1.0,2.0,0.3647029399871826,1.7801399230957031,0.4263052862374903,131.0,788.0
B,L,"[5, 2]",1.0,3.0,0.28542304039001465,1.7235071659088135,0.4495074090025744,131.0,789.0
R,U,"[4, 2]",1.0,4.0,0.6411230564117432,1.9324660301208496,0.28210108582720544,131.0,790.0
Y,R,"[4, 3]",1.0,5.0,0.2839479446411133,1.7889838218688965,0.4876663141430678,131.0,791.0
G,D,"[5, 3]",1.0,6.0,0.26361894607543945,1.7829198837280273,0.5205887062493424,131.0,792.0
,,"(3, 3)",,,,,,131.0,
G,D,"[4, 3]",1.0,1.0,0.6275379657745361,3.4599449634552,0.7306710982710418,,793.0
G,D,"[5, 3]",1.0,2.0,0.26785707473754883,2.016442060470581,0.7301518163391514,132.0,794.0
B,L,"[5, 2]",1.0,3.0,0.21226191520690918,1.679399013519287,0.45993452947414887,132.0,795.0
R,U,"[4, 2]",1.0,4.0,0.3625619411468506,1.6478829383850098,0.2914244227580548,132.0,796.0
Y,R,"[4, 3]",1.0,5.0,0.5755581855773926,2.080197811126709,0.5047508325278659,132.0,797.0
G,D,"[5, 3]",1.0,6.0,0.37262701988220215,2.066093921661377,0.6873409715578278,132.0,798.0
,,"(3, 3)",,,,,,132.0,
G,D,"[4, 3]",1.0,1.0,0.5952630043029785,7.160761833190918,0.5652250149130702,,799.0
G,D,"[5, 3]",1.0,2.0,0.4393291473388672,2.172255039215088,0.7205060838982109,133.0,800.0
B,L,"[5, 2]",1.0,3.0,0.3716599941253662,2.0071139335632324,0.6276881290599275,133.0,801.0
R,U,"[4, 2]",1.0,4.0,0.5386910438537598,2.2132019996643066,0.6741918621187297,133.0,802.0
Y,R,"[4, 3]",1.0,5.0,0.303145170211792,1.7072570323944092,0.3982881569740218,133.0,803.0
G,D,"[5, 3]",1.0,6.0,0.7445719242095947,2.1085658073425293,0.3571028816410104,133.0,804.0
,,"(3, 3)",,,,,,133.0,
G,D,"[4, 3]",-1.0,-1.0,0.6865439414978027,3.905505895614624,0.32938404144493777,,805.0
G,D,"[5, 3]",-1.0,-2.0,0.48787403106689453,1.9216418266296387,0.4341526837856013,134.0,806.0
B,L,"[5, 2]",-1.0,-3.0,0.7995209693908691,2.4145078659057617,0.5988986745937052,134.0,807.0
Y,R,"[5, 3]",-2.0,-3.0,1.5089759826660156,3.129783868789673,0.578291128660686,134.0,808.0
R,U,"[4, 3]",-1.0,-4.0,0.31844401359558105,1.6870839595794678,0.3657888912787207,134.0,809.0
Y,R,"[4, 4]",-1.0,-5.0,0.49535512924194336,2.173366069793701,0.6721642593835346,134.0,810.0
,,"(3, 3)",,,,,,134.0,
B,L,"[3, 2]",-1.0,-1.0,0.5547258853912354,3.9126760959625244,0.435216590943918,,811.0
Y,R,"[3, 3]",-2.0,-3.0,0.774245023727417,2.332304000854492,0.5507575237609286,135.0,812.0
G,D,"[4, 3]",-1.0,-4.0,0.2780289649963379,1.8134770393371582,0.5308266995334333,135.0,813.0
B,L,"[4, 2]",-1.0,-5.0,0.22354888916015625,1.9063830375671387,0.6704331462151868,135.0,814.0
R,U,"[3, 2]",-1.0,-6.0,0.36916017532348633,1.7899470329284668,0.4101169839667095,135.0,815.0
B,L,"[3, 1]",1.0,-5.0,0.9431629180908203,2.411665916442871,0.47246284090186635,135.0,816.0
,,"(3, 3)",,,,,,135.0,
R,U,"[2, 3]",1.0,1.0,0.3392479419708252,6.251677989959717,0.7405761163540027,,817.0
G,D,"[3, 3]",-2.0,-1.0,0.2909259796142578,2.020128011703491,0.7274262514106805,136.0,818.0
Y,R,"[3, 4]",-1.0,-2.0,0.2693319320678711,1.940157175064087,0.6675498620797473,136.0,819.0
B,L,"[3, 3]",-2.0,-4.0,0.2566661834716797,1.51649808883667,0.25111304046255534,136.0,820.0
G,D,"[4, 3]",-1.0,-5.0,0.36196303367614746,1.852963924407959,0.4873044588968154,136.0,821.0
R,U,"[3, 3]",-2.0,-7.0,0.4246959686279297,2.1586570739746094,0.7291374775422796,136.0,822.0
,,"(3, 3)",,,,,,136.0,
R,U,"[2, 3]",1.0,1.0,0.7766819000244141,3.998086929321289,0.3943155365232954,,823.0
R,U,"[1, 3]",-1.0,0.0,0.6358850002288818,2.0618948936462402,0.422747165604229,137.0,824.0
B,L,"[1, 2]",1.0,1.0,0.7144248485565186,2.0173118114471436,0.2902545938043639,137.0,825.0
G,D,"[2, 2]",1.0,2.0,0.9127931594848633,2.265795946121216,0.3561138289627714,137.0,826.0
B,L,"[2, 1]",-2.0,2.0,1.1242759227752686,2.868480920791626,0.7074798658749692,137.0,827.0
Y,R,"[2, 2]",1.0,3.0,0.5415658950805664,1.8294200897216797,0.28743114925677277,137.0,828.0
,,"(3, 3)",,,,,,137.0,
R,U,"[2, 3]",1.0,1.0,0.7066688537597656,3.606797218322754,0.29424098063506154,,829.0
Y,R,"[2, 4]",-2.0,1.0,1.2773821353912354,2.681133985519409,0.3753332381594445,138.0,830.0
Y,R,"[2, 5]",-1.0,0.0,0.34511303901672363,1.6612811088562012,0.30340694087392683,138.0,831.0
G,D,"[3, 5]",-1.0,-1.0,0.3225259780883789,1.768834114074707,0.43878446953801714,138.0,832.0
G,D,"[4, 5]",-1.0,-2.0,0.5088880062103271,2.1605119705200195,0.6490494011973844,138.0,833.0
B,L,"[4, 4]",-1.0,-3.0,0.24527788162231445,1.565208911895752,0.3146592871544128,138.0,834.0
,,"(3, 3)",,,,,,138.0,
R,U,"[2, 3]",1.0,1.0,0.5997240543365479,3.8673830032348633,0.5819273037889072,,835.0
R,U,"[1, 3]",-1.0,0.0,0.32618093490600586,1.9666030406951904,0.6318611077436027,139.0,836.0
B,L,"[1, 2]",-2.0,0.0,1.4256291389465332,2.7507760524749756,0.2830156300943011,139.0,837.0
B,L,"[1, 1]",1.0,1.0,0.41675806045532227,2.032006025314331,0.5979589875912625,139.0,838.0
Y,R,"[1, 2]",1.0,2.0,0.29253506660461426,1.6147329807281494,0.3131663616061518,139.0,839.0
B,L,"[1, 1]",1.0,3.0,0.7052531242370605,1.9700579643249512,0.26652212340421116,139.0,840.0
,,"(3, 3)",,,,,,139.0,
R,U,"[2, 3]",1.0,1.0,0.9358139038085938,4.61583399772644,0.36565428133100547,,841.0
Y,R,"[2, 4]",-1.0,0.0,0.2845799922943115,1.7653260231018066,0.4642612296691901,140.0,842.0
G,D,"[3, 4]",-1.0,-1.0,0.9290969371795654,2.2557220458984375,0.32026203478100645,140.0,843.0
B,L,"[3, 3]",-2.0,-3.0,0.26326417922973633,1.7902870178222656,0.510117724312919,140.0,844.0
B,L,"[3, 2]",-1.0,-4.0,0.21809601783752441,1.603734016418457,0.3808534195047438,140.0,845.0
Y,R,"[3, 3]",-2.0,-6.0,0.2922959327697754,1.652580976486206,0.3501426459359381,140.0,846.0
,,"(3, 3)",,,,,,140.0,
R,U,"[2, 3]",1.0,1.0,0.7789740562438965,8.05093502998352,0.28470277316662945,,847.0
R,U,"[1, 3]",-1.0,0.0,0.493527889251709,1.8540780544281006,0.35526072781719903,141.0,848.0
G,D,"[2, 3]",1.0,1.0,0.3875739574432373,2.119894027709961,0.7248467263689491,141.0,849.0
B,L,"[2, 2]",1.0,2.0,0.19803500175476074,1.8624391555786133,0.6706878338551658,141.0,850.0
Y,R,"[2, 3]",1.0,3.0,0.20641398429870605,1.7906792163848877,0.578127879356908,141.0,851.0
B,L,"[2, 2]",1.0,4.0,0.23524904251098633,1.5792770385742188,0.34091830516613925,141.0,852.0
,,"(3, 3)",,,,,,141.0,
R,U,"[2, 3]",1.0,1.0,0.8750629425048828,6.0294029712677,0.30372672390421596,,853.0
B,L,"[2, 2]",1.0,2.0,0.3491020202636719,1.6304659843444824,0.2844273591977855,142.0,854.0
G,D,"[3, 2]",-1.0,1.0,0.21836280822753906,1.7186198234558105,0.4861895245739502,142.0,855.0
B,L,"[3, 1]",1.0,2.0,0.2808959484100342,2.0146191120147705,0.717258173254785,142.0,856.0
Y,R,"[3, 2]",-1.0,1.0,0.28824305534362793,1.561819076538086,0.26293970723375637,142.0,857.0
B,L,"[3, 1]",1.0,2.0,0.24666881561279297,1.7809641361236572,0.5103900744489479,142.0,858.0
,,"(3, 3)",,,,,,142.0,
R,U,"[2, 3]",1.0,1.0,0.9659600257873535,5.853458881378174,0.3641049347757427,,859.0
B,L,"[2, 2]",1.0,2.0,0.3598918914794922,1.9466440677642822,0.5770801966711352,143.0,860.0
R,U,"[1, 2]",1.0,3.0,0.40230298042297363,2.100627899169922,0.6944620501145475,143.0,861.0
Y,R,"[1, 3]",-1.0,2.0,0.28482604026794434,1.94051194190979,0.6515598637375687,143.0,862.0
B,L,"[1, 2]",1.0,3.0,0.19254708290100098,1.7340099811553955,0.5357874127658575,143.0,863.0
Y,R,"[1, 3]",-1.0,2.0,0.23932194709777832,1.636059045791626,0.3886427934365215,143.0,864.0
,,"(3, 3)",,,,,,143.0,
R,U,"[2, 3]",1.0,1.0,0.7805619239807129,5.477121829986572,0.2826740681569766,,865.0
B,L,"[2, 2]",1.0,2.0,0.26167893409729004,1.7395119667053223,0.47185168672731115,144.0,866.0
R,U,"[1, 2]",1.0,3.0,0.26767516136169434,1.6611649990081787,0.38327940882723033,144.0,867.0
G,D,"[2, 2]",1.0,4.0,0.2768881320953369,1.778831958770752,0.4954110039635912,144.0,868.0
Y,R,"[2, 3]",1.0,5.0,0.24930405616760254,1.4903769493103027,0.2526208762875374,144.0,869.0
B,L,"[2, 2]",1.0,6.0,0.26730799674987793,1.6010141372680664,0.32051981683828457,144.0,870.0
,,"(3, 3)",,,,,,144.0,
R,U,"[2, 3]",1.0,1.0,0.692328929901123,3.231318950653076,0.3185425245870295,,871.0
B,L,"[2, 2]",1.0,2.0,0.20914816856384277,1.8303439617156982,0.6153230257029161,145.0,872.0
R,U,"[1, 2]",1.0,3.0,0.20992493629455566,1.7671020030975342,0.5489405345935419,145.0,873.0
Y,R,"[1, 3]",-1.0,2.0,0.23119497299194336,1.6626999378204346,0.4118743802130167,145.0,874.0
B,L,"[1, 2]",1.0,3.0,0.25937914848327637,1.6880850791931152,0.43329638175373525,145.0,875.0
B,L,"[1, 1]",1.0,4.0,0.851625919342041,2.5213208198547363,0.6544035230957288,145.0,876.0
,,"(3, 3)",,,,,,145.0,
R,U,"[2, 3]",1.0,1.0,0.8128869533538818,3.9886510372161865,0.6432432521218103,,877.0
B,L,"[2, 2]",1.0,2.0,0.21068596839904785,1.4944050312042236,0.28786651909185224,146.0,878.0
R,U,"[1, 2]",1.0,3.0,0.31068897247314453,1.6282539367675781,0.31622461902888344,146.0,879.0
G,D,"[2, 2]",1.0,4.0,0.21425104141235352,1.9505109786987305,0.7329693273199276,146.0,880.0
Y,R,"[2, 3]",-2.0,4.0,1.0383319854736328,2.7122178077697754,0.6451914961645672,146.0,881.0
B,L,"[2, 2]",1.0,5.0,0.24774718284606934,1.657240867614746,0.41951465670404636,146.0,882.0
,,"(3, 3)",,,,,,146.0,
R,U,"[2, 3]",1.0,1.0,0.662956953048706,3.3725130558013916,0.45886827304767897,,883.0
B,L,"[2, 2]",1.0,2.0,0.20935487747192383,1.5126750469207764,0.3048733472118407,147.0,884.0
R,U,"[1, 2]",1.0,3.0,0.24306011199951172,1.9876320362091064,0.7421083186777754,147.0,885.0
G,D,"[2, 2]",1.0,4.0,0.21854090690612793,1.5782060623168945,0.3539036094534226,147.0,886.0
Y,R,"[2, 3]",1.0,5.0,0.2622029781341553,1.7562148571014404,0.4934777445754697,147.0,887.0
B,L,"[2, 2]",1.0,6.0,0.21632003784179688,1.800050973892212,0.5933407972387956,147.0,888.0
,,"(3, 3)",,,,,,147.0,
R,U,"[2, 3]",1.0,1.0,0.6164748668670654,3.503695011138916,0.7139168396773574,,889.0
B,L,"[2, 2]",1.0,2.0,0.32180213928222656,2.029033899307251,0.6930527307841919,148.0,890.0
R,U,"[1, 2]",-1.0,2.0,0.052249908447265625,5.531768083572388,0.3582496451119852,148.0,891.0
G,D,"[2, 2]",1.0,3.0,0.27608609199523926,1.7301340103149414,0.4549749371127654,148.0,892.0
Y,R,"[2, 3]",1.0,4.0,0.25669288635253906,1.5301311016082764,0.2687754034249912,148.0,893.0
B,L,"[2, 2]",1.0,5.0,0.2728149890899658,1.723388910293579,0.4419037228411612,148.0,894.0
,,"(3, 3)",,,,,,148.0,
R,U,"[2, 3]",1.0,1.0,0.5063190460205078,8.388027906417847,0.26388555166052996,,895.0
B,L,"[2, 2]",1.0,2.0,0.26008009910583496,1.6679120063781738,0.39839148511409495,149.0,896.0
R,U,"[1, 2]",1.0,3.0,0.22936081886291504,1.5508511066436768,0.3156913769838035,149.0,897.0
G,D,"[2, 2]",1.0,4.0,0.3196449279785156,1.802178144454956,0.4843928417935612,149.0,898.0
Y,R,"[2, 3]",1.0,5.0,0.21455001831054688,1.8613760471343994,0.6456463296481167,149.0,899.0
B,L,"[2, 2]",1.0,6.0,0.18964195251464844,1.9159657955169678,0.728229804873086,149.0,900.0
,,"(3, 3)",,,,,,149.0,
R,U,"[2, 3]",1.0,1.0,0.6918940544128418,3.903538942337036,0.44882177608234225,,901.0
B,L,"[2, 2]",1.0,2.0,0.25125789642333984,1.8178598880767822,0.54975292550437,150.0,902.0
R,U,"[1, 2]",1.0,3.0,0.3807499408721924,1.9600188732147217,0.57654889138517,150.0,903.0
G,D,"[2, 2]",1.0,4.0,0.2507607936859131,1.594862937927246,0.33837546502917387,150.0,904.0
Y,R,"[2, 3]",1.0,5.0,0.27991700172424316,1.9494099617004395,0.6707632835290003,150.0,905.0
B,L,"[2, 2]",1.0,6.0,0.71514892578125,2.389782190322876,0.6772218535827039,150.0,906.0
,,"(3, 3)",,,,,,150.0,
R,U,"[2, 3]",1.0,1.0,0.687006950378418,4.391891956329346,0.685962807775774,,907.0
B,L,"[2, 2]",1.0,2.0,0.27695512771606445,1.9324400424957275,0.6516953918492355,151.0,908.0
G,D,"[3, 2]",-1.0,1.0,0.3307499885559082,1.9715240001678467,0.6232611054128134,151.0,909.0
G,D,"[4, 2]",-2.0,1.0,1.5559930801391602,2.8928420543670654,0.2831933896742661,151.0,910.0
Y,R,"[4, 3]",-1.0,0.0,0.498121976852417,2.1334450244903564,0.6162162050939674,151.0,911.0
B,L,"[4, 2]",-1.0,-1.0,0.4008598327636719,1.9623548984527588,0.5454129455701224,151.0,912.0
,,"(3, 3)",,,,,,151.0,
R,U,"[2, 3]",1.0,1.0,0.6721749305725098,2.8871469497680664,0.29971561598057866,,913.0
B,L,"[2, 2]",1.0,2.0,0.2829880714416504,1.9627690315246582,0.678668728346469,152.0,914.0
R,U,"[1, 2]",1.0,3.0,0.25904297828674316,1.7263009548187256,0.47186817385084284,152.0,915.0
G,D,"[2, 2]",1.0,4.0,0.2938709259033203,1.805063009262085,0.5101940827662665,152.0,916.0
Y,R,"[2, 3]",1.0,5.0,0.22983908653259277,1.9070940017700195,0.6837627617431747,152.0,917.0
B,L,"[2, 2]",1.0,6.0,0.8562178611755371,2.199126958847046,0.3500182123076592,152.0,918.0
,,"(3, 3)",,,,,,152.0,
R,U,"[2, 3]",1.0,1.0,0.6114230155944824,8.166591882705688,0.2833022136360139,,919.0
B,L,"[2, 2]",1.0,2.0,0.2769148349761963,1.6749188899993896,0.39174890530555395,153.0,920.0
R,U,"[1, 2]",1.0,3.0,0.25557899475097656,1.5363438129425049,0.2780985089701833,153.0,921.0
G,D,"[2, 2]",1.0,4.0,0.6470189094543457,2.0641820430755615,0.42533433391385445,153.0,922.0
Y,R,"[2, 3]",1.0,5.0,0.31650495529174805,1.6549429893493652,0.31371048754734254,153.0,923.0
B,L,"[2, 2]",1.0,6.0,0.3348679542541504,1.8303170204162598,0.4775687042922451,153.0,924.0
,,"(3, 3)",,,,,,153.0,
R,U,"[2, 3]",1.0,1.0,0.586266040802002,3.08302903175354,0.6437929235968973,,925.0
B,L,"[2, 2]",1.0,2.0,0.4692058563232422,2.096069812774658,0.6233097133765956,154.0,926.0
R,U,"[1, 2]",1.0,3.0,0.2220320701599121,1.7441518306732178,0.5174984560777589,154.0,927.0
G,D,"[2, 2]",1.0,4.0,0.28507113456726074,1.623852014541626,0.3248403915276974,154.0,928.0
Y,R,"[2, 3]",1.0,5.0,0.32246994972229004,1.7534968852996826,0.42825532582032216,154.0,929.0
B,L,"[2, 2]",1.0,6.0,0.30052781105041504,1.6564979553222656,0.35160041122555424,154.0,930.0
,,"(3, 3)",,,,,,154.0,
R,U,"[2, 3]",1.0,1.0,0.44832396507263184,3.564059019088745,0.6650795612792342,,931.0
B,L,"[2, 2]",1.0,2.0,0.21347498893737793,1.7913181781768799,0.5734901261044247,155.0,932.0
R,U,"[1, 2]",1.0,3.0,0.19519495964050293,1.4721150398254395,0.27900188052014036,155.0,933.0
G,D,"[2, 2]",1.0,4.0,0.2855069637298584,1.7409238815307617,0.4532617813592894,155.0,934.0
Y,R,"[2, 3]",1.0,5.0,0.21169495582580566,1.722093105316162,0.5087131422811839,155.0,935.0
B,L,"[2, 2]",1.0,6.0,0.20599794387817383,1.6664140224456787,0.4585855653296346,155.0,936.0
,,"(3, 3)",,,,,,155.0,
R,U,"[2, 3]",1.0,1.0,0.574660062789917,3.2358779907226562,0.42793477295981674,,937.0
B,L,"[2, 2]",1.0,2.0,0.3470420837402344,1.6119880676269531,0.2566741562694695,156.0,938.0
R,U,"[1, 2]",1.0,3.0,0.340595006942749,1.6073048114776611,0.2640056893451999,156.0,939.0
G,D,"[2, 2]",1.0,4.0,0.354996919631958,1.6336798667907715,0.26441653968275663,156.0,940.0
Y,R,"[2, 3]",1.0,5.0,0.5774819850921631,2.307644844055176,0.7216024008822247,156.0,941.0
B,L,"[2, 2]",1.0,6.0,0.25886082649230957,1.6387159824371338,0.3773200349362287,156.0,942.0
,,"(3, 3)",,,,,,156.0,
R,U,"[2, 3]",1.0,1.0,0.5110452175140381,5.906711101531982,0.30097784080981177,,943.0
B,L,"[2, 2]",1.0,2.0,0.32689714431762695,1.6602230072021484,0.3278827616670556,157.0,944.0
R,U,"[1, 2]",1.0,3.0,0.3309030532836914,1.762929916381836,0.4404331139809907,157.0,945.0
G,D,"[2, 2]",1.0,4.0,0.26238512992858887,1.9541170597076416,0.6946291617368943,157.0,946.0
Y,R,"[2, 3]",1.0,5.0,0.2099440097808838,1.8600389957427979,0.654565067494503,157.0,947.0
B,L,"[2, 2]",1.0,6.0,0.21012115478515625,1.4947550296783447,0.28320712070292425,157.0,948.0
,,"(3, 3)",,,,,,157.0,
R,U,"[2, 3]",1.0,1.0,0.6060910224914551,10.172987222671509,0.689139592636925,,949.0
B,L,"[2, 2]",1.0,2.0,0.18075203895568848,1.7824220657348633,0.6049724383498021,158.0,950.0
R,U,"[1, 2]",1.0,3.0,0.20337915420532227,1.7181150913238525,0.5231956021454234,158.0,951.0
G,D,"[2, 2]",1.0,4.0,0.27877092361450195,1.6094989776611328,0.33307969191090836,158.0,952.0
Y,R,"[2, 3]",1.0,5.0,0.35408806800842285,2.0784480571746826,0.727689770036773,158.0,953.0
B,L,"[2, 2]",1.0,6.0,0.21573781967163086,1.7270851135253906,0.5049951607821077,158.0,954.0
,,"(3, 3)",,,,,,158.0,
R,U,"[2, 3]",1.0,1.0,0.7500519752502441,3.4295411109924316,0.2515954246265292,,955.0
B,L,"[2, 2]",1.0,2.0,0.411113977432251,2.021710157394409,0.6062877333179015,159.0,956.0
R,U,"[1, 2]",1.0,3.0,0.21437406539916992,1.7513530254364014,0.5410239623653466,159.0,957.0
G,D,"[2, 2]",1.0,4.0,0.24444103240966797,1.9531631469726562,0.7106980880852474,159.0,958.0
Y,R,"[2, 3]",1.0,5.0,0.1784651279449463,1.6838421821594238,0.5114257356457194,159.0,959.0
B,L,"[2, 2]",1.0,6.0,0.22233104705810547,1.802393913269043,0.5805721751026987,159.0,960.0
,,"(3, 3)",,,,,,159.0,
R,U,"[2, 3]",1.0,1.0,0.6812751293182373,3.295574903488159,0.30994258173928874,,961.0
B,L,"[2, 2]",1.0,2.0,0.8735711574554443,2.5039780139923096,0.6301313341425865,160.0,962.0
R,U,"[1, 2]",1.0,3.0,0.24373888969421387,1.6918621063232422,0.43879094463066126,160.0,963.0
G,D,"[2, 2]",1.0,4.0,0.49263906478881836,2.0076000690460205,0.5299140179855377,160.0,964.0
Y,R,"[2, 3]",1.0,5.0,0.4920179843902588,1.988420009613037,0.48485515674205854,160.0,965.0
B,L,"[2, 2]",1.0,6.0,0.4136810302734375,1.9143221378326416,0.49919009041943635,160.0,966.0
,,"(3, 3)",,,,,,160.0,
R,U,"[2, 3]",1.0,1.0,0.6956489086151123,3.620741128921509,0.6697914960781386,,967.0
B,L,"[2, 2]",1.0,2.0,0.4634590148925781,1.923414945602417,0.4601469776168905,161.0,968.0
R,U,"[1, 2]",1.0,3.0,0.5678210258483887,1.9793798923492432,0.4062604812170175,161.0,969.0
G,D,"[2, 2]",-2.0,3.0,1.1445949077606201,2.4404971599578857,0.2636651264960175,161.0,970.0
Y,R,"[2, 3]",1.0,4.0,0.7596151828765869,2.381535053253174,0.6116231686881748,161.0,971.0
B,L,"[2, 2]",1.0,5.0,0.2860710620880127,1.9074769020080566,0.6190972855872316,161.0,972.0
,,"(3, 3)",,,,,,161.0,
R,U,"[2, 3]",1.0,1.0,0.557607889175415,2.991682767868042,0.3279345368931448,,973.0
B,L,"[2, 2]",1.0,2.0,0.32034802436828613,1.6133038997650146,0.2911047013167488,162.0,974.0
R,U,"[1, 2]",1.0,3.0,0.45685291290283203,1.9029841423034668,0.4439571950827395,162.0,975.0
G,D,"[2, 2]",1.0,4.0,0.24673199653625488,1.6351120471954346,0.39581842732280753,162.0,976.0
Y,R,"[2, 3]",1.0,5.0,0.2915189266204834,1.655458927154541,0.3679251702699374,162.0,977.0
B,L,"[2, 2]",1.0,6.0,0.25614190101623535,1.8745479583740234,0.6256273262110514,162.0,978.0
,,"(3, 3)",,,,,,162.0,
R,U,"[2, 3]",1.0,1.0,0.41139817237854004,2.991527795791626,0.534067515864084,,979.0
B,L,"[2, 2]",1.0,2.0,0.20440316200256348,1.9344000816345215,0.7180695961200605,163.0,980.0
R,U,"[1, 2]",1.0,3.0,0.20929217338562012,1.938755989074707,0.7236348824217196,163.0,981.0
G,D,"[2, 2]",-1.0,3.0,0.001940011978149414,5.464680194854736,0.33877243247931654,163.0,982.0
Y,R,"[2, 3]",1.0,4.0,0.22129487991333008,1.7516379356384277,0.5236921998217174,163.0,983.0
B,L,"[2, 2]",1.0,5.0,0.2753489017486572,1.7819650173187256,0.5055157871242193,163.0,984.0
,,"(3, 3)",,,,,,163.0,
R,U,"[2, 3]",1.0,1.0,0.92864990234375,6.041473150253296,0.6138415769324661,,985.0
B,L,"[2, 2]",1.0,2.0,0.25623297691345215,1.7352900505065918,0.4658681469568074,164.0,986.0
R,U,"[1, 2]",1.0,3.0,0.33093786239624023,1.6555628776550293,0.32156463765819543,164.0,987.0
G,D,"[2, 2]",1.0,4.0,0.4070589542388916,2.014305830001831,0.6024223957047083,164.0,988.0
Y,R,"[2, 3]",1.0,5.0,0.26964402198791504,1.547205924987793,0.266484344500964,164.0,989.0
B,L,"[2, 2]",1.0,6.0,0.47046804428100586,2.1867868900299072,0.7029666921714328,164.0,990.0
,,"(3, 3)",,,,,,164.0,
R,U,"[2, 3]",1.0,1.0,0.5524489879608154,2.892486095428467,0.6122197989007807,,991.0
B,L,"[2, 2]",1.0,2.0,0.2264389991760254,1.807042121887207,0.5859946564005993,165.0,992.0
R,U,"[1, 2]",1.0,3.0,0.32837700843811035,1.6251559257507324,0.294775764251939,165.0,993.0
G,D,"[2, 2]",1.0,4.0,0.4357430934906006,1.7445380687713623,0.3061139925288764,165.0,994.0
Y,R,"[2, 3]",1.0,5.0,0.3938407897949219,1.9690608978271484,0.5748751932968859,165.0,995.0
B,L,"[2, 2]",1.0,6.0,0.31818485260009766,1.6906790733337402,0.36575109153857005,165.0,996.0
,,"(3, 3)",,,,,,165.0,
R,U,"[2, 3]",1.0,1.0,0.6655068397521973,4.044765949249268,0.34384370906247014,,997.0
B,L,"[2, 2]",1.0,2.0,0.34905505180358887,1.760699987411499,0.4046271459875893,166.0,998.0
R,U,"[1, 2]",1.0,3.0,0.3426389694213867,2.012395143508911,0.6666201024142264,166.0,999.0
Y,R,"[1, 3]",-1.0,2.0,0.28000903129577637,1.8837339878082275,0.5840368598361436,166.0,1000.0
G,D,"[2, 3]",1.0,3.0,0.2717020511627197,1.576436996459961,0.2940457394902114,166.0,1001.0
Y,R,"[2, 4]",-1.0,2.0,0.641995906829834,2.047734022140503,0.4083547038247591,166.0,1002.0
,,"(3, 3)",,,,,,166.0,
R,U,"[2, 3]",1.0,1.0,0.7890119552612305,4.185443878173828,0.4604719875239048,,1003.0
B,L,"[2, 2]",1.0,2.0,0.23825383186340332,1.6138708591461182,0.3910815811431688,167.0,1004.0
R,U,"[1, 2]",1.0,3.0,0.2741889953613281,1.7039670944213867,0.4284056765118122,167.0,1005.0
Y,R,"[1, 3]",-1.0,2.0,0.29970788955688477,1.68939208984375,0.38458920257749124,167.0,1006.0
B,L,"[1, 2]",-2.0,2.0,1.6543669700622559,3.256639003753662,0.5744130344227223,167.0,1007.0
B,L,"[1, 1]",1.0,3.0,0.5566179752349854,1.9502909183502197,0.39150941926868205,167.0,1008.0
,,"(3, 3)",,,,,,167.0,
R,U,"[2, 3]",1.0,1.0,0.68985915184021,6.5765111446380615,0.28521320453174503,,1009.0
B,L,"[2, 2]",1.0,2.0,0.3454110622406006,1.903182029724121,0.5545904869896761,168.0,1010.0
R,U,"[1, 2]",1.0,3.0,0.20343685150146484,1.5627539157867432,0.35087543958942485,168.0,1011.0
G,D,"[2, 2]",1.0,4.0,0.29388904571533203,1.6398751735687256,0.3408371998638288,168.0,1012.0
Y,R,"[2, 3]",1.0,5.0,0.23956298828125,1.9917879104614258,0.7489344011142622,168.0,1013.0
B,L,"[2, 2]",1.0,6.0,0.22070693969726562,1.768794059753418,0.5345007487794596,168.0,1014.0
,,"(3, 3)",,,,,,168.0,
R,U,"[2, 3]",1.0,1.0,0.7594659328460693,2.93229603767395,0.26712557950313714,,1015.0
B,L,"[2, 2]",1.0,2.0,0.5869381427764893,1.9190659523010254,0.31960615985782753,169.0,1016.0
R,U,"[1, 2]",1.0,3.0,0.48953890800476074,1.7833950519561768,0.2862595819398839,169.0,1017.0
G,D,"[2, 2]",1.0,4.0,0.40921878814697266,1.8058960437774658,0.3921386116873334,169.0,1018.0
Y,R,"[2, 3]",1.0,5.0,0.2549629211425781,1.7322537899017334,0.4743530318573644,169.0,1019.0
B,L,"[2, 2]",1.0,6.0,0.16074514389038086,1.6083440780639648,0.4493641518832413,169.0,1020.0
,,"(3, 3)",,,,,,169.0,
R,U,"[2, 3]",1.0,1.0,0.6363270282745361,3.3133270740509033,0.5792080373169608,,1021.0
B,L,"[2, 2]",1.0,2.0,0.22564291954040527,1.9206891059875488,0.6832589234739366,170.0,1022.0
R,U,"[1, 2]",1.0,3.0,0.25189208984375,1.5392119884490967,0.27317678874841844,170.0,1023.0
G,D,"[2, 2]",1.0,4.0,0.4365959167480469,2.1460838317871094,0.7017854383662536,170.0,1024.0
Y,R,"[2, 3]",1.0,5.0,0.22600078582763672,1.9807000160217285,0.749203533564418,170.0,1025.0
B,L,"[2, 2]",1.0,6.0,0.26471495628356934,1.9277970790863037,0.6605925271848094,170.0,1026.0
,,"(3, 3)",,,,,,170.0,
R,U,"[2, 3]",1.0,1.0,0.6546399593353271,6.341780185699463,0.6525180355628967,,1027.0
B,L,"[2, 2]",1.0,2.0,0.20702004432678223,1.7121601104736328,0.49807843285160236,171.0,1028.0
R,U,"[1, 2]",1.0,3.0,0.26959896087646484,1.733370065689087,0.4482932274287432,171.0,1029.0
G,D,"[2, 2]",1.0,4.0,0.33336806297302246,1.9164371490478516,0.5646234631262899,171.0,1030.0
Y,R,"[2, 3]",1.0,5.0,0.2607719898223877,1.9766299724578857,0.7076917665770419,171.0,1031.0
B,L,"[2, 2]",1.0,6.0,0.2480008602142334,1.6984448432922363,0.45640252448141044,171.0,1032.0
,,"(3, 3)",,,,,,171.0,
R,U,"[2, 3]",1.0,1.0,0.6176528930664062,22.194098949432373,0.31756426244498914,,1033.0
B,L,"[2, 2]",1.0,2.0,0.5037200450897217,1.8248929977416992,0.30925963885946767,172.0,1034.0
R,U,"[1, 2]",1.0,3.0,0.3251769542694092,1.9610140323638916,0.6367176309232176,172.0,1035.0
G,D,"[2, 2]",1.0,4.0,0.2217118740081787,1.4966859817504883,0.2671638051582352,172.0,1036.0
Y,R,"[2, 3]",1.0,5.0,0.3484330177307129,2.018893003463745,0.6688667243719402,172.0,1037.0
B,L,"[2, 2]",1.0,6.0,0.21595001220703125,1.8306069374084473,0.5829178856021635,172.0,1038.0
,,"(3, 3)",,,,,,172.0,
R,U,"[2, 3]",1.0,1.0,0.5347909927368164,3.407128095626831,0.3239826404108155,,1039.0
B,L,"[2, 2]",1.0,2.0,0.27079296112060547,1.644887924194336,0.36887958983791685,173.0,1040.0
R,U,"[1, 2]",1.0,3.0,0.27686595916748047,1.8892889022827148,0.6076723872845113,173.0,1041.0
G,D,"[2, 2]",1.0,4.0,0.22655200958251953,1.749333143234253,0.5238030395696656,173.0,1042.0
Y,R,"[2, 3]",1.0,5.0,0.24462199211120605,1.8723220825195312,0.6294119400295604,173.0,1043.0
B,L,"[2, 2]",1.0,6.0,0.15506911277770996,1.9186418056488037,0.7478833162992113,173.0,1044.0
,,"(3, 3)",,,,,,173.0,
R,U,"[2, 3]",1.0,1.0,0.5196981430053711,20.498054027557373,0.31342443227541184,,1045.0
B,L,"[2, 2]",1.0,2.0,0.2557229995727539,1.6779050827026367,0.40784558590858466,174.0,1046.0
R,U,"[1, 2]",1.0,3.0,0.20888090133666992,1.8975679874420166,0.6885479271861366,174.0,1047.0
G,D,"[2, 2]",1.0,4.0,0.23487591743469238,1.6742351055145264,0.4297058951964084,174.0,1048.0
Y,R,"[2, 3]",1.0,5.0,0.2336750030517578,1.7259910106658936,0.4723431910535705,174.0,1049.0
B,L,"[2, 2]",1.0,6.0,0.16341590881347656,1.7500238418579102,0.5888885718901233,174.0,1050.0
,,"(3, 3)",,,,,,174.0,
R,U,"[2, 3]",1.0,1.0,0.7506561279296875,3.17848801612854,0.26787220802675976,,1051.0
B,L,"[2, 2]",1.0,2.0,0.25787901878356934,1.913722038269043,0.647961636932166,175.0,1052.0
R,U,"[1, 2]",1.0,3.0,0.26308703422546387,1.8622210025787354,0.5935615791493307,175.0,1053.0
G,D,"[2, 2]",1.0,4.0,0.2723839282989502,1.6254949569702148,0.3526415106955272,175.0,1054.0
Y,R,"[2, 3]",1.0,5.0,0.23546195030212402,1.9788970947265625,0.7478888467895904,175.0,1055.0
B,L,"[2, 2]",1.0,6.0,0.22079086303710938,1.7878799438476562,0.5692671316319539,175.0,1056.0
,,"(3, 3)",,,,,,175.0,
R,U,"[2, 3]",1.0,1.0,0.5674998760223389,30.661022901535034,0.7304939866316394,,1057.0
B,L,"[2, 2]",1.0,2.0,0.20300507545471191,1.9284889698028564,0.7090116515033125,176.0,1058.0
R,U,"[1, 2]",1.0,3.0,0.2863130569458008,1.7746250629425049,0.48392025895734736,176.0,1059.0
G,D,"[2, 2]",1.0,4.0,0.3101339340209961,2.01283597946167,0.6966023658510945,176.0,1060.0
Y,R,"[2, 3]",1.0,5.0,0.3042721748352051,2.05915904045105,0.7390525152687694,176.0,1061.0
B,L,"[2, 2]",1.0,6.0,0.21947097778320312,1.5964691638946533,0.36926735865191146,176.0,1062.0
,,"(3, 3)",,,,,,176.0,
R,U,"[2, 3]",1.0,1.0,0.5431020259857178,14.757063150405884,0.3101505435083628,,1063.0
B,L,"[2, 2]",1.0,2.0,0.48695898056030273,2.231626033782959,0.7411084113166313,177.0,1064.0
R,U,"[1, 2]",1.0,3.0,0.25876402854919434,1.748492956161499,0.48993317427696137,177.0,1065.0
G,D,"[2, 2]",1.0,4.0,0.8027470111846924,2.4927639961242676,0.6824966337847655,177.0,1066.0
Y,R,"[2, 3]",1.0,5.0,0.21990680694580078,1.8608250617980957,0.6267919659910568,177.0,1067.0
B,L,"[2, 2]",1.0,6.0,0.22899889945983887,1.6695950031280518,0.4465749494062729,177.0,1068.0
,,"(3, 3)",,,,,,177.0,
R,U,"[2, 3]",1.0,1.0,0.6452770233154297,2.966603994369507,0.629688552551301,,1069.0
B,L,"[2, 2]",1.0,2.0,0.21997690200805664,1.5512018203735352,0.3145952659409112,178.0,1070.0
R,U,"[1, 2]",1.0,3.0,0.830376148223877,2.5805258750915527,0.7447603339162655,178.0,1071.0
G,D,"[2, 2]",1.0,4.0,0.38062500953674316,1.814173936843872,0.4425271588158358,178.0,1072.0
Y,R,"[2, 3]",1.0,5.0,0.5059728622436523,1.800328016281128,0.2931487013945448,178.0,1073.0
B,L,"[2, 2]",1.0,6.0,0.3229849338531494,1.7638108730316162,0.4401778205194496,178.0,1074.0
,,"(3, 3)",,,,,,178.0,
R,U,"[2, 3]",1.0,1.0,0.6184089183807373,2.576035976409912,0.4660812797537454,,1075.0
B,L,"[2, 2]",1.0,2.0,0.2620201110839844,1.61649489402771,0.34951627645931793,179.0,1076.0
R,U,"[1, 2]",1.0,3.0,0.41870903968811035,2.006775140762329,0.5726952666259146,179.0,1077.0
