button_choice,action_choice,coordinate_choice,reward,cumulative_reward,rt,total_trial_time,iti,block_n,trial_n
B,L,"[3, 2]",-2.0,0.0,3.3202691078186035,4.645986795425415,0.2970532488776429,0.0,1.0
B,L,"[3, 1]",1.0,1.0,0.4642970561981201,1.7737388610839844,0.3043413016298428,0.0,2.0
R,U,"[2, 1]",1.0,2.0,0.5426828861236572,2.2352499961853027,0.6889269985324209,0.0,3.0
G,D,"[3, 1]",0.0,2.0,0.679563045501709,2.005915880203247,0.32871085905316794,0.0,4.0
Y,R,"[3, 2]",0.0,2.0,0.2927730083465576,1.808948040008545,0.5209018991944774,0.0,5.0
B,L,"[3, 1]",0.0,2.0,0.3838679790496826,2.0496509075164795,0.6704349509518726,0.0,6.0
,,"(3, 3)",,,,,,0.0,
B,L,"[3, 2]",-2.0,0.0,1.4452500343322754,9.03206992149353,0.3530115731383081,,7.0
G,D,"[4, 2]",-1.0,-1.0,0.2858748435974121,1.6740031242370605,0.39362232665474417,1.0,8.0
Y,R,"[4, 3]",-1.0,-2.0,0.3247559070587158,1.8033289909362793,0.48016878330255613,1.0,9.0
B,L,"[4, 2]",0.0,-2.0,0.35277700424194336,1.8310167789459229,0.461350745590902,1.0,10.0
R,U,"[3, 2]",0.0,-2.0,0.20136404037475586,1.8560800552368164,0.6671119008870211,1.0,11.0
G,D,"[4, 2]",0.0,-2.0,0.3145890235900879,1.8339130878448486,0.5180639034057217,1.0,12.0
,,"(3, 3)",,,,,,1.0,
Y,R,"[3, 4]",-1.0,-1.0,0.34200596809387207,6.603881120681763,0.555397028242479,,13.0
R,U,"[2, 4]",-1.0,-2.0,0.23337697982788086,1.6502389907836914,0.40560715426453237,2.0,14.0
Y,R,"[2, 5]",-1.0,-3.0,0.21854686737060547,1.7303049564361572,0.5024416522497173,2.0,15.0
R,U,"[1, 5]",-1.0,-4.0,0.18130207061767578,1.6195788383483887,0.4221946453894196,2.0,16.0
G,D,"[2, 5]",0.0,-4.0,0.4096798896789551,1.8892359733581543,0.47796904477348584,2.0,17.0
G,D,"[3, 5]",-1.0,-5.0,0.3944108486175537,1.6486620903015137,0.2602559430517945,2.0,18.0
,,"(3, 3)",,,,,,2.0,
B,L,"[3, 2]",1.0,1.0,0.6596407890319824,4.882929086685181,0.44313544103799485,,19.0
B,L,"[3, 1]",1.0,2.0,0.21416902542114258,1.9198439121246338,0.7127465756997389,3.0,20.0
B,L,"[3, 0]",0.0,2.0,0.17638492584228516,1.8631558418273926,0.6758343348898177,3.0,21.0
R,U,"[2, 0]",0.0,2.0,0.15418004989624023,1.5925519466400146,0.4353240180437274,3.0,22.0
Y,R,"[2, 1]",1.0,3.0,0.3314509391784668,1.8148770332336426,0.46690073184900754,3.0,23.0
Y,R,"[2, 2]",1.0,4.0,0.1585690975189209,1.720672845840454,0.5542723099968299,3.0,24.0
,,"(3, 3)",,,,,,3.0,
G,D,"[4, 3]",-1.0,-1.0,0.378695011138916,3.9049601554870605,0.5261320278990039,,25.0
R,U,"[3, 3]",0.0,-1.0,0.1840660572052002,1.5929450988769531,0.402231032196411,4.0,26.0
B,L,"[3, 2]",1.0,0.0,0.14730215072631836,1.5087430477142334,0.3445017918564069,4.0,27.0
B,L,"[3, 1]",1.0,1.0,0.1895129680633545,1.5984129905700684,0.4094867015542307,4.0,28.0
B,L,"[3, 0]",0.0,1.0,0.3133549690246582,1.931555986404419,0.6243042205770095,4.0,29.0
Y,R,"[3, 1]",0.0,1.0,0.2133488655090332,1.7313551902770996,0.5223744489196147,4.0,30.0
,,"(3, 3)",,,,,,4.0,
R,U,"[2, 3]",-1.0,-1.0,0.4640791416168213,3.2620151042938232,0.5012929062824714,,31.0
G,D,"[3, 3]",0.0,-1.0,0.6891200542449951,1.952775001525879,0.2543815017404999,5.0,32.0
Y,R,"[3, 4]",-1.0,-2.0,0.32717204093933105,1.7677409648895264,0.4385756597584411,5.0,33.0
B,L,"[3, 3]",0.0,-2.0,0.19160699844360352,1.9298779964447021,0.7347882963829084,5.0,34.0
G,D,"[4, 3]",-1.0,-3.0,0.2932898998260498,1.6097910404205322,0.3116994242221423,5.0,35.0
R,U,"[3, 3]",0.0,-3.0,0.2924530506134033,1.5614550113677979,0.27318723442812315,5.0,36.0
,,"(3, 3)",,,,,,5.0,
B,L,"[3, 2]",1.0,1.0,0.45374298095703125,3.21799898147583,0.3912012731597229,,37.0
B,L,"[3, 1]",1.0,2.0,0.17816686630249023,1.619499921798706,0.44390978472179127,6.0,38.0
R,U,"[2, 1]",1.0,3.0,0.6075439453125,2.2482681274414062,0.6419912860611747,6.0,39.0
R,U,"[1, 1]",-1.0,2.0,0.32460594177246094,2.036194086074829,0.7115400920649826,6.0,40.0
G,D,"[2, 1]",0.0,2.0,0.17931890487670898,1.828796148300171,0.6569656583504686,6.0,41.0
Y,R,"[2, 2]",1.0,3.0,0.17913007736206055,1.5014610290527344,0.3254387364061252,6.0,42.0
,,"(3, 3)",,,,,,6.0,
Y,R,"[3, 4]",-1.0,-1.0,0.476870059967041,3.8210370540618896,0.6961920552481626,,43.0
R,U,"[2, 4]",-1.0,-1.0,0.06597399711608887,5.739349126815796,0.5192146952908268,7.0,44.0
G,D,"[3, 4]",0.0,-1.0,0.361983060836792,2.0822269916534424,0.717871367202799,7.0,45.0
R,U,"[2, 4]",0.0,-1.0,0.264707088470459,1.5179600715637207,0.2529498221365072,7.0,46.0
G,D,"[3, 4]",0.0,-1.0,0.4298989772796631,2.1522841453552246,0.7215167905843713,7.0,47.0
B,L,"[3, 3]",0.0,-1.0,0.4480881690979004,2.1815600395202637,0.7364743173043411,7.0,48.0
,,"(3, 3)",,,,,,7.0,
B,L,"[3, 2]",-2.0,0.0,1.3039848804473877,4.247341156005859,0.6173506094437435,,49.0
B,L,"[3, 1]",1.0,1.0,0.3890058994293213,1.742311954498291,0.34329960133835874,8.0,50.0
B,L,"[3, 0]",0.0,1.0,0.2707540988922119,1.6291618347167969,0.3557167994083509,8.0,51.0
R,U,"[2, 0]",0.0,1.0,0.370344877243042,1.7250020503997803,0.3474401600669164,8.0,52.0
G,D,"[3, 0]",0.0,1.0,0.34701085090637207,1.7098588943481445,0.3572067445394006,8.0,53.0
Y,R,"[3, 1]",0.0,1.0,0.3382270336151123,2.0349438190460205,0.6920150058669903,8.0,54.0
,,"(3, 3)",,,,,,8.0,
B,L,"[3, 2]",-2.0,0.0,1.2059760093688965,4.2883620262146,0.7304252469780308,,55.0
B,L,"[3, 1]",1.0,1.0,0.27298498153686523,1.7905359268188477,0.5044850153619564,9.0,56.0
B,L,"[3, 0]",0.0,1.0,0.23569798469543457,1.7996108531951904,0.5707411283677652,9.0,57.0
R,U,"[2, 0]",0.0,1.0,0.18382787704467773,1.4712858200073242,0.29233314989085374,9.0,58.0
Y,R,"[2, 1]",1.0,2.0,0.27910304069519043,1.612013816833496,0.321049168244585,9.0,59.0
Y,R,"[2, 2]",1.0,3.0,0.2825498580932617,1.9158837795257568,0.619893236086236,9.0,60.0
,,"(3, 3)",,,,,,9.0,
B,L,"[3, 2]",1.0,1.0,0.28815507888793945,3.1504008769989014,0.3539525317327042,,61.0
B,L,"[3, 1]",1.0,2.0,0.23900794982910156,1.7952418327331543,0.5491230126953781,10.0,62.0
Y,R,"[3, 2]",0.0,2.0,0.27199387550354004,1.7469918727874756,0.46275642634979663,10.0,63.0
R,U,"[2, 2]",1.0,3.0,0.21129107475280762,1.4972479343414307,0.2770167446784064,10.0,64.0
R,U,"[1, 2]",1.0,4.0,0.17797112464904785,1.658458948135376,0.48518175082282483,10.0,65.0
G,D,"[2, 2]",0.0,4.0,0.3784310817718506,1.9522819519042969,0.5708536480237743,10.0,66.0
,,"(3, 3)",,,,,,10.0,
B,L,"[3, 2]",1.0,1.0,0.5792529582977295,3.5198822021484375,0.6572772474700946,,67.0
B,L,"[3, 1]",1.0,2.0,0.19005203247070312,1.8461220264434814,0.6538619871630272,11.0,68.0
R,U,"[2, 1]",1.0,3.0,0.38784289360046387,2.028053045272827,0.6316002190507813,11.0,69.0
R,U,"[1, 1]",-1.0,2.0,0.17172598838806152,1.5960330963134766,0.4112686481624842,11.0,70.0
Y,R,"[1, 2]",1.0,3.0,0.1845719814300537,1.7508130073547363,0.5619080217433119,11.0,71.0
Y,R,"[1, 3]",1.0,4.0,0.2142789363861084,1.5471951961517334,0.34262796337609996,11.0,72.0
,,"(3, 3)",,,,,,11.0,
B,L,"[3, 2]",1.0,1.0,0.4374520778656006,3.6284680366516113,0.5876038490496787,,73.0
B,L,"[3, 1]",1.0,2.0,0.38815903663635254,1.9670889377593994,0.5713144107341332,12.0,74.0
R,U,"[2, 1]",1.0,3.0,0.29158496856689453,1.6399650573730469,0.344894828516154,12.0,75.0
Y,R,"[2, 2]",1.0,4.0,0.27645397186279297,1.596052885055542,0.3242578797552423,12.0,76.0
Y,R,"[2, 3]",-1.0,3.0,0.3153409957885742,2.025709867477417,0.6996006169048403,12.0,77.0
R,U,"[1, 3]",1.0,4.0,0.7750210762023926,2.1275999546051025,0.34434295701915635,12.0,78.0
,,"(3, 3)",,,,,,12.0,
B,L,"[3, 2]",1.0,1.0,0.5350780487060547,3.0775959491729736,0.35535166689065945,,79.0
B,L,"[3, 1]",1.0,2.0,0.6831932067871094,2.358649969100952,0.6637837645124152,13.0,80.0
R,U,"[2, 1]",1.0,3.0,0.22463607788085938,1.4892079830169678,0.2533494952358072,13.0,81.0
Y,R,"[2, 2]",1.0,4.0,0.343350887298584,1.8945889472961426,0.5476927673894925,13.0,82.0
R,U,"[1, 2]",1.0,5.0,0.28841304779052734,1.6207489967346191,0.31863082139333165,13.0,83.0
B,L,"[1, 1]",-1.0,4.0,0.774806022644043,2.3360488414764404,0.554457244513691,13.0,84.0
,,"(3, 3)",,,,,,13.0,
B,L,"[3, 2]",1.0,1.0,0.442579984664917,3.1835808753967285,0.7213586801766809,,85.0
B,L,"[3, 1]",1.0,2.0,0.540334939956665,1.8283801078796387,0.2835474071003137,14.0,86.0
R,U,"[2, 1]",1.0,3.0,0.3500208854675293,1.6447460651397705,0.2783852420147826,14.0,87.0
Y,R,"[2, 2]",1.0,4.0,0.250931978225708,1.5137450695037842,0.2587312353368913,14.0,88.0
R,U,"[1, 2]",1.0,5.0,0.22629880905151367,1.8603298664093018,0.6354474895121665,14.0,89.0
G,D,"[2, 2]",0.0,5.0,0.22202110290527344,1.497093915939331,0.2662068132495998,14.0,90.0
,,"(3, 3)",,,,,,14.0,
B,L,"[3, 2]",1.0,1.0,0.332733154296875,3.295199155807495,0.6944299755625643,,91.0
B,L,"[3, 1]",1.0,2.0,0.34835290908813477,2.121622085571289,0.7492961132002531,15.0,92.0
R,U,"[2, 1]",-1.0,2.0,0.044172048568725586,5.5236430168151855,0.35681843500620586,15.0,93.0
R,U,"[1, 1]",-1.0,1.0,0.4977688789367676,1.7973029613494873,0.2874443265620852,15.0,94.0
Y,R,"[1, 2]",1.0,2.0,0.4516470432281494,1.9451189041137695,0.4825359305524669,15.0,95.0
Y,R,"[1, 3]",1.0,3.0,0.31679296493530273,2.0021681785583496,0.6677335708438652,15.0,96.0
,,"(3, 3)",,,,,,15.0,
B,L,"[3, 2]",1.0,1.0,0.6044659614562988,3.057995080947876,0.2930066564710243,,97.0
B,L,"[3, 1]",1.0,2.0,0.46008801460266113,1.8751399517059326,0.4173131114016234,16.0,98.0
R,U,"[2, 1]",1.0,3.0,0.4519810676574707,1.9508459568023682,0.4853709698310947,16.0,99.0
Y,R,"[2, 2]",1.0,4.0,0.20092105865478516,1.862239122390747,0.6475642325939953,16.0,100.0
R,U,"[1, 2]",1.0,5.0,0.43813014030456543,1.765143871307373,0.31303519910402217,16.0,101.0
Y,R,"[1, 3]",1.0,6.0,0.39748501777648926,2.0757548809051514,0.671791196833628,16.0,102.0
,,"(3, 3)",,,,,,16.0,
B,L,"[3, 2]",1.0,1.0,0.9091610908508301,3.705024003982544,0.5436788391469312,,103.0
B,L,"[3, 1]",1.0,2.0,0.5259740352630615,2.18818998336792,0.665075013313593,17.0,104.0
R,U,"[2, 1]",1.0,3.0,0.48606300354003906,1.7933690547943115,0.29226135884229854,17.0,105.0
Y,R,"[2, 2]",1.0,4.0,0.3697049617767334,1.8760969638824463,0.5014204852953703,17.0,106.0
R,U,"[1, 2]",1.0,5.0,0.26157498359680176,1.6977899074554443,0.4327155203364918,17.0,107.0
Y,R,"[1, 3]",1.0,6.0,0.33649396896362305,2.053354024887085,0.7024283664439592,17.0,108.0
,,"(3, 3)",,,,,,17.0,
B,L,"[3, 2]",1.0,1.0,0.8329119682312012,4.703418970108032,0.3895318015214819,,109.0
B,L,"[3, 1]",1.0,2.0,0.40881991386413574,2.0353031158447266,0.6247469499261304,18.0,110.0
R,U,"[2, 1]",1.0,3.0,0.2806379795074463,1.7822668552398682,0.5071372386653956,18.0,111.0
Y,R,"[2, 2]",1.0,4.0,0.30523109436035156,1.6518218517303467,0.3424919813694926,18.0,112.0
R,U,"[1, 2]",1.0,5.0,0.33748912811279297,2.13887095451355,0.6758511937108085,18.0,113.0
Y,R,"[1, 3]",1.0,6.0,0.31300902366638184,2.0349321365356445,0.7158483830002245,18.0,114.0
,,"(3, 3)",,,,,,18.0,
B,L,"[3, 2]",1.0,1.0,0.7436478137969971,4.40174412727356,0.3680184783014419,,115.0
B,L,"[3, 1]",1.0,2.0,0.4422950744628906,1.7493739128112793,0.3008109682367512,19.0,116.0
R,U,"[2, 1]",1.0,3.0,0.2634999752044678,1.920461893081665,0.6544307963783178,19.0,117.0
Y,R,"[2, 2]",1.0,4.0,0.22772502899169922,1.8413069248199463,0.6122157591305446,19.0,118.0
R,U,"[1, 2]",1.0,5.0,0.17441296577453613,1.4737780094146729,0.3031380787982752,19.0,119.0
Y,R,"[1, 3]",1.0,6.0,0.3521568775177002,2.0969278812408447,0.7330504334988734,19.0,120.0
,,"(3, 3)",,,,,,19.0,
B,L,"[3, 2]",1.0,1.0,0.7356481552124023,4.355283975601196,0.6385436930054778,,121.0
B,L,"[3, 1]",1.0,2.0,0.68442702293396,2.022453784942627,0.328185587304157,20.0,122.0
R,U,"[2, 1]",1.0,3.0,0.2577509880065918,1.564276933670044,0.3088645464341559,20.0,123.0
Y,R,"[2, 2]",1.0,4.0,0.35227298736572266,1.9384520053863525,0.5970564898603414,20.0,124.0
R,U,"[1, 2]",1.0,5.0,0.2444148063659668,1.5386769771575928,0.28619181512163927,20.0,125.0
Y,R,"[1, 3]",1.0,6.0,0.30394792556762695,2.006279945373535,0.692029788671451,20.0,126.0
,,"(3, 3)",,,,,,20.0,
B,L,"[3, 2]",1.0,1.0,0.38160204887390137,3.0533180236816406,0.6621224537333321,,127.0
B,L,"[3, 1]",1.0,2.0,0.358410120010376,1.9909160137176514,0.6362315498101847,21.0,128.0
R,U,"[2, 1]",1.0,3.0,0.4012589454650879,2.0580170154571533,0.6444852986716081,21.0,129.0
Y,R,"[2, 2]",1.0,4.0,0.1842498779296875,1.7885119915008545,0.5996290013736407,21.0,130.0
R,U,"[1, 2]",1.0,5.0,0.24347615242004395,1.9002330303192139,0.6499593782395107,21.0,131.0
Y,R,"[1, 3]",-1.0,5.0,0.09554386138916016,5.528540134429932,0.29546538213661355,21.0,132.0
,,"(3, 3)",,,,,,21.0,
B,L,"[3, 2]",1.0,1.0,0.7391548156738281,4.830579996109009,0.5756986700115521,,133.0
B,L,"[3, 1]",1.0,2.0,0.4737050533294678,2.201205015182495,0.7269605918417432,22.0,134.0
R,U,"[2, 1]",1.0,3.0,0.31078004837036133,1.6912779808044434,0.385306453287477,22.0,135.0
Y,R,"[2, 2]",1.0,4.0,0.3468329906463623,2.0197129249572754,0.6714045955755417,22.0,136.0
R,U,"[1, 2]",1.0,5.0,0.34150099754333496,1.8550159931182861,0.5099438634009525,22.0,137.0
Y,R,"[1, 3]",1.0,6.0,0.18531394004821777,1.7232120037078857,0.5498991888004562,22.0,138.0
,,"(3, 3)",,,,,,22.0,
B,L,"[3, 2]",1.0,1.0,0.8480770587921143,3.778618812561035,0.2956984877190697,,139.0
B,L,"[3, 1]",1.0,2.0,0.4877169132232666,2.217031955718994,0.7289667164605129,23.0,140.0
R,U,"[2, 1]",1.0,3.0,0.3402841091156006,1.929914951324463,0.5922322500733219,23.0,141.0
Y,R,"[2, 2]",1.0,4.0,0.27579307556152344,1.6809911727905273,0.4066269165861864,23.0,142.0
R,U,"[1, 2]",1.0,5.0,0.2233428955078125,1.8905611038208008,0.663729810439351,23.0,143.0
Y,R,"[1, 3]",1.0,6.0,0.2427659034729004,1.6212420463562012,0.3686463402939361,23.0,144.0
,,"(3, 3)",,,,,,23.0,
B,L,"[3, 2]",1.0,1.0,0.6040940284729004,3.2848870754241943,0.6199472388802256,,145.0
B,L,"[3, 1]",1.0,2.0,0.45760178565979004,2.027677059173584,0.5643125594896613,24.0,146.0
R,U,"[2, 1]",1.0,3.0,0.43226099014282227,2.1510391235351562,0.7153285524881541,24.0,147.0
Y,R,"[2, 2]",1.0,4.0,0.2695469856262207,1.6024720668792725,0.33495814440798066,24.0,148.0
R,U,"[1, 2]",1.0,5.0,0.3944380283355713,1.7667109966278076,0.3682637585796306,24.0,149.0
Y,R,"[1, 3]",1.0,6.0,0.42981696128845215,2.1653809547424316,0.7331859129729527,24.0,150.0
,,"(3, 3)",,,,,,24.0,
B,L,"[3, 2]",1.0,1.0,0.7267260551452637,3.9573540687561035,0.6740346926916877,,151.0
B,L,"[3, 1]",1.0,2.0,0.3723900318145752,1.6536240577697754,0.27805121447466563,25.0,152.0
R,U,"[2, 1]",1.0,3.0,0.40949201583862305,1.712475061416626,0.3072084994057046,25.0,153.0
Y,R,"[2, 2]",1.0,4.0,0.2788209915161133,1.8904831409454346,0.6140467627517994,25.0,154.0
R,U,"[1, 2]",1.0,5.0,0.23797202110290527,1.5592141151428223,0.30696276570104897,25.0,155.0
Y,R,"[1, 3]",1.0,6.0,0.3089420795440674,1.6621520519256592,0.3524123458850006,25.0,156.0
,,"(3, 3)",,,,,,25.0,
B,L,"[3, 2]",1.0,1.0,0.7392189502716064,3.7804269790649414,0.6994884801995609,,157.0
B,L,"[3, 1]",1.0,2.0,0.38907694816589355,2.0603039264678955,0.6596862411344486,26.0,158.0
R,U,"[2, 1]",1.0,3.0,0.2516050338745117,1.5447008609771729,0.2881535405538897,26.0,159.0
Y,R,"[2, 2]",1.0,4.0,0.2942030429840088,1.93613600730896,0.640931978519964,26.0,160.0
R,U,"[1, 2]",1.0,5.0,0.20607495307922363,1.9053349494934082,0.6957932282841817,26.0,161.0
Y,R,"[1, 3]",1.0,6.0,0.25318002700805664,1.9552230834960938,0.7010861910801551,26.0,162.0
,,"(3, 3)",,,,,,26.0,
B,L,"[3, 2]",-2.0,0.0,1.2588608264923096,3.785629987716675,0.5036977019558182,,163.0
R,U,"[2, 2]",1.0,1.0,0.2997119426727295,1.6594250202178955,0.34655338100927496,27.0,164.0
Y,R,"[2, 3]",-1.0,0.0,0.3347299098968506,1.8686199188232422,0.5151372022247847,27.0,165.0
R,U,"[1, 3]",1.0,1.0,0.3788580894470215,2.001664876937866,0.5999825263217942,27.0,166.0
Y,R,"[1, 4]",-1.0,0.0,0.25490617752075195,1.8087999820709229,0.5421696686553727,27.0,167.0
R,U,"[0, 4]",0.0,0.0,0.7580959796905518,2.2067270278930664,0.4490608669917868,27.0,168.0
,,"(3, 3)",,,,,,27.0,
B,L,"[3, 2]",1.0,1.0,0.5552468299865723,2.8801910877227783,0.3462657190094323,,169.0
B,L,"[3, 1]",1.0,2.0,0.4448661804199219,2.144015073776245,0.7065206821704888,28.0,170.0
R,U,"[2, 1]",1.0,3.0,0.22408485412597656,1.901029109954834,0.674273666457081,28.0,171.0
Y,R,"[2, 2]",1.0,4.0,0.1653139591217041,1.8184640407562256,0.6593088198081749,28.0,172.0
R,U,"[1, 2]",1.0,5.0,0.18562602996826172,1.5040569305419922,0.3137647944745201,28.0,173.0
Y,R,"[1, 3]",1.0,6.0,0.36184000968933105,1.7793829441070557,0.40973681406657,28.0,174.0
,,"(3, 3)",,,,,,28.0,
B,L,"[3, 2]",1.0,1.0,0.7116751670837402,3.8940320014953613,0.6205571244607254,,175.0
B,L,"[3, 1]",1.0,2.0,0.4592759609222412,2.0510430335998535,0.5880505414299924,29.0,176.0
R,U,"[2, 1]",1.0,3.0,0.3105010986328125,1.6616599559783936,0.3501047988094723,29.0,177.0
Y,R,"[2, 2]",1.0,4.0,0.4619429111480713,1.7983238697052002,0.3317747295011122,29.0,178.0
R,U,"[1, 2]",1.0,5.0,0.3000638484954834,1.835569143295288,0.5170829865556508,29.0,179.0
B,L,"[1, 1]",-1.0,4.0,0.48763203620910645,2.2210609912872314,0.7213818098745579,29.0,180.0
,,"(3, 3)",,,,,,29.0,
B,L,"[3, 2]",1.0,1.0,0.8179941177368164,3.4177629947662354,0.28961396784039395,,181.0
B,L,"[3, 1]",1.0,2.0,0.5182919502258301,2.18821382522583,0.6608787648106713,30.0,182.0
R,U,"[2, 1]",1.0,3.0,0.5014488697052002,1.9634149074554443,0.4578828211120357,30.0,183.0
Y,R,"[2, 2]",1.0,4.0,0.3077561855316162,1.7303388118743896,0.4215024362340133,30.0,184.0
R,U,"[1, 2]",1.0,5.0,0.3574049472808838,1.999553918838501,0.637620795962442,30.0,185.0
Y,R,"[1, 3]",1.0,6.0,0.231795072555542,1.683946132659912,0.4551299638672695,30.0,186.0
,,"(3, 3)",,,,,,30.0,
B,L,"[3, 2]",1.0,1.0,0.706902027130127,3.802929162979126,0.7409594969508597,,187.0
B,L,"[3, 1]",1.0,2.0,0.29735684394836426,2.0348219871520996,0.7426684767067357,31.0,188.0
R,U,"[2, 1]",1.0,3.0,0.32714390754699707,1.8677749633789062,0.5439868372186472,31.0,189.0
Y,R,"[2, 2]",1.0,4.0,0.3303389549255371,1.8437609672546387,0.5210808469247601,31.0,190.0
R,U,"[1, 2]",1.0,5.0,0.31342291831970215,1.8917388916015625,0.5795228736072292,31.0,191.0
Y,R,"[1, 3]",1.0,6.0,0.3424990177154541,1.8282289505004883,0.4744919971061868,31.0,192.0
,,"(3, 3)",,,,,,31.0,
B,L,"[3, 2]",1.0,1.0,0.6055300235748291,4.165215015411377,0.45671745271945563,,193.0
B,L,"[3, 1]",1.0,2.0,0.32433605194091797,1.705509901046753,0.37877441963321684,32.0,194.0
R,U,"[2, 1]",1.0,3.0,0.2543790340423584,1.7657310962677002,0.5109761467443801,32.0,195.0
Y,R,"[2, 2]",1.0,4.0,0.1799468994140625,1.680859088897705,0.5085598931695849,32.0,196.0
R,U,"[1, 2]",1.0,5.0,0.16565895080566406,1.8791840076446533,0.7043491028066982,32.0,197.0
Y,R,"[1, 3]",1.0,6.0,0.16438817977905273,1.8585000038146973,0.6960972798985294,32.0,198.0
,,"(3, 3)",,,,,,32.0,
B,L,"[3, 2]",1.0,1.0,0.46248507499694824,3.162194013595581,0.5584509069665384,,199.0
B,L,"[3, 1]",1.0,2.0,0.20218396186828613,1.4964029788970947,0.3051484644692024,33.0,200.0
R,U,"[2, 1]",1.0,3.0,0.36684608459472656,1.9579169750213623,0.5794573321930082,33.0,201.0
Y,R,"[2, 2]",1.0,4.0,0.24632906913757324,1.5896029472351074,0.33606833082416626,33.0,202.0
R,U,"[1, 2]",1.0,5.0,0.35123395919799805,2.0805509090423584,0.7163619316794273,33.0,203.0
Y,R,"[1, 3]",1.0,6.0,0.2737870216369629,1.867483139038086,0.5839230862515425,33.0,204.0
,,"(3, 3)",,,,,,33.0,
B,L,"[3, 2]",-2.0,0.0,1.279656171798706,3.3193960189819336,0.5202002924315574,,205.0
R,U,"[2, 2]",1.0,1.0,0.35254907608032227,1.867671012878418,0.5044366159719286,34.0,206.0
Y,R,"[2, 3]",-1.0,0.0,0.2308940887451172,1.8555521965026855,0.6100046463485838,34.0,207.0
G,D,"[3, 3]",0.0,0.0,0.2761211395263672,1.942216157913208,0.6689204101564525,34.0,208.0
R,U,"[2, 3]",0.0,0.0,0.23601198196411133,1.7685859203338623,0.5376324507334594,34.0,209.0
B,L,"[2, 2]",0.0,0.0,0.46281909942626953,1.9859058856964111,0.5234316718551398,34.0,210.0
,,"(3, 3)",,,,,,34.0,
B,L,"[3, 2]",1.0,1.0,0.5241899490356445,3.1751692295074463,0.7318396833377065,,211.0
B,L,"[3, 1]",1.0,2.0,0.393204927444458,1.6560578346252441,0.2551649044814586,35.0,212.0
R,U,"[2, 1]",1.0,3.0,0.48577094078063965,2.0984580516815186,0.6031772079525006,35.0,213.0
Y,R,"[2, 2]",1.0,4.0,0.24899911880493164,1.9913129806518555,0.7443918046630744,35.0,214.0
R,U,"[1, 2]",1.0,5.0,0.20494794845581055,1.8571481704711914,0.6516938039835385,35.0,215.0
Y,R,"[1, 3]",1.0,6.0,0.18934011459350586,1.6640968322753906,0.4659934608682467,35.0,216.0
,,"(3, 3)",,,,,,35.0,
B,L,"[3, 2]",1.0,1.0,0.39806699752807617,2.65251088142395,0.3852264617750205,,217.0
B,L,"[3, 1]",1.0,2.0,0.2586700916290283,1.7645020484924316,0.4997970689216598,36.0,218.0
R,U,"[2, 1]",1.0,3.0,0.17119908332824707,1.4405150413513184,0.25727117798643684,36.0,219.0
Y,R,"[2, 2]",1.0,4.0,0.24371814727783203,1.6122939586639404,0.3693896222977672,36.0,220.0
R,U,"[1, 2]",1.0,5.0,0.1752629280090332,1.5700290203094482,0.38928191683545765,36.0,221.0
Y,R,"[1, 3]",1.0,6.0,0.22447919845581055,1.5096819400787354,0.2825435237691941,36.0,222.0
,,"(3, 3)",,,,,,36.0,
B,L,"[3, 2]",1.0,1.0,0.3781759738922119,3.0785038471221924,0.6607280092663621,,223.0
B,L,"[3, 1]",1.0,2.0,0.23229694366455078,1.962993860244751,0.7237110804787159,37.0,224.0
R,U,"[2, 1]",1.0,3.0,0.24000906944274902,1.9240899085998535,0.6810176317539586,37.0,225.0
Y,R,"[2, 2]",-1.0,3.0,0.014637947082519531,5.751739978790283,0.5996613797819763,37.0,226.0
G,D,"[3, 2]",0.0,3.0,0.6197001934051514,1.9010288715362549,0.26786276202293263,37.0,227.0
B,L,"[3, 1]",0.0,3.0,0.2801690101623535,1.8484618663787842,0.5658645032209046,37.0,228.0
,,"(3, 3)",,,,,,37.0,
Y,R,"[3, 4]",-1.0,-1.0,0.6397390365600586,21.226430892944336,0.7428293181644641,,229.0
B,L,"[3, 3]",0.0,-1.0,0.4968860149383545,1.9577679634094238,0.46724902251836076,38.0,230.0
R,U,"[2, 3]",-1.0,-2.0,0.2563178539276123,1.9695780277252197,0.7032710651877583,38.0,231.0
G,D,"[3, 3]",0.0,-2.0,0.1879258155822754,1.7552869319915771,0.5587461663050977,38.0,232.0
G,D,"[4, 3]",-1.0,-3.0,0.2789928913116455,1.8958280086517334,0.6047136320855209,38.0,233.0
Y,R,"[4, 4]",-1.0,-4.0,0.44510984420776367,1.8768789768218994,0.4317900291708498,38.0,234.0
,,"(3, 3)",,,,,,38.0,
B,L,"[3, 2]",1.0,1.0,0.34560489654541016,2.86391282081604,0.3623488729604847,,235.0
B,L,"[3, 1]",1.0,2.0,0.3885328769683838,2.0065081119537354,0.6186198380614396,39.0,236.0
R,U,"[2, 1]",1.0,3.0,0.27712202072143555,2.0103001594543457,0.7289193889092882,39.0,237.0
Y,R,"[2, 2]",1.0,4.0,0.21420001983642578,1.7986369132995605,0.5943282537931658,39.0,238.0
R,U,"[1, 2]",1.0,5.0,0.32734203338623047,1.6032099723815918,0.2812994708748745,39.0,239.0
Y,R,"[1, 3]",1.0,6.0,0.2664971351623535,1.9453980922698975,0.6596587330779916,39.0,240.0
,,"(3, 3)",,,,,,39.0,
B,L,"[3, 2]",1.0,1.0,0.57051682472229,3.330449104309082,0.7399998817841079,,241.0
B,L,"[3, 1]",1.0,2.0,0.28215694427490234,1.7056210041046143,0.4288134595640085,40.0,242.0
R,U,"[2, 1]",1.0,3.0,0.3045668601989746,1.779585838317871,0.47557023774391705,40.0,243.0
Y,R,"[2, 2]",1.0,4.0,0.23180317878723145,1.5453729629516602,0.32108664410463506,40.0,244.0
R,U,"[1, 2]",1.0,5.0,0.34371399879455566,1.6141891479492188,0.2686034646749105,40.0,245.0
Y,R,"[1, 3]",1.0,6.0,0.35217785835266113,1.8186960220336914,0.4539240665207063,40.0,246.0
,,"(3, 3)",,,,,,40.0,
B,L,"[3, 2]",1.0,1.0,0.46604204177856445,3.014803171157837,0.4353902059357025,,247.0
B,L,"[3, 1]",1.0,2.0,0.27197718620300293,1.7076890468597412,0.4264786617473562,41.0,248.0
R,U,"[2, 1]",1.0,3.0,0.3190338611602783,1.960057020187378,0.6364107552103344,41.0,249.0
Y,R,"[2, 2]",-1.0,3.0,0.0664510726928711,5.925353050231934,0.7283576479921723,41.0,250.0
B,L,"[2, 1]",0.0,3.0,0.3889460563659668,1.7318089008331299,0.34386509405074034,41.0,251.0
R,U,"[1, 1]",-1.0,2.0,0.24271702766418457,1.8848769664764404,0.6451040952399281,41.0,252.0
,,"(3, 3)",,,,,,41.0,
B,L,"[3, 2]",1.0,1.0,0.4027729034423828,3.343564033508301,0.7054532216654386,,253.0
B,L,"[3, 1]",1.0,2.0,0.561359167098999,1.8622260093688965,0.30150091836540627,42.0,254.0
R,U,"[2, 1]",1.0,3.0,0.4679238796234131,2.0908429622650146,0.6087298207534717,42.0,255.0
Y,R,"[2, 2]",1.0,4.0,0.2996799945831299,1.635193109512329,0.3442214713829704,42.0,256.0
R,U,"[1, 2]",1.0,5.0,0.39842677116394043,1.7138710021972656,0.30805096294849243,42.0,257.0
Y,R,"[1, 3]",1.0,6.0,0.22732210159301758,1.6618578433990479,0.4366146470656719,42.0,258.0
,,"(3, 3)",,,,,,42.0,
B,L,"[3, 2]",1.0,1.0,0.6621768474578857,3.406370162963867,0.6925747385977119,,259.0
B,L,"[3, 1]",1.0,2.0,0.4472930431365967,1.841325044631958,0.40104239082836896,43.0,260.0
R,U,"[2, 1]",1.0,3.0,0.32448291778564453,2.0149011611938477,0.6822668524872004,43.0,261.0
Y,R,"[2, 2]",1.0,4.0,0.42075109481811523,2.0775539875030518,0.643217353755849,43.0,262.0
R,U,"[1, 2]",1.0,5.0,0.35814595222473145,1.8495821952819824,0.49311255841891355,43.0,263.0
Y,R,"[1, 3]",1.0,6.0,0.3603780269622803,2.071403980255127,0.7147285845896163,43.0,264.0
,,"(3, 3)",,,,,,43.0,
B,L,"[3, 2]",1.0,1.0,0.5847249031066895,3.411980152130127,0.7263107327554206,,265.0
B,L,"[3, 1]",1.0,2.0,0.465191125869751,1.8452939987182617,0.3886649528891821,44.0,266.0
R,U,"[2, 1]",1.0,3.0,0.43904685974121094,2.084699869155884,0.6396941717764877,44.0,267.0
Y,R,"[2, 2]",1.0,4.0,0.3789379596710205,1.7126569747924805,0.3359716896798862,44.0,268.0
R,U,"[1, 2]",1.0,5.0,0.3583669662475586,1.6549439430236816,0.29105365295508656,44.0,269.0
Y,R,"[1, 3]",1.0,6.0,0.32929515838623047,1.6001529693603516,0.2744895105577022,44.0,270.0
,,"(3, 3)",,,,,,44.0,
B,L,"[3, 2]",1.0,1.0,0.3576788902282715,2.8132741451263428,0.35446162884101023,,271.0
B,L,"[3, 1]",1.0,2.0,0.34804606437683105,1.9044439792633057,0.5587231998209821,45.0,272.0
R,U,"[2, 1]",1.0,3.0,0.2659440040588379,1.5260009765625,0.2683837009506792,45.0,273.0
Y,R,"[2, 2]",1.0,4.0,0.26754307746887207,1.943655014038086,0.6616647643870626,45.0,274.0
R,U,"[1, 2]",1.0,5.0,0.31424999237060547,1.7872769832611084,0.48252425108645525,45.0,275.0
Y,R,"[1, 3]",1.0,6.0,0.2923159599304199,1.746635913848877,0.44589760066236966,45.0,276.0
,,"(3, 3)",,,,,,45.0,
B,L,"[3, 2]",1.0,1.0,0.45992422103881836,2.768489122390747,0.6475884459889503,,277.0
B,L,"[3, 1]",1.0,2.0,0.4232141971588135,1.7313659191131592,0.2960744297217875,46.0,278.0
R,U,"[2, 1]",1.0,3.0,0.32552504539489746,1.6532728672027588,0.3324372027723575,46.0,279.0
Y,R,"[2, 2]",1.0,4.0,0.2365100383758545,1.907865047454834,0.6568489253696984,46.0,280.0
R,U,"[1, 2]",1.0,5.0,0.3576929569244385,1.6619648933410645,0.302445003261093,46.0,281.0
Y,R,"[1, 3]",1.0,6.0,0.3590068817138672,1.8995552062988281,0.535099027285785,46.0,282.0
,,"(3, 3)",,,,,,46.0,
B,L,"[3, 2]",1.0,1.0,0.3745129108428955,2.9039900302886963,0.43939426988547475,,283.0
B,L,"[3, 1]",1.0,2.0,0.32120299339294434,1.8809130191802979,0.5535491292321535,47.0,284.0
R,U,"[2, 1]",1.0,3.0,0.2948009967803955,1.7509841918945312,0.45449686990207405,47.0,285.0
Y,R,"[2, 2]",1.0,4.0,0.2069380283355713,1.7593328952789307,0.5471037173404949,47.0,286.0
R,U,"[1, 2]",1.0,5.0,0.2582719326019287,1.6710538864135742,0.40170743034532375,47.0,287.0
Y,R,"[1, 3]",1.0,6.0,0.2996690273284912,1.6719870567321777,0.3571829412758199,47.0,288.0
,,"(3, 3)",,,,,,47.0,
B,L,"[3, 2]",1.0,1.0,0.43834686279296875,2.6405959129333496,0.5641976217773037,,289.0
B,L,"[3, 1]",1.0,2.0,0.3644070625305176,2.021226167678833,0.6519463239282631,48.0,290.0
R,U,"[2, 1]",1.0,3.0,0.4048290252685547,1.8782680034637451,0.46393529022075614,48.0,291.0
Y,R,"[2, 2]",1.0,4.0,0.34436583518981934,2.100051164627075,0.7468779516591426,48.0,292.0
R,U,"[1, 2]",1.0,5.0,0.3035850524902344,1.6849839687347412,0.36570949489351506,48.0,293.0
Y,R,"[1, 3]",1.0,6.0,0.31591796875,1.7192928791046143,0.38511387615810966,48.0,294.0
,,"(3, 3)",,,,,,48.0,
B,L,"[3, 2]",1.0,1.0,0.41934895515441895,2.7994401454925537,0.28457407123774703,,295.0
B,L,"[3, 1]",1.0,2.0,0.5697999000549316,1.9190161228179932,0.33695560063852703,49.0,296.0
R,U,"[2, 1]",1.0,3.0,0.38004016876220703,2.0432229042053223,0.6632565863891984,49.0,297.0
Y,R,"[2, 2]",1.0,4.0,0.24017596244812012,1.6922988891601562,0.43904986113603806,49.0,298.0
R,U,"[1, 2]",1.0,5.0,0.3590080738067627,1.7960219383239746,0.435149281063003,49.0,299.0
Y,R,"[1, 3]",1.0,6.0,0.3642919063568115,1.6533541679382324,0.2887526241896062,49.0,300.0
,,"(3, 3)",,,,,,49.0,
B,L,"[3, 2]",1.0,1.0,0.38307690620422363,2.6443331241607666,0.48291383088932244,,301.0
B,L,"[3, 1]",1.0,2.0,0.3833439350128174,1.6780588626861572,0.27779499252949685,50.0,302.0
R,U,"[2, 1]",1.0,3.0,0.40967297554016113,2.121715784072876,0.7155092506655358,50.0,303.0
Y,R,"[2, 2]",1.0,4.0,0.38617801666259766,1.8080899715423584,0.4241361192699107,50.0,304.0
R,U,"[1, 2]",1.0,5.0,0.3473329544067383,1.7396020889282227,0.39717304325090036,50.0,305.0
Y,R,"[1, 3]",1.0,6.0,0.3563039302825928,1.9552960395812988,0.5856495382116951,50.0,306.0
,,"(3, 3)",,,,,,50.0,
B,L,"[3, 2]",1.0,1.0,0.41288113594055176,2.8282761573791504,0.6138766009687409,,307.0
B,L,"[3, 1]",1.0,2.0,0.29296207427978516,1.9220340251922607,0.6192758644074596,51.0,308.0
R,U,"[2, 1]",1.0,3.0,0.3556370735168457,2.021519899368286,0.6575706643350665,51.0,309.0
Y,R,"[2, 2]",1.0,4.0,0.28904294967651367,1.6773128509521484,0.3850538762878292,51.0,310.0
R,U,"[1, 2]",1.0,5.0,0.4756028652191162,2.0533528327941895,0.5715920174140003,51.0,311.0
Y,R,"[1, 3]",1.0,6.0,0.40674805641174316,2.0792160034179688,0.6675221385254134,51.0,312.0
,,"(3, 3)",,,,,,51.0,
B,L,"[3, 2]",1.0,1.0,0.5233500003814697,3.901772975921631,0.5194835314940931,,313.0
B,L,"[3, 1]",1.0,2.0,0.3977549076080322,2.0468289852142334,0.6494755515481152,52.0,314.0
R,U,"[2, 1]",1.0,3.0,0.37058591842651367,1.8426740169525146,0.4591634702897349,52.0,315.0
Y,R,"[2, 2]",1.0,4.0,0.3634169101715088,1.912410020828247,0.5547272578349813,52.0,316.0
R,U,"[1, 2]",1.0,5.0,0.34372496604919434,1.6876840591430664,0.34259375059756064,52.0,317.0
Y,R,"[1, 3]",1.0,6.0,0.4295179843902588,1.6985721588134766,0.2746287781716799,52.0,318.0
,,"(3, 3)",,,,,,52.0,
B,L,"[3, 2]",1.0,1.0,0.45339298248291016,2.7865209579467773,0.3277712211132245,,319.0
B,L,"[3, 1]",1.0,2.0,0.4682738780975342,1.8652288913726807,0.39299615964963974,53.0,320.0
R,U,"[2, 1]",1.0,3.0,0.301785945892334,1.6732971668243408,0.3662917578901596,53.0,321.0
Y,R,"[2, 2]",1.0,4.0,0.2714970111846924,1.9591529369354248,0.6752903407477252,53.0,322.0
R,U,"[1, 2]",1.0,5.0,0.3694431781768799,1.8528871536254883,0.47833147746609794,53.0,323.0
Y,R,"[1, 3]",1.0,6.0,0.31151914596557617,1.9967670440673828,0.691573461103583,53.0,324.0
,,"(3, 3)",,,,,,53.0,
B,L,"[3, 2]",1.0,1.0,0.3643918037414551,2.4439659118652344,0.2693667043209253,,325.0
B,L,"[3, 1]",1.0,2.0,0.2966318130493164,1.9573559761047363,0.6597455361290567,54.0,326.0
R,U,"[2, 1]",1.0,3.0,0.2918059825897217,1.6672461032867432,0.37709225433908256,54.0,327.0
Y,R,"[2, 2]",1.0,4.0,0.3422391414642334,1.8470420837402344,0.5075570540982515,54.0,328.0
R,U,"[1, 2]",1.0,5.0,0.3192160129547119,1.8143670558929443,0.4885539888818388,54.0,329.0
Y,R,"[1, 3]",1.0,6.0,0.316741943359375,1.9676129817962646,0.6560381976711962,54.0,330.0
,,"(3, 3)",,,,,,54.0,
B,L,"[3, 2]",1.0,1.0,0.40372705459594727,2.803050994873047,0.32616917637877435,,331.0
B,L,"[3, 1]",1.0,2.0,0.31307482719421387,1.7200679779052734,0.4128697251527403,55.0,332.0
R,U,"[2, 1]",1.0,3.0,0.34582090377807617,1.7039458751678467,0.350321892208952,55.0,333.0
Y,R,"[2, 2]",1.0,4.0,0.27382612228393555,1.8477880954742432,0.5644401085357158,55.0,334.0
R,U,"[1, 2]",1.0,5.0,0.32695508003234863,1.9833781719207764,0.6478549299859699,55.0,335.0
Y,R,"[1, 3]",1.0,6.0,0.3496980667114258,1.7134759426116943,0.34496895128493144,55.0,336.0
,,"(3, 3)",,,,,,55.0,
B,L,"[3, 2]",1.0,1.0,0.43114709854125977,2.684659004211426,0.4295004351276422,,337.0
B,L,"[3, 1]",1.0,2.0,0.3489689826965332,1.775028944015503,0.4212746617415289,56.0,338.0
R,U,"[2, 1]",1.0,3.0,0.6741781234741211,2.1346981525421143,0.45594154790748426,56.0,339.0
Y,R,"[2, 2]",1.0,4.0,0.2780649662017822,2.0011379718780518,0.723536036028865,56.0,340.0
R,U,"[1, 2]",1.0,5.0,0.33084988594055176,1.589289903640747,0.2634129624006519,56.0,341.0
Y,R,"[1, 3]",1.0,6.0,0.35796594619750977,1.6684691905975342,0.2984015028808109,56.0,342.0
,,"(3, 3)",,,,,,56.0,
B,L,"[3, 2]",1.0,1.0,0.2996490001678467,2.8814549446105957,0.7294192321557074,,343.0
B,L,"[3, 1]",1.0,2.0,0.4493529796600342,1.7891221046447754,0.31889471922021306,57.0,344.0
R,U,"[2, 1]",1.0,3.0,0.3028888702392578,1.5952370166778564,0.2810393380332655,57.0,345.0
Y,R,"[2, 2]",1.0,4.0,0.24987220764160156,1.632761001586914,0.346944979759284,57.0,346.0
R,U,"[1, 2]",1.0,5.0,0.4317140579223633,2.0325660705566406,0.5959355340608601,57.0,347.0
Y,R,"[1, 3]",1.0,6.0,0.28560304641723633,1.8935439586639404,0.5896659489467739,57.0,348.0
,,"(3, 3)",,,,,,57.0,
B,L,"[3, 2]",1.0,1.0,0.2798581123352051,2.9435269832611084,0.28358247185783547,,349.0
B,L,"[3, 1]",1.0,2.0,0.3283710479736328,2.0215060710906982,0.688094344088787,58.0,350.0
R,U,"[2, 1]",1.0,3.0,0.3016970157623291,2.046194076538086,0.7342482864315547,58.0,351.0
Y,R,"[2, 2]",1.0,4.0,0.30287909507751465,1.625101089477539,0.30976388148701317,58.0,352.0
R,U,"[1, 2]",1.0,5.0,0.3802490234375,1.9095220565795898,0.53575984045274,58.0,353.0
Y,R,"[1, 3]",1.0,6.0,0.2634739875793457,1.5228798389434814,0.2589248744362507,58.0,354.0
,,"(3, 3)",,,,,,58.0,
B,L,"[3, 2]",1.0,1.0,0.36121606826782227,2.657439947128296,0.29967357298789793,,355.0
B,L,"[3, 1]",1.0,2.0,0.3423488140106201,2.07145094871521,0.7207088698791766,59.0,356.0
R,U,"[2, 1]",1.0,3.0,0.32369208335876465,1.7654149532318115,0.43647613595228,59.0,357.0
Y,R,"[2, 2]",1.0,4.0,0.2960350513458252,1.9710350036621094,0.6740706071739169,59.0,358.0
R,U,"[1, 2]",1.0,5.0,0.2674870491027832,1.5459508895874023,0.2703484956057478,59.0,359.0
Y,R,"[1, 3]",1.0,6.0,0.3755209445953369,1.8335881233215332,0.45376073223672514,59.0,360.0
,,"(3, 3)",,,,,,59.0,
B,L,"[3, 2]",1.0,1.0,0.39905881881713867,3.267040967941284,0.7040738169729974,,361.0
B,L,"[3, 1]",1.0,2.0,0.27869510650634766,1.744762897491455,0.4657473702402029,60.0,362.0
R,U,"[2, 1]",1.0,3.0,0.22983384132385254,1.5611481666564941,0.3270694757038595,60.0,363.0
Y,R,"[2, 2]",1.0,4.0,0.23497509956359863,1.6621191501617432,0.4223532175706806,60.0,364.0
R,U,"[1, 2]",1.0,5.0,0.2752251625061035,1.9235560894012451,0.6456790587420866,60.0,365.0
Y,R,"[1, 3]",1.0,6.0,0.37770509719848633,1.9769959449768066,0.6061483025809304,60.0,366.0
,,"(3, 3)",,,,,,60.0,
B,L,"[3, 2]",1.0,1.0,0.2695729732513428,2.6378211975097656,0.427328367705648,,367.0
B,L,"[3, 1]",1.0,2.0,0.2991931438446045,1.632519006729126,0.3101451749022284,61.0,368.0
R,U,"[2, 1]",1.0,3.0,0.27876901626586914,1.97576904296875,0.702286027442985,61.0,369.0
Y,R,"[2, 2]",1.0,4.0,0.2637159824371338,1.863806962966919,0.5994919345029147,61.0,370.0
R,U,"[1, 2]",1.0,5.0,0.37894296646118164,1.9670720100402832,0.5832782813715351,61.0,371.0
Y,R,"[1, 3]",1.0,6.0,0.2626168727874756,1.6853899955749512,0.4189469516246069,61.0,372.0
,,"(3, 3)",,,,,,61.0,
B,L,"[3, 2]",1.0,1.0,0.5461921691894531,2.988640069961548,0.540638050712283,,373.0
B,L,"[3, 1]",1.0,2.0,0.370941162109375,1.6893501281738281,0.31375256882006647,62.0,374.0
R,U,"[2, 1]",1.0,3.0,0.22891497611999512,1.8093020915985107,0.5727496807089405,62.0,375.0
Y,R,"[2, 2]",1.0,4.0,0.25802016258239746,1.9343149662017822,0.6736578097655738,62.0,376.0
R,U,"[1, 2]",1.0,5.0,0.24486398696899414,1.5159292221069336,0.2732803165760413,62.0,377.0
Y,R,"[1, 3]",1.0,6.0,0.30720996856689453,1.6927268505096436,0.3825810292630915,62.0,378.0
,,"(3, 3)",,,,,,62.0,
B,L,"[3, 2]",1.0,1.0,0.3662741184234619,2.9278290271759033,0.7269493029437368,,379.0
B,L,"[3, 1]",1.0,2.0,0.26444101333618164,1.930548906326294,0.6742735885233777,63.0,380.0
R,U,"[2, 1]",1.0,3.0,0.25842714309692383,2.00455904006958,0.7452582336247915,63.0,381.0
Y,R,"[2, 2]",1.0,4.0,0.28339195251464844,1.9080328941345215,0.620186102104545,63.0,382.0
R,U,"[1, 2]",1.0,5.0,0.24770212173461914,1.7300341129302979,0.4838192082077151,63.0,383.0
Y,R,"[1, 3]",1.0,6.0,0.3204648494720459,1.8208999633789062,0.48802244351235874,63.0,384.0
,,"(3, 3)",,,,,,63.0,
B,L,"[3, 2]",1.0,1.0,0.35967206954956055,2.4366400241851807,0.4912987970379178,,385.0
B,L,"[3, 1]",1.0,2.0,0.4274759292602539,1.8195738792419434,0.3943736528583223,64.0,386.0
R,U,"[2, 1]",1.0,3.0,0.4369487762451172,1.8671250343322754,0.42822434712186047,64.0,387.0
Y,R,"[2, 2]",1.0,4.0,0.43135595321655273,1.9272520542144775,0.4887170984183926,64.0,388.0
R,U,"[1, 2]",1.0,5.0,0.3215498924255371,2.025683879852295,0.6976090387233489,64.0,389.0
Y,R,"[1, 3]",1.0,6.0,0.3960578441619873,2.0735599994659424,0.6711207058513083,64.0,390.0
,,"(3, 3)",,,,,,64.0,
B,L,"[3, 2]",1.0,1.0,0.38161301612854004,2.6967310905456543,0.7012824685093753,,391.0
B,L,"[3, 1]",1.0,2.0,0.4003720283508301,1.7534489631652832,0.3384585095032187,65.0,392.0
R,U,"[2, 1]",1.0,3.0,0.37276697158813477,1.8967831134796143,0.5184879432432241,65.0,393.0
Y,R,"[2, 2]",1.0,4.0,0.32752490043640137,2.060096025466919,0.728301243556077,65.0,394.0
R,U,"[1, 2]",1.0,5.0,0.38057494163513184,1.7470519542694092,0.37574398030738554,65.0,395.0
Y,R,"[1, 3]",1.0,6.0,0.3957381248474121,1.6764421463012695,0.2856140287530376,65.0,396.0
,,"(3, 3)",,,,,,65.0,
B,L,"[3, 2]",1.0,1.0,0.3343958854675293,2.1695780754089355,0.27188347588147077,,397.0
B,L,"[3, 1]",1.0,2.0,0.3359079360961914,1.9196100234985352,0.57463585976568,66.0,398.0
R,U,"[2, 1]",1.0,3.0,0.24726295471191406,1.6572391986846924,0.4153231186729297,66.0,399.0
Y,R,"[2, 2]",1.0,4.0,0.3195979595184326,1.792130947113037,0.45742723429356924,66.0,400.0
R,U,"[1, 2]",1.0,5.0,0.2532329559326172,1.7899589538574219,0.530737394402345,66.0,401.0
Y,R,"[1, 3]",1.0,6.0,0.2833371162414551,1.809999942779541,0.507468948973373,66.0,402.0
,,"(3, 3)",,,,,,66.0,
B,L,"[3, 2]",-1.0,-1.0,0.34828805923461914,2.5646328926086426,0.6720768180911757,,403.0
G,D,"[4, 2]",1.0,0.0,0.5439939498901367,1.9419190883636475,0.3977589611814251,67.0,404.0
G,D,"[5, 2]",1.0,1.0,0.331895112991333,2.0400550365448,0.7039764297206608,67.0,405.0
Y,R,"[5, 3]",1.0,2.0,0.24266791343688965,1.9843628406524658,0.7382189109731456,67.0,406.0
R,U,"[4, 3]",1.0,3.0,0.237260103225708,1.6932201385498047,0.44854669182259094,67.0,407.0
Y,R,"[4, 4]",-1.0,2.0,0.2923769950866699,1.7933831214904785,0.4918274703743897,67.0,408.0
,,"(3, 3)",,,,,,67.0,
G,D,"[4, 3]",1.0,1.0,0.4068119525909424,3.215425968170166,0.6241393560029045,,409.0
G,D,"[5, 3]",1.0,2.0,0.315507173538208,1.7421021461486816,0.43303744703298874,68.0,410.0
Y,R,"[5, 4]",-1.0,1.0,0.34970688819885254,1.6665370464324951,0.29951429297693194,68.0,411.0
R,U,"[4, 4]",-1.0,0.0,0.2609269618988037,1.9457910060882568,0.6782785648563145,68.0,412.0
B,L,"[4, 3]",1.0,1.0,0.27691102027893066,1.7575318813323975,0.4860553009978369,68.0,413.0
G,D,"[5, 3]",1.0,2.0,0.33010005950927734,1.8639330863952637,0.5332188009632178,68.0,414.0
,,"(3, 3)",,,,,,68.0,
G,D,"[4, 3]",1.0,1.0,0.4022560119628906,2.7356271743774414,0.3694745462717704,,415.0
G,D,"[5, 3]",1.0,2.0,0.4411928653717041,2.1463818550109863,0.6985876899516552,69.0,416.0
B,L,"[5, 2]",1.0,3.0,0.36818599700927734,2.057382822036743,0.6893327260885398,69.0,417.0
R,U,"[4, 2]",1.0,4.0,0.2642228603363037,1.871034860610962,0.6104492960701708,69.0,418.0
B,L,"[4, 1]",1.0,5.0,0.33565688133239746,2.019321918487549,0.6964104659999009,69.0,419.0
R,U,"[3, 1]",1.0,6.0,0.23766517639160156,1.566545009613037,0.31345682799523955,69.0,420.0
,,"(3, 3)",,,,,,69.0,
G,D,"[4, 3]",1.0,1.0,0.4355790615081787,2.8100109100341797,0.6895936613462259,,421.0
G,D,"[5, 3]",1.0,2.0,0.3108701705932617,2.0443711280822754,0.7340351795244777,70.0,422.0
B,L,"[5, 2]",1.0,3.0,0.38126420974731445,1.9363090991973877,0.5539589374759382,70.0,423.0
R,U,"[4, 2]",1.0,4.0,0.2648758888244629,1.904407024383545,0.6417069909730313,70.0,424.0
B,L,"[4, 1]",1.0,5.0,0.34688806533813477,2.074066162109375,0.7322053599226419,70.0,425.0
R,U,"[3, 1]",1.0,6.0,0.28002405166625977,1.8217670917510986,0.5376775790596062,70.0,426.0
,,"(3, 3)",,,,,,70.0,
G,D,"[4, 3]",1.0,1.0,0.41428613662719727,2.5489280223846436,0.719243999815629,,427.0
G,D,"[5, 3]",1.0,2.0,0.27501392364501953,1.6413629055023193,0.36157533607021664,71.0,428.0
B,L,"[5, 2]",1.0,3.0,0.3637831211090088,1.6352519989013672,0.28013107736785287,71.0,429.0
R,U,"[4, 2]",1.0,4.0,0.3553309440612793,1.905695915222168,0.5356848049698903,71.0,430.0
B,L,"[4, 1]",1.0,5.0,0.38088011741638184,2.103705883026123,0.7225209611552614,71.0,431.0
R,U,"[3, 1]",1.0,6.0,0.3510761260986328,1.9079971313476562,0.5473394822905409,71.0,432.0
,,"(3, 3)",,,,,,71.0,
G,D,"[4, 3]",1.0,1.0,0.45359301567077637,3.247894048690796,0.7451544176761793,,433.0
G,D,"[5, 3]",1.0,2.0,0.405163049697876,1.7690091133117676,0.3646131481029062,72.0,434.0
B,L,"[5, 2]",1.0,3.0,0.40582895278930664,1.685410976409912,0.26670749786186226,72.0,435.0
R,U,"[4, 2]",1.0,4.0,0.4126710891723633,1.7471208572387695,0.3305316228630014,72.0,436.0
B,L,"[4, 1]",1.0,5.0,0.4274899959564209,1.805206060409546,0.36904967260328686,72.0,437.0
R,U,"[3, 1]",1.0,6.0,0.3314359188079834,1.9677789211273193,0.6200344724714629,72.0,438.0
,,"(3, 3)",,,,,,72.0,
G,D,"[4, 3]",1.0,1.0,0.4536750316619873,3.4879610538482666,0.39176250997766626,,439.0
G,D,"[5, 3]",1.0,2.0,0.3446638584136963,2.0208539962768555,0.6786124237929005,73.0,440.0
B,L,"[5, 2]",1.0,3.0,0.2689330577850342,1.807023048400879,0.5359866530660652,73.0,441.0
R,U,"[4, 2]",1.0,4.0,0.29674315452575684,1.6194710731506348,0.32220926220508583,73.0,442.0
B,L,"[4, 1]",1.0,5.0,0.31920409202575684,2.0114879608154297,0.683409703842836,73.0,443.0
R,U,"[3, 1]",1.0,6.0,0.2815439701080322,1.8442590236663818,0.5612238366912625,73.0,444.0
,,"(3, 3)",,,,,,73.0,
G,D,"[4, 3]",1.0,1.0,0.3914189338684082,3.583209991455078,0.3780771623288295,,445.0
Y,R,"[4, 4]",-1.0,1.0,0.038960933685302734,5.876514911651611,0.7209357113732588,74.0,446.0
B,L,"[4, 3]",1.0,2.0,0.2687981128692627,1.9939548969268799,0.7149378983430832,74.0,447.0
R,U,"[3, 3]",-2.0,0.0,0.295011043548584,1.598106861114502,0.2967854595426259,74.0,448.0
G,D,"[4, 3]",1.0,1.0,0.3329300880432129,1.6084909439086914,0.25532971421364675,74.0,449.0
B,L,"[4, 2]",1.0,2.0,0.30785608291625977,2.0598111152648926,0.7481183691072656,74.0,450.0
,,"(3, 3)",,,,,,74.0,
G,D,"[4, 3]",1.0,1.0,0.422990083694458,4.422708988189697,0.5376631068205997,,451.0
G,D,"[5, 3]",1.0,2.0,0.40118980407714844,1.8137950897216797,0.4015529168349783,75.0,452.0
B,L,"[5, 2]",1.0,3.0,0.3271210193634033,2.080739974975586,0.7487101960032094,75.0,453.0
R,U,"[4, 2]",1.0,4.0,0.2511868476867676,1.9564399719238281,0.6885848159542932,75.0,454.0
B,L,"[4, 1]",1.0,5.0,0.2721529006958008,1.6882059574127197,0.410413545580356,75.0,455.0
R,U,"[3, 1]",1.0,6.0,0.4307858943939209,2.088709831237793,0.6656537549564887,75.0,456.0
,,"(3, 3)",,,,,,75.0,
G,D,"[4, 3]",1.0,1.0,0.5551779270172119,3.1800029277801514,0.4791255007343541,,457.0
G,D,"[5, 3]",1.0,2.0,0.3462071418762207,2.011474132537842,0.6739211098354019,76.0,458.0
B,L,"[5, 2]",1.0,3.0,0.3437800407409668,1.7335169315338135,0.3910375421047626,76.0,459.0
R,U,"[4, 2]",1.0,4.0,0.39147496223449707,2.042780876159668,0.650246100242551,76.0,460.0
B,L,"[4, 1]",1.0,5.0,0.2515289783477783,1.8656630516052246,0.5992413810793545,76.0,461.0
R,U,"[3, 1]",1.0,6.0,0.36994314193725586,1.8542208671569824,0.47040196904302034,76.0,462.0
,,"(3, 3)",,,,,,76.0,
G,D,"[4, 3]",1.0,1.0,0.3627140522003174,2.977782964706421,0.3816662127067584,,463.0
G,D,"[5, 3]",1.0,2.0,0.35666608810424805,1.6778249740600586,0.3095925256346283,77.0,464.0
B,L,"[5, 2]",1.0,3.0,0.40801095962524414,2.0961928367614746,0.688635626478266,77.0,465.0
R,U,"[4, 2]",1.0,4.0,0.2202610969543457,1.565565824508667,0.33794364371357793,77.0,466.0
B,L,"[4, 1]",1.0,5.0,0.3957819938659668,1.703847885131836,0.30858979762682626,77.0,467.0
R,U,"[3, 1]",1.0,6.0,0.4195678234100342,2.132664918899536,0.7074081448141034,77.0,468.0
,,"(3, 3)",,,,,,77.0,
G,D,"[4, 3]",1.0,1.0,0.4108600616455078,3.3693530559539795,0.5436992252278802,,469.0
G,D,"[5, 3]",1.0,2.0,0.46877002716064453,1.9684820175170898,0.49557872460635205,78.0,470.0
B,L,"[5, 2]",1.0,3.0,0.44010400772094727,1.999372959136963,0.5615940478146029,78.0,471.0
R,U,"[4, 2]",1.0,4.0,0.27233386039733887,1.586003065109253,0.31463288516987836,78.0,472.0
B,L,"[4, 1]",1.0,5.0,0.44127678871154785,2.180108070373535,0.7275265642650521,78.0,473.0
R,U,"[3, 1]",1.0,6.0,0.2535221576690674,1.7726268768310547,0.5171332442205954,78.0,474.0
,,"(3, 3)",,,,,,78.0,
G,D,"[4, 3]",1.0,1.0,0.47600889205932617,3.265727996826172,0.6161231325454295,,475.0
G,D,"[5, 3]",1.0,2.0,0.5218601226806641,2.2768561840057373,0.7429740950341871,79.0,476.0
B,L,"[5, 2]",1.0,3.0,0.3112478256225586,1.7493939399719238,0.44255446294271344,79.0,477.0
R,U,"[4, 2]",1.0,4.0,0.38834691047668457,1.6652679443359375,0.27476094515520033,79.0,478.0
B,L,"[4, 1]",1.0,5.0,0.40362095832824707,1.7045159339904785,0.29601112056354517,79.0,479.0
R,U,"[3, 1]",1.0,6.0,0.396791934967041,1.6559069156646729,0.2685554498966307,79.0,480.0
,,"(3, 3)",,,,,,79.0,
G,D,"[4, 3]",1.0,1.0,0.31636500358581543,3.3330509662628174,0.7345677415764738,,481.0
G,D,"[5, 3]",1.0,2.0,0.4348640441894531,2.037605047225952,0.5890599744043676,80.0,482.0
B,L,"[5, 2]",1.0,3.0,0.44867801666259766,2.0704610347747803,0.6260564629696986,80.0,483.0
R,U,"[4, 2]",1.0,4.0,0.31201601028442383,2.0386199951171875,0.7312596403771632,80.0,484.0
B,L,"[4, 1]",1.0,5.0,0.4452168941497803,1.8200809955596924,0.36846621936588625,80.0,485.0
R,U,"[3, 1]",1.0,6.0,0.3745310306549072,1.7450318336486816,0.3633055849399225,80.0,486.0
,,"(3, 3)",,,,,,80.0,
G,D,"[4, 3]",1.0,1.0,0.43802785873413086,3.2010109424591064,0.6476392263564084,,487.0
G,D,"[5, 3]",1.0,2.0,0.3328211307525635,1.67183518409729,0.3363904194043561,81.0,488.0
B,L,"[5, 2]",1.0,3.0,0.5941660404205322,2.2028660774230957,0.6057802593310438,81.0,489.0
R,U,"[4, 2]",1.0,4.0,0.3711819648742676,1.8476009368896484,0.470191936882355,81.0,490.0
B,L,"[4, 1]",1.0,5.0,0.3861680030822754,2.0748300552368164,0.6781436350476564,81.0,491.0
R,U,"[3, 1]",1.0,6.0,0.399738073348999,1.7535359859466553,0.34875375447205004,81.0,492.0
,,"(3, 3)",,,,,,81.0,
G,D,"[4, 3]",1.0,1.0,0.4024949073791504,2.831005096435547,0.3797711479224625,,493.0
G,D,"[5, 3]",1.0,2.0,0.5296919345855713,1.8529331684112549,0.31613884386483804,82.0,494.0
B,L,"[5, 2]",1.0,3.0,0.3938591480255127,1.827185869216919,0.42658385478939304,82.0,495.0
R,U,"[4, 2]",1.0,4.0,0.3407020568847656,1.618391990661621,0.2784306351824779,82.0,496.0
B,L,"[4, 1]",1.0,5.0,0.40778183937072754,1.684211015701294,0.27934980952932115,82.0,497.0
R,U,"[3, 1]",1.0,6.0,0.2942841053009033,1.5652198791503906,0.2779488317442783,82.0,498.0
,,"(3, 3)",,,,,,82.0,
G,D,"[4, 3]",1.0,1.0,0.2890779972076416,2.7195041179656982,0.39749587241872836,,499.0
G,D,"[5, 3]",1.0,2.0,0.4417281150817871,2.0381181240081787,0.5853814832803698,83.0,500.0
B,L,"[5, 2]",1.0,3.0,0.35729098320007324,1.790403127670288,0.4259095218595312,83.0,501.0
R,U,"[4, 2]",1.0,4.0,0.363908052444458,1.654000997543335,0.29683830463361016,83.0,502.0
B,L,"[4, 1]",1.0,5.0,0.42130184173583984,1.7589740753173828,0.32248158099900165,83.0,503.0
R,U,"[3, 1]",1.0,6.0,0.5893290042877197,2.0933351516723633,0.49899532388985957,83.0,504.0
,,"(3, 3)",,,,,,83.0,
G,D,"[4, 3]",1.0,1.0,0.4853391647338867,3.5332159996032715,0.4156063424524158,,505.0
G,D,"[5, 3]",1.0,2.0,0.5361859798431396,2.169003963470459,0.6177004702625664,84.0,506.0
B,L,"[5, 2]",1.0,3.0,0.47776198387145996,2.0440261363983154,0.5618258047722564,84.0,507.0
R,U,"[4, 2]",1.0,4.0,0.43345212936401367,2.0212459564208984,0.5830469861537209,84.0,508.0
B,L,"[4, 1]",1.0,5.0,0.4313929080963135,1.7471568584442139,0.313911941175492,84.0,509.0
R,U,"[3, 1]",1.0,6.0,0.30509209632873535,1.5872151851654053,0.2678436422562851,84.0,510.0
,,"(3, 3)",,,,,,84.0,
G,D,"[4, 3]",1.0,1.0,0.4648251533508301,3.5728940963745117,0.6405375264462074,,511.0
G,D,"[5, 3]",1.0,2.0,0.5224201679229736,1.9566891193389893,0.4307853940717993,85.0,512.0
B,L,"[5, 2]",1.0,3.0,0.47016000747680664,1.9182560443878174,0.4322776213523584,85.0,513.0
R,U,"[4, 2]",1.0,4.0,0.4010498523712158,2.1595640182495117,0.7415789971048322,85.0,514.0
B,L,"[4, 1]",1.0,5.0,0.531195878982544,2.2690048217773438,0.7440112322976509,85.0,515.0
R,U,"[3, 1]",1.0,6.0,0.44757890701293945,2.100360870361328,0.6611221273179704,85.0,516.0
,,"(3, 3)",,,,,,85.0,
G,D,"[4, 3]",1.0,1.0,0.46820521354675293,4.064539909362793,0.3427464561622121,,517.0
G,D,"[5, 3]",1.0,2.0,0.6312129497528076,2.142085075378418,0.5013738683248558,86.0,518.0
B,L,"[5, 2]",1.0,3.0,0.6294500827789307,2.0750880241394043,0.44331201637789247,86.0,519.0
R,U,"[4, 2]",1.0,4.0,0.35059094429016113,1.8139488697052002,0.45722740282024593,86.0,520.0
B,L,"[4, 1]",1.0,5.0,0.4029560089111328,1.9792850017547607,0.5697448347493461,86.0,521.0
R,U,"[3, 1]",1.0,6.0,0.36073994636535645,1.8183069229125977,0.4547780568811018,86.0,522.0
,,"(3, 3)",,,,,,86.0,
G,D,"[4, 3]",1.0,1.0,0.356795072555542,2.9913952350616455,0.4797263537203581,,523.0
G,D,"[5, 3]",1.0,2.0,0.37513303756713867,1.7541630268096924,0.367255058583259,87.0,524.0
B,L,"[5, 2]",1.0,3.0,0.32726597785949707,1.970362901687622,0.6376379621276941,87.0,525.0
R,U,"[4, 2]",1.0,4.0,0.31687092781066895,1.905195951461792,0.5759014747039096,87.0,526.0
B,L,"[4, 1]",1.0,5.0,0.37581491470336914,2.0644421577453613,0.6903798304766497,87.0,527.0
R,U,"[3, 1]",1.0,6.0,0.3581540584564209,1.7708969116210938,0.4115343291437604,87.0,528.0
,,"(3, 3)",,,,,,87.0,
G,D,"[4, 3]",1.0,1.0,0.5190768241882324,3.6432230472564697,0.6547006099973637,,529.0
G,D,"[5, 3]",1.0,2.0,0.3415961265563965,1.8758811950683594,0.5304728746281476,88.0,530.0
B,L,"[5, 2]",1.0,3.0,0.398651123046875,1.9299449920654297,0.5272146748430381,88.0,531.0
R,U,"[4, 2]",1.0,4.0,0.3198070526123047,1.8927149772644043,0.5698692090415909,88.0,532.0
B,L,"[4, 1]",1.0,5.0,0.3278179168701172,1.9672389030456543,0.6371992315263684,88.0,533.0
R,U,"[3, 1]",1.0,6.0,0.35013914108276367,1.9789221286773682,0.6164734085098476,88.0,534.0
,,"(3, 3)",,,,,,88.0,
G,D,"[4, 3]",1.0,1.0,0.4431900978088379,3.7000460624694824,0.6162734097666425,,535.0
G,D,"[5, 3]",1.0,2.0,0.39835596084594727,1.763909101486206,0.3636701593610195,89.0,536.0
B,L,"[5, 2]",1.0,3.0,0.37847113609313965,1.8766040802001953,0.49028955507564276,89.0,537.0
R,U,"[4, 2]",1.0,4.0,0.29886507987976074,1.8898370265960693,0.5966283997200299,89.0,538.0
B,L,"[4, 1]",1.0,5.0,0.32212305068969727,1.8680751323699951,0.5314297290430747,89.0,539.0
R,U,"[3, 1]",1.0,6.0,0.3642609119415283,1.9736220836639404,0.6050218671167936,89.0,540.0
,,"(3, 3)",,,,,,89.0,
G,D,"[4, 3]",1.0,1.0,0.7257518768310547,4.434579133987427,0.3901386431456793,,541.0
G,D,"[5, 3]",1.0,2.0,0.32743120193481445,1.6736149787902832,0.3469428639872082,90.0,542.0
B,L,"[5, 2]",1.0,3.0,0.34830713272094727,1.7178690433502197,0.36493868564883725,90.0,543.0
R,U,"[4, 2]",1.0,4.0,0.259645938873291,1.8233580589294434,0.5546426726173378,90.0,544.0
B,L,"[4, 1]",1.0,5.0,0.290283203125,1.9696059226989746,0.6741862735304299,90.0,545.0
R,U,"[3, 1]",1.0,6.0,0.23440790176391602,1.5475828647613525,0.3056181840200873,90.0,546.0
,,"(3, 3)",,,,,,90.0,
G,D,"[4, 3]",1.0,1.0,0.37335205078125,3.386596202850342,0.47557583854113183,,547.0
G,D,"[5, 3]",1.0,2.0,0.3192300796508789,1.6836309432983398,0.35905277434933097,91.0,548.0
B,L,"[5, 2]",1.0,3.0,0.4529750347137451,1.749129056930542,0.29158561251992227,91.0,549.0
R,U,"[4, 2]",1.0,4.0,0.2761111259460449,1.5692768096923828,0.2942582905647961,91.0,550.0
B,L,"[4, 1]",1.0,5.0,0.34845781326293945,1.9563429355621338,0.6169681101424975,91.0,551.0
R,U,"[3, 1]",1.0,6.0,0.42594194412231445,1.8814680576324463,0.44859836845278334,91.0,552.0
,,"(3, 3)",,,,,,91.0,
G,D,"[4, 3]",1.0,1.0,0.21438193321228027,3.106741189956665,0.5054133527346087,,553.0
G,D,"[5, 3]",1.0,2.0,0.416701078414917,1.8704779148101807,0.4425178827517869,92.0,554.0
B,L,"[5, 2]",1.0,3.0,0.4062380790710449,1.7693939208984375,0.378581382839072,92.0,555.0
R,U,"[4, 2]",1.0,4.0,0.31145715713500977,1.6166751384735107,0.31217538323641575,92.0,556.0
B,L,"[4, 1]",1.0,5.0,0.34881091117858887,1.909208059310913,0.5711861986793456,92.0,557.0
R,U,"[3, 1]",1.0,6.0,0.3822159767150879,2.114619016647339,0.7356036312857448,92.0,558.0
,,"(3, 3)",,,,,,92.0,
G,D,"[4, 3]",1.0,1.0,0.48253703117370605,3.0600850582122803,0.5620120133684945,,559.0
G,D,"[5, 3]",1.0,2.0,0.3666970729827881,1.8855831623077393,0.49827517144255534,93.0,560.0
B,L,"[5, 2]",1.0,3.0,0.3228740692138672,1.7194268703460693,0.38454175145749053,93.0,561.0
R,U,"[4, 2]",1.0,4.0,0.3151729106903076,1.9925482273101807,0.6435515596969297,93.0,562.0
B,L,"[4, 1]",1.0,5.0,0.24707889556884766,1.7350249290466309,0.4952737772337347,93.0,563.0
R,U,"[3, 1]",1.0,6.0,0.303847074508667,1.6830880641937256,0.3786986393076929,93.0,564.0
,,"(3, 3)",,,,,,93.0,
G,D,"[4, 3]",1.0,1.0,0.4831509590148926,3.5275650024414062,0.6393968483911523,,565.0
G,D,"[5, 3]",1.0,2.0,0.3021578788757324,1.797760009765625,0.48729178626613684,94.0,566.0
B,L,"[5, 2]",1.0,3.0,0.34413695335388184,1.6611180305480957,0.3152175887229476,94.0,567.0
R,U,"[4, 2]",1.0,4.0,0.3855738639831543,1.7165498733520508,0.315196485296776,94.0,568.0
B,L,"[4, 1]",1.0,5.0,0.46796321868896484,2.021923065185547,0.5367624939793318,94.0,569.0
R,U,"[3, 1]",1.0,6.0,0.31829094886779785,1.6015291213989258,0.27201602574633416,94.0,570.0
,,"(3, 3)",,,,,,94.0,
G,D,"[4, 3]",1.0,1.0,0.41112780570983887,3.509202003479004,0.5310760100813698,,571.0
G,D,"[5, 3]",1.0,2.0,0.33580708503723145,2.0723211765289307,0.719869103266412,95.0,572.0
B,L,"[5, 2]",1.0,3.0,0.3752100467681885,1.7640118598937988,0.38428289178910857,95.0,573.0
R,U,"[4, 2]",1.0,4.0,0.3838169574737549,1.9418530464172363,0.5425894100195353,95.0,574.0
B,L,"[4, 1]",1.0,5.0,0.362368106842041,2.041179895401001,0.6836987692031571,95.0,575.0
R,U,"[3, 1]",1.0,6.0,0.33367300033569336,1.9384939670562744,0.5889803805134561,95.0,576.0
,,"(3, 3)",,,,,,95.0,
G,D,"[4, 3]",1.0,1.0,0.3818049430847168,3.447313070297241,0.7028626038654464,,577.0
G,D,"[5, 3]",1.0,2.0,0.38227295875549316,2.0281081199645996,0.6310664704759998,96.0,578.0
B,L,"[5, 2]",1.0,3.0,0.4542348384857178,2.11040997505188,0.6582045857156938,96.0,579.0
R,U,"[4, 2]",1.0,4.0,0.29008913040161133,1.9110331535339355,0.6193075863785438,96.0,580.0
B,L,"[4, 1]",1.0,5.0,0.39246582984924316,1.9094970226287842,0.512188884056828,96.0,581.0
R,U,"[3, 1]",1.0,6.0,0.3876008987426758,1.722182035446167,0.351247983943451,96.0,582.0
,,"(3, 3)",,,,,,96.0,
G,D,"[4, 3]",1.0,1.0,0.4179201126098633,3.685208797454834,0.6862282859118982,,583.0
G,D,"[5, 3]",1.0,2.0,0.47945094108581543,1.895111083984375,0.41486654927106803,97.0,584.0
G,D,"[6, 3]",0.0,2.0,0.4782438278198242,1.9914770126342773,0.5063676996318234,97.0,585.0
B,L,"[6, 2]",0.0,2.0,0.2550230026245117,1.597456932067871,0.33729005864450423,97.0,586.0
R,U,"[5, 2]",1.0,3.0,0.27284908294677734,1.7897179126739502,0.5103972147281038,97.0,587.0
B,L,"[5, 1]",-1.0,2.0,0.4867970943450928,1.7857630252838135,0.2962626500225391,97.0,588.0
,,"(3, 3)",,,,,,97.0,
G,D,"[4, 3]",1.0,1.0,0.5551319122314453,4.092402935028076,0.721683420641416,,589.0
G,D,"[5, 3]",1.0,2.0,0.45147109031677246,1.8477988243103027,0.3864401631158476,98.0,590.0
B,L,"[5, 2]",1.0,3.0,0.42363500595092773,2.057192087173462,0.6265607655633286,98.0,591.0
R,U,"[4, 2]",1.0,4.0,0.26277685165405273,1.7761859893798828,0.519757844214225,98.0,592.0
B,L,"[4, 1]",1.0,5.0,0.32941699028015137,1.7361741065979004,0.4060623206318316,98.0,593.0
R,U,"[3, 1]",1.0,6.0,0.3449258804321289,1.6983489990234375,0.354605667924274,98.0,594.0
,,"(3, 3)",,,,,,98.0,
G,D,"[4, 3]",1.0,1.0,0.39771604537963867,12.583683013916016,0.45502271094114766,,595.0
G,D,"[5, 3]",1.0,2.0,0.5333161354064941,2.13486385345459,0.5897013011045118,99.0,596.0
B,L,"[5, 2]",1.0,3.0,0.3687880039215088,1.9338388442993164,0.5569456224918267,99.0,597.0
R,U,"[4, 2]",1.0,4.0,0.31765198707580566,1.7956569194793701,0.4693689640174975,99.0,598.0
B,L,"[4, 1]",1.0,5.0,0.411865234375,2.1067590713500977,0.692613455835,99.0,599.0
R,U,"[3, 1]",1.0,6.0,0.3517420291900635,1.886324167251587,0.5292747358829628,99.0,600.0
,,"(3, 3)",,,,,,99.0,
G,D,"[4, 3]",1.0,1.0,0.471513032913208,3.181627035140991,0.3942253820570111,,601.0
G,D,"[5, 3]",1.0,2.0,0.572382926940918,1.9720940589904785,0.3998196630981119,100.0,602.0
B,L,"[5, 2]",1.0,3.0,0.4351539611816406,1.8956928253173828,0.4453589009175103,100.0,603.0
R,U,"[4, 2]",1.0,4.0,0.38864994049072266,1.8406329154968262,0.45281159509668334,100.0,604.0
B,L,"[4, 1]",1.0,5.0,0.3038930892944336,2.030745029449463,0.7165701636256374,100.0,605.0
R,U,"[3, 1]",1.0,6.0,0.34743714332580566,1.6489028930664062,0.29939636718371726,100.0,606.0
,,"(3, 3)",,,,,,100.0,
G,D,"[4, 3]",1.0,1.0,0.434218168258667,3.447361946105957,0.5632224029281857,,607.0
G,D,"[5, 3]",1.0,2.0,0.35172605514526367,1.9649019241333008,0.5947405669548294,101.0,608.0
B,L,"[5, 2]",1.0,3.0,0.3787851333618164,2.1154139041900635,0.7431522279808798,101.0,609.0
R,U,"[4, 2]",1.0,4.0,0.30620503425598145,2.0146031379699707,0.7080305190472991,101.0,610.0
B,L,"[4, 1]",1.0,5.0,0.3856170177459717,1.7350001335144043,0.34329783028811983,101.0,611.0
R,U,"[3, 1]",1.0,6.0,0.5013377666473389,1.9652879238128662,0.45854499259806997,101.0,612.0
,,"(3, 3)",,,,,,101.0,
G,D,"[4, 3]",1.0,1.0,0.39984583854675293,3.6357059478759766,0.727392866135206,,613.0
G,D,"[5, 3]",1.0,2.0,0.45461297035217285,1.8739211559295654,0.41837613200926044,102.0,614.0
B,L,"[5, 2]",1.0,3.0,0.41689109802246094,1.7340779304504395,0.30259250399483906,102.0,615.0
R,U,"[4, 2]",1.0,4.0,0.3809070587158203,1.803149938583374,0.4221461802586126,102.0,616.0
B,L,"[4, 1]",1.0,5.0,0.30414390563964844,2.0554871559143066,0.7441519211869951,102.0,617.0
R,U,"[3, 1]",1.0,6.0,0.4450521469116211,1.8528881072998047,0.4139890887632457,102.0,618.0
,,"(3, 3)",,,,,,102.0,
G,D,"[4, 3]",1.0,1.0,0.5068669319152832,3.2556049823760986,0.5027673569063031,,619.0
G,D,"[5, 3]",1.0,2.0,0.3336818218231201,1.7343940734863281,0.38742672560925584,103.0,620.0
B,L,"[5, 2]",1.0,3.0,0.4705390930175781,2.0755300521850586,0.5961989898859044,103.0,621.0
R,U,"[4, 2]",1.0,4.0,0.2954239845275879,1.6954841613769531,0.3917431514137759,103.0,622.0
B,L,"[4, 1]",1.0,5.0,0.2507460117340088,1.9121410846710205,0.6536281880437262,103.0,623.0
R,U,"[3, 1]",1.0,6.0,0.37528300285339355,1.9510650634765625,0.5716239762483397,103.0,624.0
,,"(3, 3)",,,,,,103.0,
G,D,"[4, 3]",1.0,1.0,0.45018815994262695,3.958700180053711,0.6971819802726626,,625.0
G,D,"[5, 3]",1.0,2.0,0.4658169746398926,1.8644518852233887,0.3783389562948126,104.0,626.0
B,L,"[5, 2]",1.0,3.0,0.32794904708862305,2.0040459632873535,0.6821928394233518,104.0,627.0
R,U,"[4, 2]",1.0,4.0,0.24927997589111328,1.8066740036010742,0.5389361764981276,104.0,628.0
B,L,"[4, 1]",1.0,5.0,0.3042268753051758,1.9445970058441162,0.6335136496064078,104.0,629.0
R,U,"[3, 1]",1.0,6.0,0.33332109451293945,2.0674889087677,0.7173757302274084,104.0,630.0
,,"(3, 3)",,,,,,104.0,
G,D,"[4, 3]",1.0,1.0,0.3968617916107178,6.236999988555908,0.32196151883428664,,631.0
G,D,"[5, 3]",1.0,2.0,0.7325599193572998,2.000074863433838,0.2554499418410981,105.0,632.0
B,L,"[5, 2]",1.0,3.0,0.2718679904937744,1.9885590076446533,0.7100718829318573,105.0,633.0
R,U,"[4, 2]",1.0,4.0,0.31379199028015137,1.636362075805664,0.33022380009256375,105.0,634.0
B,L,"[4, 1]",1.0,5.0,0.37538790702819824,1.667104959487915,0.28069072569477366,105.0,635.0
R,U,"[3, 1]",1.0,6.0,0.3468489646911621,1.9580662250518799,0.6052175540152911,105.0,636.0
,,"(3, 3)",,,,,,105.0,
G,D,"[4, 3]",1.0,1.0,0.3655838966369629,3.4819118976593018,0.7202747449049938,,637.0
G,D,"[5, 3]",1.0,2.0,0.329740047454834,2.051645040512085,0.7219354824211696,106.0,638.0
B,L,"[5, 2]",1.0,3.0,0.3657059669494629,1.66267991065979,0.3017752205561788,106.0,639.0
R,U,"[4, 2]",1.0,4.0,0.34904003143310547,2.0642499923706055,0.6989652768141976,106.0,640.0
B,L,"[4, 1]",1.0,5.0,0.36664891242980957,1.8653371334075928,0.4812083550989796,106.0,641.0
R,U,"[3, 1]",1.0,6.0,0.27894091606140137,1.5953660011291504,0.31020324628480916,106.0,642.0
,,"(3, 3)",,,,,,106.0,
G,D,"[4, 3]",1.0,1.0,0.18250393867492676,2.615403175354004,0.3089401238376899,,643.0
G,D,"[5, 3]",1.0,2.0,0.3142399787902832,1.6220979690551758,0.314366944166271,107.0,644.0
B,L,"[5, 2]",1.0,3.0,0.3846139907836914,1.8346099853515625,0.44891817071013884,107.0,645.0
R,U,"[4, 2]",1.0,4.0,0.2344520092010498,1.8756248950958252,0.6243383427084976,107.0,646.0
B,L,"[4, 1]",1.0,5.0,0.42797303199768066,1.9045000076293945,0.47899268538094536,107.0,647.0
R,U,"[3, 1]",1.0,6.0,0.32612109184265137,2.0508759021759033,0.7296916140404586,107.0,648.0
,,"(3, 3)",,,,,,107.0,
G,D,"[4, 3]",1.0,1.0,0.4771590232849121,3.3499720096588135,0.5798503569405229,,649.0
G,D,"[5, 3]",1.0,2.0,0.43047380447387695,1.9724299907684326,0.5356531574075281,108.0,650.0
B,L,"[5, 2]",1.0,3.0,0.3138589859008789,1.7822051048278809,0.4680384910407089,108.0,651.0
R,U,"[4, 2]",1.0,4.0,0.30956006050109863,1.9532959461212158,0.6378573524857098,108.0,652.0
B,L,"[4, 1]",1.0,5.0,0.33960509300231934,1.7833068370819092,0.43809060115555765,108.0,653.0
R,U,"[3, 1]",1.0,6.0,0.3023531436920166,1.588824987411499,0.2770048979132943,108.0,654.0
,,"(3, 3)",,,,,,108.0,
G,D,"[4, 3]",1.0,1.0,0.5282149314880371,3.498591899871826,0.5087837484459355,,655.0
G,D,"[5, 3]",1.0,2.0,0.4652678966522217,1.8469359874725342,0.38917653679532505,109.0,656.0
B,L,"[5, 2]",1.0,3.0,0.3622779846191406,1.7088031768798828,0.34802943497833555,109.0,657.0
R,U,"[4, 2]",1.0,4.0,0.3037381172180176,1.9685709476470947,0.6496302622674692,109.0,658.0
B,L,"[4, 1]",1.0,5.0,0.39409399032592773,1.943854808807373,0.5437487216624785,109.0,659.0
R,U,"[3, 1]",1.0,6.0,0.30397582054138184,1.6796519756317139,0.3735365815881889,109.0,660.0
,,"(3, 3)",,,,,,109.0,
G,D,"[4, 3]",1.0,1.0,0.395035982131958,3.589211940765381,0.479497947259701,,661.0
G,D,"[5, 3]",1.0,2.0,0.5006492137908936,1.8153839111328125,0.3116262123299767,110.0,662.0
B,L,"[5, 2]",1.0,3.0,0.3995640277862549,2.1510229110717773,0.7454825206188267,110.0,663.0
R,U,"[4, 2]",1.0,4.0,0.42772912979125977,1.9553148746490479,0.5344569530118435,110.0,664.0
B,L,"[4, 1]",1.0,5.0,0.4562690258026123,1.9394431114196777,0.47402670432794963,110.0,665.0
R,U,"[3, 1]",1.0,6.0,0.45584607124328613,1.8480181694030762,0.38885516050117436,110.0,666.0
,,"(3, 3)",,,,,,110.0,
G,D,"[4, 3]",1.0,1.0,0.4918539524078369,3.7814149856567383,0.42021192827563936,,667.0
G,D,"[5, 3]",1.0,2.0,0.4127469062805176,1.6876120567321777,0.27472544854542946,111.0,668.0
B,L,"[5, 2]",1.0,3.0,0.6144270896911621,2.1653401851654053,0.5564449435471854,111.0,669.0
R,U,"[4, 2]",1.0,4.0,0.30797886848449707,1.7423598766326904,0.43227762227820743,111.0,670.0
B,L,"[4, 1]",1.0,5.0,0.34798192977905273,1.6175179481506348,0.2666400791419414,111.0,671.0
R,U,"[3, 1]",1.0,6.0,0.2532918453216553,1.9300870895385742,0.6628605201723142,111.0,672.0
,,"(3, 3)",,,,,,111.0,
G,D,"[4, 3]",1.0,1.0,0.337709903717041,3.351586103439331,0.6980405188490766,,673.0
G,D,"[5, 3]",1.0,2.0,0.3831939697265625,1.6595768928527832,0.2581062513575469,112.0,674.0
B,L,"[5, 2]",1.0,3.0,0.46215200424194336,1.7840118408203125,0.3253051530387123,112.0,675.0
R,U,"[4, 2]",1.0,4.0,0.3020918369293213,1.9645578861236572,0.6562965070607616,112.0,676.0
B,L,"[4, 1]",1.0,5.0,0.333482027053833,1.8265199661254883,0.48293759097044253,112.0,677.0
R,U,"[3, 1]",1.0,6.0,0.33312511444091797,2.010456085205078,0.6765792242701736,112.0,678.0
,,"(3, 3)",,,,,,112.0,
G,D,"[4, 3]",1.0,1.0,0.513516902923584,4.023749113082886,0.6173477364778228,,679.0
G,D,"[5, 3]",1.0,2.0,0.3808598518371582,2.0818679332733154,0.6989282666788954,113.0,680.0
G,D,"[6, 3]",0.0,2.0,0.4177861213684082,2.116231918334961,0.6818605461964247,113.0,681.0
Y,R,"[6, 4]",0.0,2.0,0.2129838466644287,1.6286060810089111,0.4106255552201493,113.0,682.0
R,U,"[5, 4]",-1.0,1.0,0.247697114944458,1.7426509857177734,0.4867254747410837,113.0,683.0
B,L,"[5, 3]",1.0,2.0,0.48375415802001953,1.9566388130187988,0.46022030931800106,113.0,684.0
,,"(3, 3)",,,,,,113.0,
G,D,"[4, 3]",1.0,1.0,0.6275331974029541,4.034733772277832,0.694799616700212,,685.0
B,L,"[4, 2]",1.0,2.0,0.26939916610717773,1.5273048877716064,0.2724618871123578,114.0,686.0
Y,R,"[4, 3]",1.0,3.0,0.46918201446533203,2.1071128845214844,0.629087792849123,114.0,687.0
R,U,"[3, 3]",-2.0,1.0,0.3571169376373291,1.8743791580200195,0.5203740436189165,114.0,688.0
Y,R,"[3, 4]",-1.0,0.0,0.2931649684906006,1.9053070545196533,0.6089864478669649,114.0,689.0
G,D,"[4, 4]",-1.0,-1.0,0.22390198707580566,1.7146830558776855,0.49040540912871455,114.0,690.0
,,"(3, 3)",,,,,,114.0,
G,D,"[4, 3]",1.0,1.0,0.5836179256439209,3.241558074951172,0.4488610137430394,,691.0
B,L,"[4, 2]",1.0,2.0,0.42337679862976074,1.9304628372192383,0.49593328119565305,115.0,692.0
Y,R,"[4, 3]",1.0,3.0,0.38486385345458984,1.9098329544067383,0.5225063867705956,115.0,693.0
B,L,"[4, 2]",1.0,4.0,0.3863809108734131,1.7125229835510254,0.31845786094330236,115.0,694.0
G,D,"[5, 2]",1.0,5.0,0.5147218704223633,1.9703030586242676,0.4553672981574785,115.0,695.0
B,L,"[5, 1]",-1.0,4.0,0.5520119667053223,2.049628973007202,0.4882679190095329,115.0,696.0
,,"(3, 3)",,,,,,115.0,
G,D,"[4, 3]",1.0,1.0,0.602787971496582,3.1248369216918945,0.5131498322727057,,697.0
B,L,"[4, 2]",1.0,2.0,0.34182000160217285,1.7894010543823242,0.43601717529505885,116.0,698.0
Y,R,"[4, 3]",1.0,3.0,0.3515758514404297,1.9126079082489014,0.5485318828430061,116.0,699.0
B,L,"[4, 2]",1.0,4.0,0.2699859142303467,1.8458888530731201,0.5777310307979865,116.0,700.0
G,D,"[5, 2]",1.0,5.0,0.3087329864501953,1.819309949874878,0.5139296595298387,116.0,701.0
Y,R,"[5, 3]",1.0,6.0,0.24941015243530273,1.7757959365844727,0.506252969452476,116.0,702.0
,,"(3, 3)",,,,,,116.0,
G,D,"[4, 3]",1.0,1.0,0.3888261318206787,2.9306459426879883,0.5202697536871771,,703.0
B,L,"[4, 2]",1.0,2.0,0.34470200538635254,1.8252151012420654,0.4788866358465974,117.0,704.0
Y,R,"[4, 3]",1.0,3.0,0.35412001609802246,1.9256720542907715,0.5712226117865469,117.0,705.0
B,L,"[4, 2]",1.0,4.0,0.3556392192840576,2.1001269817352295,0.7378260261395423,117.0,706.0
G,D,"[5, 2]",1.0,5.0,0.2589249610900879,1.7440440654754639,0.48230912168686063,117.0,707.0
Y,R,"[5, 3]",1.0,6.0,0.2979609966278076,1.8820359706878662,0.5809246727684536,117.0,708.0
,,"(3, 3)",,,,,,117.0,
G,D,"[4, 3]",1.0,1.0,0.5156509876251221,3.2493929862976074,0.5805496543229747,,709.0
B,L,"[4, 2]",1.0,2.0,0.3166830539703369,1.6244711875915527,0.2886480243417681,118.0,710.0
Y,R,"[4, 3]",1.0,3.0,0.5570559501647949,2.1043078899383545,0.5425392186737353,118.0,711.0
B,L,"[4, 2]",1.0,4.0,0.25110602378845215,1.61198091506958,0.3546645409210562,118.0,712.0
G,D,"[5, 2]",1.0,5.0,0.33853793144226074,1.8769021034240723,0.5313876313740385,118.0,713.0
Y,R,"[5, 3]",1.0,6.0,0.2832050323486328,1.8605151176452637,0.5586229560961604,118.0,714.0
,,"(3, 3)",,,,,,118.0,
G,D,"[4, 3]",1.0,1.0,0.45880794525146484,3.4888510704040527,0.5644514738815696,,715.0
B,L,"[4, 2]",1.0,2.0,0.33193182945251465,2.018233060836792,0.6824048820388728,119.0,716.0
Y,R,"[4, 3]",1.0,3.0,0.35687804222106934,1.9143362045288086,0.5469218635927942,119.0,717.0
B,L,"[4, 2]",1.0,4.0,0.3302290439605713,1.7828409671783447,0.4464568384104019,119.0,718.0
G,D,"[5, 2]",1.0,5.0,0.37593889236450195,1.8931550979614258,0.5061755484369737,119.0,719.0
Y,R,"[5, 3]",1.0,6.0,0.23679590225219727,1.9581379890441895,0.7309555897596605,119.0,720.0
,,"(3, 3)",,,,,,119.0,
G,D,"[4, 3]",1.0,1.0,0.36273193359375,2.2272658348083496,0.29211989334313165,,721.0
B,L,"[4, 2]",1.0,2.0,0.5425500869750977,2.1454648971557617,0.6038336295649834,120.0,722.0
Y,R,"[4, 3]",1.0,3.0,0.2985689640045166,1.8477118015289307,0.5349063624364583,120.0,723.0
B,L,"[4, 2]",1.0,4.0,0.2457270622253418,1.5949029922485352,0.3467493458318275,120.0,724.0
G,D,"[5, 2]",1.0,5.0,0.29860496520996094,1.872633934020996,0.569253841931403,120.0,725.0
Y,R,"[5, 3]",1.0,6.0,0.26514387130737305,1.6799030303955078,0.4160005701738958,120.0,726.0
,,"(3, 3)",,,,,,120.0,
G,D,"[4, 3]",1.0,1.0,0.3972480297088623,2.475032091140747,0.34121986215889377,,727.0
B,L,"[4, 2]",1.0,2.0,0.30429506301879883,1.9383199214935303,0.6291674748690481,121.0,728.0
Y,R,"[4, 3]",1.0,3.0,0.2650442123413086,1.636713981628418,0.38269764300772346,121.0,729.0
B,L,"[4, 2]",1.0,4.0,0.3449211120605469,1.7150449752807617,0.36452262492995713,121.0,730.0
G,D,"[5, 2]",1.0,5.0,0.2863810062408447,1.9538109302520752,0.6514802558544593,121.0,731.0
Y,R,"[5, 3]",1.0,6.0,0.3435201644897461,2.020591974258423,0.6721086356858395,121.0,732.0
,,"(3, 3)",,,,,,121.0,
G,D,"[4, 3]",1.0,1.0,0.3046858310699463,2.374945878982544,0.3474874978438931,,733.0
B,L,"[4, 2]",1.0,2.0,0.33670496940612793,1.8519680500030518,0.4991173641839063,122.0,734.0
Y,R,"[4, 3]",1.0,3.0,0.20862102508544922,1.813870906829834,0.5962957506426383,122.0,735.0
B,L,"[4, 2]",1.0,4.0,0.2569999694824219,1.9954800605773926,0.7249772829148882,122.0,736.0
G,D,"[5, 2]",1.0,5.0,0.2777721881866455,1.8727588653564453,0.5979425625861433,122.0,737.0
Y,R,"[5, 3]",1.0,6.0,0.28058886528015137,1.7520010471343994,0.4667153351040159,122.0,738.0
,,"(3, 3)",,,,,,122.0,
G,D,"[4, 3]",1.0,1.0,0.3111288547515869,3.13297700881958,0.7329096446539365,,739.0
B,L,"[4, 2]",1.0,2.0,0.29617810249328613,1.6069509983062744,0.3068626959736835,123.0,740.0
Y,R,"[4, 3]",1.0,3.0,0.34128808975219727,1.9678552150726318,0.6245359030274749,123.0,741.0
B,L,"[4, 2]",1.0,4.0,0.24656915664672852,1.564950942993164,0.3231336184175518,123.0,742.0
G,D,"[5, 2]",1.0,5.0,0.24299907684326172,1.7720108032226562,0.5282199135711938,123.0,743.0
Y,R,"[5, 3]",1.0,6.0,0.28553104400634766,1.7618529796600342,0.47349911453708665,123.0,744.0
,,"(3, 3)",,,,,,123.0,
G,D,"[4, 3]",1.0,1.0,0.31617283821105957,3.027935028076172,0.6513152128362929,,745.0
B,L,"[4, 2]",1.0,2.0,0.34676194190979004,1.9058279991149902,0.5571952661284554,124.0,746.0
Y,R,"[4, 3]",1.0,3.0,0.2889139652252197,1.9835150241851807,0.6906670957524901,124.0,747.0
B,L,"[4, 2]",1.0,4.0,0.3134269714355469,1.8538551330566406,0.5449094832297974,124.0,748.0
G,D,"[5, 2]",1.0,5.0,0.2745668888092041,1.6970610618591309,0.4253161270362914,124.0,749.0
Y,R,"[5, 3]",1.0,6.0,0.24860095977783203,1.9067089557647705,0.6651698163944686,124.0,750.0
,,"(3, 3)",,,,,,124.0,
G,D,"[4, 3]",1.0,1.0,0.3878440856933594,3.2249457836151123,0.6235822166510642,,751.0
B,L,"[4, 2]",1.0,2.0,0.3203120231628418,1.8803880214691162,0.5540475193352717,125.0,752.0
Y,R,"[4, 3]",1.0,3.0,0.2751779556274414,1.9057838916778564,0.6262833014293354,125.0,753.0
B,L,"[4, 2]",1.0,4.0,0.31319093704223633,1.8201868534088135,0.5133239226158486,125.0,754.0
G,D,"[5, 2]",1.0,5.0,0.26308608055114746,1.7444770336151123,0.4745329744322513,125.0,755.0
Y,R,"[5, 3]",1.0,6.0,0.2686350345611572,1.8725030422210693,0.5968479833824789,125.0,756.0
,,"(3, 3)",,,,,,125.0,
G,D,"[4, 3]",1.0,1.0,0.30210399627685547,2.9867138862609863,0.7003319833405921,,757.0
B,L,"[4, 2]",1.0,2.0,0.3163869380950928,1.63348388671875,0.3008232485619458,126.0,758.0
Y,R,"[4, 3]",1.0,3.0,0.27675318717956543,1.8225221633911133,0.5398398815137679,126.0,759.0
B,L,"[4, 2]",1.0,4.0,0.2615048885345459,1.9524970054626465,0.6922777413133976,126.0,760.0
G,D,"[5, 2]",1.0,5.0,0.2665128707885742,1.721731185913086,0.4476383159200734,126.0,761.0
Y,R,"[5, 3]",1.0,6.0,0.32297396659851074,1.6650090217590332,0.32940231951725263,126.0,762.0
,,"(3, 3)",,,,,,126.0,
G,D,"[4, 3]",1.0,1.0,0.2673029899597168,3.1929140090942383,0.4055554566913067,,763.0
B,L,"[4, 2]",1.0,2.0,0.3433420658111572,2.017735004425049,0.6730349595722391,127.0,764.0
Y,R,"[4, 3]",1.0,3.0,0.2975890636444092,1.9624500274658203,0.6689090729750433,127.0,765.0
B,L,"[4, 2]",1.0,4.0,0.3640890121459961,1.97965407371521,0.6153033553789626,127.0,766.0
G,D,"[5, 2]",1.0,5.0,0.3299078941345215,1.8623850345611572,0.5278387392597665,127.0,767.0
Y,R,"[5, 3]",1.0,6.0,0.29677605628967285,1.6983888149261475,0.40964039270164254,127.0,768.0
,,"(3, 3)",,,,,,127.0,
G,D,"[4, 3]",1.0,1.0,0.2529301643371582,3.012478828430176,0.6886016778262972,,769.0
B,L,"[4, 2]",1.0,2.0,0.2852649688720703,1.5974359512329102,0.3030765699481293,128.0,770.0
Y,R,"[4, 3]",1.0,3.0,0.3493330478668213,1.727100133895874,0.3800888219124253,128.0,771.0
B,L,"[4, 2]",1.0,4.0,0.25922703742980957,1.5248219966888428,0.25518611511597916,128.0,772.0
G,D,"[5, 2]",1.0,5.0,0.295590877532959,2.038661003112793,0.7432689935176606,128.0,773.0
Y,R,"[5, 3]",1.0,6.0,0.32157182693481445,1.8394649028778076,0.5163921409453098,128.0,774.0
,,"(3, 3)",,,,,,128.0,
G,D,"[4, 3]",1.0,1.0,0.2624959945678711,3.241456985473633,0.6908936336152512,,775.0
B,L,"[4, 2]",1.0,2.0,0.3473320007324219,2.0359549522399902,0.6936478699698275,129.0,776.0
Y,R,"[4, 3]",1.0,3.0,0.27675914764404297,1.7226722240447998,0.449930501457924,129.0,777.0
B,L,"[4, 2]",1.0,4.0,0.39536404609680176,1.8924269676208496,0.4924393045997065,129.0,778.0
G,D,"[5, 2]",1.0,5.0,0.3361032009124756,2.0590710639953613,0.7178657111895357,129.0,779.0
Y,R,"[5, 3]",1.0,6.0,0.3894917964935303,1.9385390281677246,0.5399731103012403,129.0,780.0
,,"(3, 3)",,,,,,129.0,
G,D,"[4, 3]",1.0,1.0,0.36012983322143555,2.950425148010254,0.3740479067607974,,781.0
B,L,"[4, 2]",1.0,2.0,0.35042500495910645,1.757768154144287,0.3984529316342768,130.0,782.0
Y,R,"[4, 3]",1.0,3.0,0.5402090549468994,2.0954689979553223,0.5437439950848126,130.0,783.0
B,L,"[4, 2]",1.0,4.0,0.2819337844848633,1.8420460224151611,0.5691741489225526,130.0,784.0
G,D,"[5, 2]",1.0,5.0,0.263700008392334,1.576512098312378,0.31261864010180535,130.0,785.0
Y,R,"[5, 3]",1.0,6.0,0.29209399223327637,1.6358799934387207,0.3485222770480019,130.0,786.0
,,"(3, 3)",,,,,,130.0,
G,D,"[4, 3]",1.0,1.0,0.23107600212097168,3.0483429431915283,0.38011358378055393,,787.0
B,L,"[4, 2]",1.0,2.0,0.2711451053619385,1.725926160812378,0.43946042070592767,131.0,788.0
Y,R,"[4, 3]",1.0,3.0,0.27974796295166016,1.6768720149993896,0.3997598029712043,131.0,789.0
B,L,"[4, 2]",1.0,4.0,0.25425195693969727,1.8072781562805176,0.5401149325639923,131.0,790.0
G,D,"[5, 2]",1.0,5.0,0.32337188720703125,1.867516040802002,0.5411504055277917,131.0,791.0
Y,R,"[5, 3]",1.0,6.0,0.30603790283203125,1.7070062160491943,0.39812112615056167,131.0,792.0
,,"(3, 3)",,,,,,131.0,
G,D,"[4, 3]",1.0,1.0,0.26303696632385254,2.4518399238586426,0.28363319445252066,,793.0
B,L,"[4, 2]",1.0,2.0,0.31133389472961426,1.7712268829345703,0.45447872004804546,132.0,794.0
Y,R,"[4, 3]",1.0,3.0,0.21875405311584473,1.7918188571929932,0.563037370512889,132.0,795.0
B,L,"[4, 2]",1.0,4.0,0.2937610149383545,1.6393280029296875,0.33591148789022435,132.0,796.0
G,D,"[5, 2]",1.0,5.0,0.2934432029724121,1.5978889465332031,0.30057441158324594,132.0,797.0
Y,R,"[5, 3]",1.0,6.0,0.262376070022583,1.8629059791564941,0.5960448009624674,132.0,798.0
,,"(3, 3)",,,,,,132.0,
G,D,"[4, 3]",1.0,1.0,0.2831900119781494,2.2656009197235107,0.4456283618676795,,799.0
B,L,"[4, 2]",1.0,2.0,0.25583887100219727,1.6328530311584473,0.3786418843251834,133.0,800.0
Y,R,"[4, 3]",1.0,3.0,0.254741907119751,1.7292401790618896,0.47429024243344564,133.0,801.0
B,L,"[4, 2]",1.0,4.0,0.2724330425262451,1.606231927871704,0.330884180840951,133.0,802.0
G,D,"[5, 2]",1.0,5.0,0.2696709632873535,1.7706308364868164,0.4845487499486409,133.0,803.0
Y,R,"[5, 3]",1.0,6.0,0.2623898983001709,1.5774588584899902,0.3123070068441028,133.0,804.0
,,"(3, 3)",,,,,,133.0,
G,D,"[4, 3]",-1.0,-1.0,0.22075200080871582,2.6854360103607178,0.6308294302609687,,805.0
R,U,"[3, 3]",-2.0,-3.0,0.2456059455871582,1.5744900703430176,0.30573814655006876,134.0,806.0
Y,R,"[3, 4]",-1.0,-4.0,0.25304698944091797,1.5829169750213623,0.3218370143233605,134.0,807.0
B,L,"[3, 3]",-2.0,-6.0,0.2686469554901123,1.5410869121551514,0.2631791813394089,134.0,808.0
Y,R,"[3, 4]",-1.0,-7.0,0.25871801376342773,1.6281721591949463,0.3579177701013352,134.0,809.0
G,D,"[4, 4]",-1.0,-8.0,0.25230908393859863,1.5252809524536133,0.26669879434103777,134.0,810.0
,,"(3, 3)",,,,,,134.0,
R,U,"[2, 3]",1.0,1.0,0.2991969585418701,3.3224740028381348,0.5222515379035907,,811.0
R,U,"[1, 3]",-1.0,0.0,0.24738216400146484,1.9505701065063477,0.6892500186080838,135.0,812.0
G,D,"[2, 3]",1.0,1.0,0.22858905792236328,1.7958550453186035,0.5686053685660377,135.0,813.0
Y,R,"[2, 4]",-1.0,0.0,0.26056814193725586,1.9870672225952148,0.7222180379968339,135.0,814.0
B,L,"[2, 3]",1.0,1.0,0.21532011032104492,1.5720059871673584,0.3613876995414688,135.0,815.0
B,L,"[2, 2]",1.0,2.0,0.3815340995788574,1.731323003768921,0.35931329936957634,135.0,816.0
,,"(3, 3)",,,,,,135.0,
R,U,"[2, 3]",1.0,1.0,0.31871700286865234,3.00341796875,0.27954726912546307,,817.0
G,D,"[3, 3]",-2.0,-1.0,0.33162999153137207,1.9172148704528809,0.5797480384611823,136.0,818.0
B,L,"[3, 2]",-1.0,-2.0,0.24619817733764648,1.765383005142212,0.4952730677391123,136.0,819.0
R,U,"[2, 2]",1.0,-1.0,0.21109509468078613,1.8310258388519287,0.626272580540598,136.0,820.0
Y,R,"[2, 3]",1.0,0.0,0.3560309410095215,1.9457650184631348,0.588686096891134,136.0,821.0
Y,R,"[2, 4]",-1.0,-1.0,0.5162599086761475,2.238168954849243,0.7101422596662745,136.0,822.0
,,"(3, 3)",,,,,,136.0,
R,U,"[2, 3]",1.0,1.0,0.307758092880249,3.944521903991699,0.6713659722076053,,823.0
R,U,"[1, 3]",-1.0,0.0,0.3589770793914795,1.7091641426086426,0.34749527610936903,137.0,824.0
G,D,"[2, 3]",1.0,1.0,0.24517488479614258,1.6473729610443115,0.3949142552431494,137.0,825.0
B,L,"[2, 2]",1.0,2.0,0.2649259567260742,1.5888819694519043,0.33390950932847135,137.0,826.0
R,U,"[1, 2]",1.0,3.0,0.2831459045410156,1.8317999839782715,0.5156344033086957,137.0,827.0
B,L,"[1, 1]",1.0,4.0,0.324862003326416,1.8001830577850342,0.4824721760389616,137.0,828.0
,,"(3, 3)",,,,,,137.0,
R,U,"[2, 3]",1.0,1.0,0.36785101890563965,13.492236137390137,0.44150255439629715,,829.0
G,D,"[3, 3]",-2.0,-1.0,0.29899096488952637,1.8075461387634277,0.4990918287385262,138.0,830.0
B,L,"[3, 2]",-1.0,-2.0,0.23426294326782227,1.5305039882659912,0.2798947122488718,138.0,831.0
Y,R,"[3, 3]",-2.0,-4.0,0.23840594291687012,1.543910026550293,0.30720545896027857,138.0,832.0
R,U,"[2, 3]",1.0,-3.0,0.11274003982543945,1.5833141803741455,0.4736283068871812,138.0,833.0
R,U,"[1, 3]",-1.0,-4.0,0.17638587951660156,1.5913619995117188,0.415161074687254,138.0,834.0
,,"(3, 3)",,,,,,138.0,
R,U,"[2, 3]",1.0,1.0,0.43044400215148926,3.543354034423828,0.7249714415367722,,835.0
B,L,"[2, 2]",1.0,2.0,0.2700519561767578,1.893038034439087,0.6180252797379889,139.0,836.0
B,L,"[2, 1]",1.0,3.0,0.23059391975402832,1.5237178802490234,0.29206976880357954,139.0,837.0
R,U,"[1, 1]",1.0,4.0,0.33678197860717773,1.910937786102295,0.5694992560256633,139.0,838.0
R,U,"[0, 1]",0.0,4.0,0.38605499267578125,1.6919119358062744,0.294973517619461,139.0,839.0
B,L,"[0, 0]",0.0,4.0,0.29776692390441895,2.031752109527588,0.7430543815670966,139.0,840.0
,,"(3, 3)",,,,,,139.0,
R,U,"[2, 3]",1.0,1.0,0.37248897552490234,5.215518951416016,0.5589620955746596,,841.0
B,L,"[2, 2]",1.0,2.0,0.28794002532958984,1.9049248695373535,0.613592887991798,140.0,842.0
R,U,"[1, 2]",1.0,3.0,0.14368295669555664,1.6493620872497559,0.49647672467050397,140.0,843.0
B,L,"[1, 1]",1.0,4.0,0.231489896774292,1.5273749828338623,0.2907267092286794,140.0,844.0
Y,R,"[1, 2]",1.0,5.0,0.381058931350708,1.9534399509429932,0.5773448435016965,140.0,845.0
Y,R,"[1, 3]",-1.0,4.0,0.2749040126800537,1.6160969734191895,0.34367699527268397,140.0,846.0
,,"(3, 3)",,,,,,140.0,
R,U,"[2, 3]",1.0,1.0,0.42011284828186035,3.301759958267212,0.7450269912140128,,847.0
B,L,"[2, 2]",1.0,2.0,0.3704109191894531,1.631951093673706,0.26083963431678386,141.0,848.0
R,U,"[1, 2]",1.0,3.0,0.34116101264953613,1.8051879405975342,0.4658350057487217,141.0,849.0
B,L,"[1, 1]",1.0,4.0,0.3493959903717041,1.8590798377990723,0.5082207848713751,141.0,850.0
Y,R,"[1, 2]",1.0,5.0,0.24053692817687988,1.913290023803711,0.6712727034191496,141.0,851.0
G,D,"[2, 2]",1.0,6.0,0.2539801597595215,1.7694380283355713,0.5076202442373117,141.0,852.0
,,"(3, 3)",,,,,,141.0,
R,U,"[2, 3]",1.0,1.0,0.2762739658355713,2.810150146484375,0.6178325880496272,,853.0
B,L,"[2, 2]",1.0,2.0,0.3552820682525635,1.8456809520721436,0.4803186696272711,142.0,854.0
R,U,"[1, 2]",1.0,3.0,0.37586283683776855,1.8847928047180176,0.4984798155094108,142.0,855.0
B,L,"[1, 1]",1.0,4.0,0.28457212448120117,1.780005931854248,0.4785713439322922,142.0,856.0
Y,R,"[1, 2]",1.0,5.0,0.3471851348876953,1.8674399852752686,0.5293578030723883,142.0,857.0
G,D,"[2, 2]",1.0,6.0,0.27446699142456055,1.6943359375,0.423744216326492,142.0,858.0
,,"(3, 3)",,,,,,142.0,
R,U,"[2, 3]",1.0,1.0,0.32338404655456543,2.98848819732666,0.645350271906201,,859.0
B,L,"[2, 2]",1.0,2.0,0.4362189769744873,2.032212972640991,0.5943064915941665,143.0,860.0
R,U,"[1, 2]",1.0,3.0,0.37644100189208984,1.6553947925567627,0.283380222221703,143.0,861.0
B,L,"[1, 1]",1.0,4.0,0.5063788890838623,1.8045399188995361,0.2879272065366348,143.0,862.0
Y,R,"[1, 2]",1.0,5.0,0.2993931770324707,1.97884202003479,0.6831930705802359,143.0,863.0
G,D,"[2, 2]",1.0,6.0,0.2313399314880371,1.5520908832550049,0.31883574441283197,143.0,864.0
,,"(3, 3)",,,,,,143.0,
R,U,"[2, 3]",1.0,1.0,0.22815585136413574,3.0271530151367188,0.6793350221266694,,865.0
B,L,"[2, 2]",1.0,2.0,0.5346529483795166,1.9237349033355713,0.3864860030566375,144.0,866.0
R,U,"[1, 2]",1.0,3.0,0.2482900619506836,1.6649608612060547,0.4182272239009378,144.0,867.0
B,L,"[1, 1]",1.0,4.0,0.3296811580657959,1.7861979007720947,0.45426125052706123,144.0,868.0
Y,R,"[1, 2]",1.0,5.0,0.26834702491760254,1.952955961227417,0.6739000957066064,144.0,869.0
G,D,"[2, 2]",1.0,6.0,0.31655001640319824,1.950166940689087,0.6405896086289394,144.0,870.0
,,"(3, 3)",,,,,,144.0,
R,U,"[2, 3]",1.0,1.0,0.34436917304992676,6.303796052932739,0.5615580937463829,,871.0
B,L,"[2, 2]",1.0,2.0,0.42766404151916504,2.120527982711792,0.6983893021963404,145.0,872.0
R,U,"[1, 2]",1.0,3.0,0.35255908966064453,1.8708000183105469,0.5026856435177713,145.0,873.0
B,L,"[1, 1]",1.0,4.0,0.27577996253967285,1.58945894241333,0.3090233066873747,145.0,874.0
Y,R,"[1, 2]",1.0,5.0,0.2865869998931885,1.8894767761230469,0.598333168917274,145.0,875.0
G,D,"[2, 2]",1.0,6.0,0.22554898262023926,1.7692689895629883,0.5342744889197794,145.0,876.0
,,"(3, 3)",,,,,,145.0,
R,U,"[2, 3]",1.0,1.0,0.28418612480163574,2.957559108734131,0.3922335857117528,,877.0
B,L,"[2, 2]",1.0,2.0,0.30405092239379883,1.8736250400543213,0.5654721299361403,146.0,878.0
R,U,"[1, 2]",1.0,3.0,0.21587491035461426,1.5920419692993164,0.3744563207178043,146.0,879.0
B,L,"[1, 1]",1.0,4.0,0.306535005569458,1.8204460144042969,0.5115329636689435,146.0,880.0
Y,R,"[1, 2]",1.0,5.0,0.25025010108947754,1.8040010929107666,0.5487584730336582,146.0,881.0
G,D,"[2, 2]",1.0,6.0,0.19840002059936523,1.513650894165039,0.312572182919944,146.0,882.0
,,"(3, 3)",,,,,,146.0,
R,U,"[2, 3]",1.0,1.0,0.4340169429779053,7.467121839523315,0.7128068682930937,,883.0
B,L,"[2, 2]",1.0,2.0,0.26836299896240234,1.9485859870910645,0.6615390791719122,147.0,884.0
R,U,"[1, 2]",1.0,3.0,0.24606585502624512,1.5251860618591309,0.28714232333805706,147.0,885.0
B,L,"[1, 1]",1.0,4.0,0.39473700523376465,1.9267151355743408,0.5301221664913659,147.0,886.0
Y,R,"[1, 2]",1.0,5.0,0.21065497398376465,1.7756009101867676,0.5557917564658202,147.0,887.0
G,D,"[2, 2]",1.0,6.0,0.2620680332183838,1.8779988288879395,0.6170322006626625,147.0,888.0
,,"(3, 3)",,,,,,147.0,
R,U,"[2, 3]",1.0,1.0,0.246290922164917,2.6615149974823,0.34567004901592574,,889.0
B,L,"[2, 2]",1.0,2.0,0.31886816024780273,1.889470100402832,0.5683158080952891,148.0,890.0
R,U,"[1, 2]",1.0,3.0,0.25704216957092285,1.585252046585083,0.32051785538006133,148.0,891.0
B,L,"[1, 1]",1.0,4.0,0.3956949710845947,2.0586509704589844,0.6620477849070987,148.0,892.0
Y,R,"[1, 2]",1.0,5.0,0.3577449321746826,2.0597829818725586,0.7051875442620603,148.0,893.0
G,D,"[2, 2]",1.0,6.0,0.2290511131286621,1.9282081127166748,0.7000770711281445,148.0,894.0
,,"(3, 3)",,,,,,148.0,
R,U,"[2, 3]",1.0,1.0,0.23080706596374512,2.568898916244507,0.7023721388902421,,895.0
B,L,"[2, 2]",1.0,2.0,0.31522297859191895,1.654836893081665,0.3408819360475948,149.0,896.0
R,U,"[1, 2]",1.0,3.0,0.33320116996765137,1.6074750423431396,0.26516361277635,149.0,897.0
B,L,"[1, 1]",1.0,4.0,0.28769707679748535,2.001659870147705,0.699757749912491,149.0,898.0
Y,R,"[1, 2]",1.0,5.0,0.21967291831970215,1.772557020187378,0.5392483450972833,149.0,899.0
G,D,"[2, 2]",1.0,6.0,0.22619295120239258,1.7196691036224365,0.4923292787794187,149.0,900.0
,,"(3, 3)",,,,,,149.0,
R,U,"[2, 3]",1.0,1.0,0.2926151752471924,2.6157379150390625,0.49135600175140376,,901.0
B,L,"[2, 2]",1.0,2.0,0.3659820556640625,1.8229010105133057,0.4476696611284815,150.0,902.0
R,U,"[1, 2]",1.0,3.0,0.35388684272766113,1.9437651634216309,0.5912239137659541,150.0,903.0
B,L,"[1, 1]",1.0,4.0,0.33149099349975586,1.8301661014556885,0.5049093666811074,150.0,904.0
Y,R,"[1, 2]",1.0,5.0,0.3794090747833252,2.1210789680480957,0.7424452563179325,150.0,905.0
G,D,"[2, 2]",1.0,6.0,0.23535919189453125,1.7745928764343262,0.5339129496112387,150.0,906.0
,,"(3, 3)",,,,,,150.0,
R,U,"[2, 3]",1.0,1.0,0.3108031749725342,2.6674227714538574,0.38498245407173076,,907.0
B,L,"[2, 2]",1.0,2.0,0.3475809097290039,1.930830955505371,0.5656642855171983,151.0,908.0
R,U,"[1, 2]",1.0,3.0,0.2724471092224121,1.8155441284179688,0.5479131790920699,151.0,909.0
B,L,"[1, 1]",1.0,4.0,0.2846970558166504,1.5902140140533447,0.28843449193026055,151.0,910.0
Y,R,"[1, 2]",1.0,5.0,0.32639193534851074,1.9502179622650146,0.6215029525513038,151.0,911.0
G,D,"[2, 2]",1.0,6.0,0.29463911056518555,1.5880959033966064,0.2934858440803171,151.0,912.0
,,"(3, 3)",,,,,,151.0,
R,U,"[2, 3]",1.0,1.0,0.3637559413909912,3.2576351165771484,0.6005749823051463,,913.0
B,L,"[2, 2]",1.0,2.0,0.3587040901184082,1.6725740432739258,0.30706220299813025,152.0,914.0
R,U,"[1, 2]",1.0,3.0,0.40807509422302246,1.6696739196777344,0.25987964283059,152.0,915.0
B,L,"[1, 1]",1.0,4.0,0.2894020080566406,1.5575010776519775,0.267667637885524,152.0,916.0
Y,R,"[1, 2]",1.0,5.0,0.3827698230743408,2.0336408615112305,0.6342822469829239,152.0,917.0
G,D,"[2, 2]",1.0,6.0,0.22757196426391602,1.8736419677734375,0.6411768476428994,152.0,918.0
,,"(3, 3)",,,,,,152.0,
R,U,"[2, 3]",1.0,1.0,0.29596900939941406,2.840852975845337,0.5822392734779677,,919.0
B,L,"[2, 2]",1.0,2.0,0.2993478775024414,2.0056231021881104,0.6876329962148937,153.0,920.0
R,U,"[1, 2]",1.0,3.0,0.3033289909362793,1.7119510173797607,0.4166559708837367,153.0,921.0
B,L,"[1, 1]",1.0,4.0,0.2804450988769531,2.021242141723633,0.73765140225193,153.0,922.0
Y,R,"[1, 2]",1.0,5.0,0.28789401054382324,1.5659170150756836,0.2705061434845974,153.0,923.0
G,D,"[2, 2]",1.0,6.0,0.3394451141357422,1.7845969200134277,0.4383479773373145,153.0,924.0
,,"(3, 3)",,,,,,153.0,
R,U,"[2, 3]",1.0,1.0,0.26950597763061523,3.0748090744018555,0.663145423063497,,925.0
B,L,"[2, 2]",1.0,2.0,0.3287510871887207,1.6829369068145752,0.34642034027085655,154.0,926.0
R,U,"[1, 2]",1.0,3.0,0.38386082649230957,1.6503760814666748,0.2634823734251128,154.0,927.0
B,L,"[1, 1]",1.0,4.0,0.3546919822692871,1.8876748085021973,0.5342372744390003,154.0,928.0
Y,R,"[1, 2]",1.0,5.0,0.234266996383667,1.9303808212280273,0.6811107895156274,154.0,929.0
G,D,"[2, 2]",1.0,6.0,0.3568708896636963,1.8250610828399658,0.45647619279361323,154.0,930.0
,,"(3, 3)",,,,,,154.0,
R,U,"[2, 3]",1.0,1.0,0.4200758934020996,2.9946389198303223,0.4347504128061753,,931.0
B,L,"[2, 2]",1.0,2.0,0.40056681632995605,1.6663048267364502,0.2511057885835705,155.0,932.0
R,U,"[1, 2]",1.0,3.0,0.3278839588165283,1.7437899112701416,0.41129201088145895,155.0,933.0
B,L,"[1, 1]",1.0,4.0,0.2517430782318115,1.6950948238372803,0.43975875226136835,155.0,934.0
Y,R,"[1, 2]",1.0,5.0,0.2426919937133789,1.7639720439910889,0.5203371297252515,155.0,935.0
G,D,"[2, 2]",1.0,6.0,0.24719500541687012,1.5843420028686523,0.3381200499291631,155.0,936.0
,,"(3, 3)",,,,,,155.0,
R,U,"[2, 3]",1.0,1.0,0.40216898918151855,3.2363979816436768,0.65772088415837,,937.0
B,L,"[2, 2]",1.0,2.0,0.3417398929595947,1.9445738792419434,0.6022806751365178,156.0,938.0
R,U,"[1, 2]",1.0,3.0,0.2805979251861572,1.9620428085327148,0.6809646111527832,156.0,939.0
B,L,"[1, 1]",1.0,4.0,0.336000919342041,1.6144118309020996,0.2625595018128442,156.0,940.0
Y,R,"[1, 2]",1.0,5.0,0.36901092529296875,2.0881850719451904,0.7336235449642708,156.0,941.0
G,D,"[2, 2]",1.0,6.0,0.29019594192504883,1.8176319599151611,0.5347738971513385,156.0,942.0
,,"(3, 3)",,,,,,156.0,
R,U,"[2, 3]",1.0,1.0,0.5113730430603027,3.071545124053955,0.28978692130708006,,943.0
B,L,"[2, 2]",1.0,2.0,0.43393397331237793,2.062490940093994,0.6188478284154771,157.0,944.0
R,U,"[1, 2]",1.0,3.0,0.2492990493774414,1.746196985244751,0.48187855258985207,157.0,945.0
B,L,"[1, 1]",1.0,4.0,0.3038768768310547,1.8374419212341309,0.5193125251535232,157.0,946.0
Y,R,"[1, 2]",1.0,5.0,0.3482351303100586,1.7995860576629639,0.4524102437664212,157.0,947.0
G,D,"[2, 2]",1.0,6.0,0.38233017921447754,1.9357938766479492,0.5547526757990129,157.0,948.0
,,"(3, 3)",,,,,,157.0,
R,U,"[2, 3]",1.0,1.0,0.5785820484161377,3.5338070392608643,0.6549864751508664,,949.0
B,L,"[2, 2]",1.0,2.0,0.43262696266174316,1.8723890781402588,0.44449068834620736,158.0,950.0
G,D,"[3, 2]",-1.0,1.0,0.3662118911743164,2.0011301040649414,0.6287355792290035,158.0,951.0
Y,R,"[3, 3]",-2.0,-1.0,0.21230816841125488,1.940316915512085,0.7355926075675969,158.0,952.0
B,L,"[3, 2]",-1.0,-2.0,0.2991218566894531,1.9842979907989502,0.6700469767197796,158.0,953.0
G,D,"[4, 2]",-1.0,-3.0,0.7580239772796631,2.3985579013824463,0.6351799752965481,158.0,954.0
,,"(3, 3)",,,,,,158.0,
R,U,"[2, 3]",1.0,1.0,0.42442893981933594,2.8770968914031982,0.3294924768698774,,955.0
B,L,"[2, 2]",1.0,2.0,0.4958360195159912,2.2132649421691895,0.7256570237098534,159.0,956.0
R,U,"[1, 2]",1.0,3.0,0.31086301803588867,1.9992599487304688,0.6917290142720884,159.0,957.0
B,L,"[1, 1]",1.0,4.0,0.2831120491027832,1.9474859237670898,0.6558790696361735,159.0,958.0
Y,R,"[1, 2]",1.0,5.0,0.30011916160583496,2.055109977722168,0.7441419122115165,159.0,959.0
G,D,"[2, 2]",1.0,6.0,0.2410590648651123,1.796273946762085,0.5572797569041992,159.0,960.0
,,"(3, 3)",,,,,,159.0,
R,U,"[2, 3]",1.0,1.0,0.4902181625366211,2.8781800270080566,0.6190047585314407,,961.0
B,L,"[2, 2]",1.0,2.0,0.42992711067199707,1.7919361591339111,0.3611934768158795,160.0,962.0
R,U,"[1, 2]",1.0,3.0,0.4457108974456787,2.0095150470733643,0.570344602503843,160.0,963.0
B,L,"[1, 1]",1.0,4.0,0.3450632095336914,1.6908011436462402,0.3447320469617826,160.0,964.0
Y,R,"[1, 2]",1.0,5.0,0.3568398952484131,1.788301944732666,0.4330719820677235,160.0,965.0
G,D,"[2, 2]",1.0,6.0,0.29909801483154297,1.7662229537963867,0.4659771512978599,160.0,966.0
,,"(3, 3)",,,,,,160.0,
R,U,"[2, 3]",1.0,1.0,0.6067209243774414,3.315653085708618,0.36501158026428826,,967.0
B,L,"[2, 2]",1.0,2.0,0.30994105339050293,1.7915809154510498,0.47331469259655773,161.0,968.0
R,U,"[1, 2]",1.0,3.0,0.2613530158996582,1.980545997619629,0.7202995070704854,161.0,969.0
B,L,"[1, 1]",1.0,4.0,0.3911130428314209,1.9500439167022705,0.5537970776785432,161.0,970.0
R,U,"[0, 1]",0.0,4.0,0.29717183113098145,1.7188780307769775,0.4228522455673672,161.0,971.0
Y,R,"[0, 2]",0.0,4.0,0.3148770332336426,1.9117329120635986,0.6009147256048205,161.0,972.0
,,"(3, 3)",,,,,,161.0,
R,U,"[2, 3]",1.0,1.0,0.2799091339111328,4.7817840576171875,0.3334941749935092,,973.0
B,L,"[2, 2]",1.0,2.0,0.337756872177124,1.6583878993988037,0.30777494888056334,162.0,974.0
R,U,"[1, 2]",1.0,3.0,0.36782217025756836,1.727982997894287,0.35296660053652906,162.0,975.0
B,L,"[1, 1]",1.0,4.0,0.34160685539245605,1.928515911102295,0.5813342188293036,162.0,976.0
Y,R,"[1, 2]",1.0,5.0,0.24028801918029785,1.9037978649139404,0.6516789087084383,162.0,977.0
G,D,"[2, 2]",1.0,6.0,0.25122499465942383,1.5321331024169922,0.2676635753162165,162.0,978.0
,,"(3, 3)",,,,,,162.0,
B,L,"[3, 2]",-1.0,-1.0,0.49274396896362305,3.2658631801605225,0.4999321680048354,,979.0
B,L,"[3, 1]",1.0,0.0,0.9414751529693604,2.2138099670410156,0.26400110388622616,163.0,980.0
R,U,"[2, 1]",1.0,1.0,0.38109397888183594,1.686640977859497,0.30058415467892907,163.0,981.0
B,L,"[2, 0]",0.0,1.0,0.30676984786987305,1.9066650867462158,0.5904243026431085,163.0,982.0
Y,R,"[2, 1]",1.0,2.0,0.2448110580444336,1.9369139671325684,0.6939248062465537,163.0,983.0
G,D,"[3, 1]",1.0,3.0,0.24756097793579102,1.6343598365783691,0.36199788388078186,163.0,984.0
,,"(3, 3)",,,,,,163.0,
R,U,"[2, 3]",1.0,1.0,0.40302085876464844,3.3949429988861084,0.7064930007473607,,985.0
B,L,"[2, 2]",1.0,2.0,0.3713409900665283,2.1228740215301514,0.7460980128042338,164.0,986.0
R,U,"[1, 2]",1.0,3.0,0.27099084854125977,1.5409221649169922,0.2541119322819099,164.0,987.0
B,L,"[1, 1]",1.0,4.0,0.35562896728515625,1.969175100326538,0.6064067835287249,164.0,988.0
Y,R,"[1, 2]",1.0,5.0,0.27007508277893066,1.7410259246826172,0.46424580743089755,164.0,989.0
G,D,"[2, 2]",1.0,6.0,0.28626203536987305,1.6564171314239502,0.3539850149810492,164.0,990.0
,,"(3, 3)",,,,,,164.0,
B,L,"[3, 2]",-1.0,-1.0,0.44623684883117676,2.862401008605957,0.28332306121826767,,991.0
B,L,"[3, 1]",1.0,0.0,0.4146149158477783,1.7100768089294434,0.276758037300171,165.0,992.0
R,U,"[2, 1]",1.0,1.0,0.23881292343139648,1.668712854385376,0.4286962744590608,165.0,993.0
B,L,"[2, 0]",0.0,1.0,0.3092498779296875,1.716552972793579,0.4119344960759706,165.0,994.0
Y,R,"[2, 1]",1.0,2.0,0.30868983268737793,1.796316146850586,0.4915006074700722,165.0,995.0
G,D,"[3, 1]",1.0,3.0,0.4524879455566406,2.1762518882751465,0.7175598365235867,165.0,996.0
,,"(3, 3)",,,,,,165.0,
R,U,"[2, 3]",1.0,1.0,0.3164989948272705,3.4984920024871826,0.7329516916055215,,997.0
B,L,"[2, 2]",1.0,2.0,0.3203389644622803,1.589181900024414,0.2559686702028376,166.0,998.0
R,U,"[1, 2]",1.0,3.0,0.4351019859313965,1.8554987907409668,0.41119503149051395,166.0,999.0
B,L,"[1, 1]",1.0,4.0,0.35819411277770996,1.9442408084869385,0.588663911702872,166.0,1000.0
Y,R,"[1, 2]",1.0,5.0,0.2854437828063965,1.8951809406280518,0.600545017560954,166.0,1001.0
G,D,"[2, 2]",1.0,6.0,0.24329805374145508,1.5233571529388428,0.2743576614304541,166.0,1002.0
,,"(3, 3)",,,,,,166.0,
R,U,"[2, 3]",1.0,1.0,0.2513730525970459,2.7828309535980225,0.5570361336701906,,1003.0
B,L,"[2, 2]",1.0,2.0,0.2592630386352539,1.6812729835510254,0.42163700223725276,167.0,1004.0
R,U,"[1, 2]",1.0,3.0,0.2980489730834961,1.580935001373291,0.2859595011437764,167.0,1005.0
B,L,"[1, 1]",1.0,4.0,0.38680005073547363,1.6676290035247803,0.27039134285217725,167.0,1006.0
Y,R,"[1, 2]",1.0,5.0,0.29525303840637207,1.5908448696136475,0.2944523208782656,167.0,1007.0
G,D,"[2, 2]",1.0,6.0,0.2969989776611328,2.0028600692749023,0.7135955997986072,167.0,1008.0
,,"(3, 3)",,,,,,167.0,
R,U,"[2, 3]",1.0,1.0,0.3778419494628906,3.5434820652008057,0.3741422477536748,,1009.0
B,L,"[2, 2]",1.0,2.0,0.35918498039245605,2.029871940612793,0.6704981817136011,168.0,1010.0
R,U,"[1, 2]",1.0,3.0,0.2769038677215576,1.5933640003204346,0.3141875959248066,168.0,1011.0
B,L,"[1, 1]",1.0,4.0,0.31195616722106934,1.9952418804168701,0.6756495579920929,168.0,1012.0
Y,R,"[1, 2]",1.0,5.0,0.26366400718688965,1.9292428493499756,0.6716054670378966,168.0,1013.0
G,D,"[2, 2]",1.0,6.0,0.28140807151794434,1.6849799156188965,0.40704334576306556,168.0,1014.0
,,"(3, 3)",,,,,,168.0,
R,U,"[2, 3]",1.0,1.0,0.27980613708496094,2.679934024810791,0.5700501897346515,,1015.0
B,L,"[2, 2]",1.0,2.0,0.35699892044067383,1.6651039123535156,0.30209593512762783,169.0,1016.0
R,U,"[1, 2]",1.0,3.0,0.2703850269317627,1.8583431243896484,0.5770539859983634,169.0,1017.0
B,L,"[1, 1]",1.0,4.0,0.6324989795684814,2.0033929347991943,0.3638893104692467,169.0,1018.0
Y,R,"[1, 2]",1.0,5.0,0.2399430274963379,1.9053339958190918,0.6522898677735598,169.0,1019.0
G,D,"[2, 2]",1.0,6.0,0.23479485511779785,1.8626940250396729,0.6150887208403413,169.0,1020.0
,,"(3, 3)",,,,,,169.0,
R,U,"[2, 3]",1.0,1.0,0.2608349323272705,2.7938361167907715,0.5257311724796332,,1021.0
B,L,"[2, 2]",1.0,2.0,0.2961080074310303,1.7945380210876465,0.5037323293017806,170.0,1022.0
R,U,"[1, 2]",1.0,3.0,0.25699615478515625,1.697493076324463,0.4346022558326041,170.0,1023.0
B,L,"[1, 1]",1.0,4.0,0.33116698265075684,1.9077861309051514,0.5756186181044839,170.0,1024.0
Y,R,"[1, 2]",1.0,5.0,0.2416689395904541,1.5267860889434814,0.2860015828188807,170.0,1025.0
G,D,"[2, 2]",1.0,6.0,0.28984808921813965,1.9416329860687256,0.6440298082094056,170.0,1026.0
,,"(3, 3)",,,,,,170.0,
R,U,"[2, 3]",1.0,1.0,0.27841806411743164,2.934335231781006,0.5286364786742258,,1027.0
B,L,"[2, 2]",1.0,2.0,0.28736209869384766,1.7157018184661865,0.4279355526711055,171.0,1028.0
R,U,"[1, 2]",1.0,3.0,0.2797119617462158,1.715552806854248,0.4432132692540298,171.0,1029.0
B,L,"[1, 1]",1.0,4.0,0.28815722465515137,1.911318063735962,0.6211079902115977,171.0,1030.0
Y,R,"[1, 2]",1.0,5.0,0.2847139835357666,1.9018499851226807,0.6060348137276196,171.0,1031.0
G,D,"[2, 2]",1.0,6.0,0.22852706909179688,1.965177059173584,0.7379437271727747,171.0,1032.0
,,"(3, 3)",,,,,,171.0,
R,U,"[2, 3]",1.0,1.0,0.3184669017791748,3.3493118286132812,0.5210725846071633,,1033.0
B,L,"[2, 2]",1.0,2.0,0.3450748920440674,1.7201309204101562,0.37449744773375443,172.0,1034.0
R,U,"[1, 2]",1.0,3.0,0.24793696403503418,1.6405320167541504,0.3985059849975706,172.0,1035.0
B,L,"[1, 1]",1.0,4.0,0.26163387298583984,1.6720049381256104,0.4035812383224315,172.0,1036.0
Y,R,"[1, 2]",1.0,5.0,0.2719299793243408,1.9273111820220947,0.6474879891235676,172.0,1037.0
G,D,"[2, 2]",1.0,6.0,0.30766916275024414,1.593677043914795,0.2748937496552561,172.0,1038.0
,,"(3, 3)",,,,,,172.0,
R,U,"[2, 3]",1.0,1.0,0.2733728885650635,2.96170711517334,0.5363516801073577,,1039.0
B,L,"[2, 2]",1.0,2.0,0.32878684997558594,1.8961939811706543,0.565913391159166,173.0,1040.0
R,U,"[1, 2]",1.0,3.0,0.30703306198120117,1.7769050598144531,0.4597536981299449,173.0,1041.0
B,L,"[1, 1]",1.0,4.0,0.2802739143371582,1.6295220851898193,0.35599462392097925,173.0,1042.0
Y,R,"[1, 2]",1.0,5.0,0.3139829635620117,1.7218670845031738,0.41113969686409124,173.0,1043.0
G,D,"[2, 2]",1.0,6.0,0.26450204849243164,1.9258570671081543,0.6699898040203573,173.0,1044.0
,,"(3, 3)",,,,,,173.0,
R,U,"[2, 3]",1.0,1.0,0.4012022018432617,3.123514175415039,0.5273868315823691,,1045.0
B,L,"[2, 2]",1.0,2.0,0.32863402366638184,1.7035129070281982,0.3808958550763257,174.0,1046.0
R,U,"[1, 2]",1.0,3.0,0.22504615783691406,1.7758760452270508,0.5398611385062291,174.0,1047.0
B,L,"[1, 1]",1.0,4.0,0.22931504249572754,1.690748929977417,0.46404150933660876,174.0,1048.0
Y,R,"[1, 2]",1.0,5.0,0.2794349193572998,1.6228461265563965,0.3371270939043418,174.0,1049.0
G,D,"[2, 2]",1.0,6.0,0.2968771457672119,1.7548460960388184,0.4584451806139393,174.0,1050.0
,,"(3, 3)",,,,,,174.0,
R,U,"[2, 3]",1.0,1.0,0.28076815605163574,2.998751163482666,0.5903937817681919,,1051.0
B,L,"[2, 2]",1.0,2.0,0.26132893562316895,1.715411901473999,0.45602580154361655,175.0,1052.0
R,U,"[1, 2]",1.0,3.0,0.2383289337158203,1.9319889545440674,0.6878438587322111,175.0,1053.0
B,L,"[1, 1]",1.0,4.0,0.23007917404174805,1.5216310024261475,0.29329938603273953,175.0,1054.0
Y,R,"[1, 2]",1.0,5.0,0.3158140182495117,1.7965748310089111,0.456422477781944,175.0,1055.0
G,D,"[2, 2]",1.0,6.0,0.27262210845947266,1.8264548778533936,0.5493359493519847,175.0,1056.0
,,"(3, 3)",,,,,,175.0,
R,U,"[2, 3]",1.0,1.0,0.277446985244751,2.674550771713257,0.357424491651013,,1057.0
B,L,"[2, 2]",1.0,2.0,0.3158390522003174,1.7646918296813965,0.43890873245575907,176.0,1058.0
R,U,"[1, 2]",1.0,3.0,0.26789307594299316,1.602522850036621,0.32476113294228215,176.0,1059.0
B,L,"[1, 1]",1.0,4.0,0.2624540328979492,1.6503570079803467,0.39175743313930933,176.0,1060.0
Y,R,"[1, 2]",1.0,5.0,0.23801708221435547,1.7232320308685303,0.4816198693958353,176.0,1061.0
G,D,"[2, 2]",1.0,6.0,0.30492591857910156,1.758754014968872,0.4404820925960595,176.0,1062.0
,,"(3, 3)",,,,,,176.0,
R,U,"[2, 3]",1.0,1.0,0.22742605209350586,2.809242010116577,0.5164361829282136,,1063.0
B,L,"[2, 2]",1.0,2.0,0.2283010482788086,1.4880969524383545,0.2546788599825467,177.0,1064.0
R,U,"[1, 2]",1.0,3.0,0.3120450973510742,1.681715965270996,0.36978655549599004,177.0,1065.0
B,L,"[1, 1]",1.0,4.0,0.24475502967834473,1.9389560222625732,0.6917083319005177,177.0,1066.0
Y,R,"[1, 2]",1.0,5.0,0.2774479389190674,1.9176750183105469,0.6427148944055119,177.0,1067.0
G,D,"[2, 2]",1.0,6.0,0.25200605392456055,1.7284228801727295,0.48800056054170793,177.0,1068.0
,,"(3, 3)",,,,,,177.0,
R,U,"[2, 3]",1.0,1.0,0.5441648960113525,3.1065847873687744,0.561457389162283,,1069.0
B,L,"[2, 2]",1.0,2.0,0.32672786712646484,1.9722349643707275,0.6500138699826048,178.0,1070.0
R,U,"[1, 2]",1.0,3.0,0.28043699264526367,1.6298301219940186,0.34688538105225813,178.0,1071.0
B,L,"[1, 1]",1.0,4.0,0.38117504119873047,1.7331030368804932,0.3466732181613886,178.0,1072.0
Y,R,"[1, 2]",1.0,5.0,0.3028569221496582,1.7610480785369873,0.44089623030920566,178.0,1073.0
G,D,"[2, 2]",1.0,6.0,0.2591238021850586,1.8025860786437988,0.5435435161315911,178.0,1074.0
,,"(3, 3)",,,,,,178.0,
R,U,"[2, 3]",1.0,1.0,0.22250819206237793,3.0341060161590576,0.7109156619674226,,1075.0
B,L,"[2, 2]",1.0,2.0,0.260753870010376,1.812082052230835,0.5563065187645411,179.0,1076.0
R,U,"[1, 2]",1.0,3.0,0.2491769790649414,1.7248589992523193,0.46472458139811756,179.0,1077.0
B,L,"[1, 1]",1.0,4.0,0.3027780055999756,1.7781522274017334,0.45952474622549566,179.0,1078.0
