button_choice,action_choice,coordinate_choice,reward,cumulative_reward,rt,total_trial_time,iti,block_n,trial_n
G,D,"[4, 3]",-2.0,0.0,2.602632999420166,4.043568134307861,0.4112009363116428,0.0,1.0
R,U,"[3, 3]",0.0,0.0,0.8799748420715332,2.1940720081329346,0.32196240970047163,0.0,2.0
R,U,"[2, 3]",-1.0,-1.0,0.8709609508514404,2.522169828414917,0.6439509937830796,0.0,3.0
B,L,"[2, 2]",1.0,0.0,0.8922119140625,2.155892848968506,0.2669345414594574,0.0,4.0
B,L,"[2, 1]",-2.0,0.0,1.0720489025115967,2.844193935394287,0.7438976157921751,0.0,5.0
Y,R,"[2, 2]",0.0,0.0,0.370574951171875,1.7023811340332031,0.3301416846846018,0.0,6.0
,,"(3, 3)",,,,,,0.0,
G,D,"[4, 3]",-1.0,-1.0,0.4742698669433594,7.84919810295105,0.6791048367334906,,7.0
G,D,"[5, 3]",-1.0,-2.0,0.46129488945007324,1.997398853302002,0.5433610679764862,1.0,8.0
B,L,"[5, 2]",-1.0,-3.0,0.522709846496582,1.9027009010314941,0.37965111473681884,1.0,9.0
B,L,"[5, 1]",-1.0,-4.0,0.6242020130157471,2.0067811012268066,0.36974103773247563,1.0,10.0
Y,R,"[5, 2]",0.0,-4.0,0.4693281650543213,2.0199790000915527,0.5396601180353044,1.0,11.0
R,U,"[4, 2]",-1.0,-5.0,0.3776869773864746,1.7062809467315674,0.3126713867872912,1.0,12.0
,,"(3, 3)",,,,,,1.0,
Y,R,"[3, 4]",-1.0,-1.0,0.6940920352935791,5.785124063491821,0.44778752641701824,,13.0
B,L,"[3, 3]",0.0,-1.0,0.3559079170227051,1.7945289611816406,0.42581990373959727,2.0,14.0
Y,R,"[3, 4]",0.0,-1.0,0.27805399894714355,1.7005128860473633,0.42631703423829115,2.0,15.0
Y,R,"[3, 5]",-1.0,-2.0,0.32573604583740234,1.9545788764953613,0.6305166636226871,2.0,16.0
B,L,"[3, 4]",0.0,-2.0,0.25029897689819336,1.895491123199463,0.6427175175758386,2.0,17.0
B,L,"[3, 3]",0.0,-2.0,0.647838830947876,2.0376579761505127,0.3975119073487967,2.0,18.0
,,"(3, 3)",,,,,,2.0,
G,D,"[4, 3]",-1.0,-1.0,0.7648658752441406,4.682265996932983,0.5962662395246301,,19.0
R,U,"[3, 3]",0.0,-1.0,0.24393010139465332,1.691180944442749,0.4376320879126609,3.0,20.0
G,D,"[4, 3]",0.0,-1.0,0.32142186164855957,1.811495065689087,0.48246648048843094,3.0,21.0
B,L,"[4, 2]",-1.0,-2.0,0.27624011039733887,1.8989930152893066,0.6147469241256593,3.0,22.0
Y,R,"[4, 3]",0.0,-2.0,0.2579340934753418,1.9753220081329346,0.7066430352241269,3.0,23.0
G,D,"[5, 3]",-1.0,-3.0,0.7574880123138428,2.0549349784851074,0.29540747766214015,3.0,24.0
,,"(3, 3)",,,,,,3.0,
R,U,"[2, 3]",-1.0,-1.0,0.9596991539001465,4.049217224121094,0.39458673304388747,,25.0
Y,R,"[2, 4]",-1.0,-2.0,0.42447996139526367,1.8597440719604492,0.4376493119239222,4.0,26.0
G,D,"[3, 4]",-1.0,-3.0,0.3129081726074219,1.995858907699585,0.6833063509892832,4.0,27.0
B,L,"[3, 3]",0.0,-3.0,0.2729959487915039,1.5954489707946777,0.3124128941433749,4.0,28.0
R,U,"[2, 3]",0.0,-3.0,0.3106811046600342,1.6627209186553955,0.35847462689491777,4.0,29.0
Y,R,"[2, 4]",0.0,-3.0,0.3133840560913086,1.9791438579559326,0.670673904157058,4.0,30.0
,,"(3, 3)",,,,,,4.0,
R,U,"[2, 3]",-1.0,-1.0,0.6904439926147461,3.3978168964385986,0.4186916590359265,,31.0
Y,R,"[2, 4]",-1.0,-2.0,0.28910303115844727,1.9529361724853516,0.6545345869832724,5.0,32.0
G,D,"[3, 4]",-1.0,-3.0,0.2930490970611572,1.7812471389770508,0.48624094226662423,5.0,33.0
B,L,"[3, 3]",0.0,-3.0,0.25487208366394043,1.8128809928894043,0.5492188307164203,5.0,34.0
B,L,"[3, 2]",1.0,-2.0,0.2862839698791504,1.888106107711792,0.5872848573430934,5.0,35.0
G,D,"[4, 2]",-2.0,-2.0,1.150871992111206,2.4464941024780273,0.26733616932175086,5.0,36.0
,,"(3, 3)",,,,,,5.0,
B,L,"[3, 2]",1.0,1.0,0.5281960964202881,3.3799829483032227,0.3142032759869817,,37.0
G,D,"[4, 2]",-1.0,0.0,0.35176897048950195,1.68320894241333,0.31401745434135053,6.0,38.0
B,L,"[4, 1]",-1.0,-1.0,0.40039896965026855,1.7337491512298584,0.31420428824078506,6.0,39.0
B,L,"[4, 0]",0.0,-1.0,0.367218017578125,1.9688420295715332,0.5829715214877675,6.0,40.0
B,L,"[4, 0]",0.0,-1.0,0.29947805404663086,1.8615620136260986,0.5611346847379215,6.0,41.0
B,L,"[4, 0]",0.0,-1.0,0.2567751407623291,1.971803903579712,0.7163002320929029,6.0,42.0
,,"(3, 3)",,,,,,6.0,
B,L,"[3, 2]",1.0,1.0,0.5945289134979248,2.931128978729248,0.747354681970973,,43.0
B,L,"[3, 1]",1.0,2.0,0.3212699890136719,1.8301889896392822,0.4945606123786645,7.0,44.0
B,L,"[3, 0]",0.0,2.0,0.33449506759643555,1.6000430583953857,0.2616310453863028,7.0,45.0
B,L,"[3, 0]",0.0,2.0,0.3785829544067383,2.042234182357788,0.6700791587593773,7.0,46.0
B,L,"[3, 0]",0.0,2.0,0.32254791259765625,2.0255038738250732,0.7121773097756882,7.0,47.0
B,L,"[3, 0]",0.0,2.0,0.2669870853424072,1.573307991027832,0.3193377938417123,7.0,48.0
,,"(3, 3)",,,,,,7.0,
B,L,"[3, 2]",1.0,1.0,0.5396699905395508,3.737067937850952,0.689286762783043,,49.0
B,L,"[3, 1]",1.0,2.0,0.27439188957214355,1.7199130058288574,0.4428248920373287,8.0,50.0
B,L,"[3, 0]",0.0,2.0,0.30075597763061523,1.5779109001159668,0.27108033220021327,8.0,51.0
B,L,"[3, 0]",0.0,2.0,0.3407161235809326,1.9863219261169434,0.6402479223206891,8.0,52.0
B,L,"[3, 0]",0.0,2.0,0.2597339153289795,1.6716949939727783,0.412151681564849,8.0,53.0
B,L,"[3, 0]",0.0,2.0,0.2536590099334717,1.923581838607788,0.6690157828338792,8.0,54.0
,,"(3, 3)",,,,,,8.0,
Y,R,"[3, 4]",-1.0,-1.0,0.8062789440155029,3.892972946166992,0.6286427596850339,,55.0
R,U,"[2, 4]",-1.0,-2.0,0.23835396766662598,1.9003651142120361,0.6623729622137171,9.0,56.0
G,D,"[3, 4]",0.0,-2.0,0.4884519577026367,1.8852291107177734,0.3979419964875508,9.0,57.0
G,D,"[4, 4]",-1.0,-3.0,0.3135509490966797,1.6993999481201172,0.3641211933656676,9.0,58.0
G,D,"[5, 4]",-1.0,-4.0,0.27353692054748535,1.723465919494629,0.43740430733089547,9.0,59.0
B,L,"[5, 3]",-1.0,-5.0,0.17592692375183105,1.6916420459747314,0.5123066274610673,9.0,60.0
,,"(3, 3)",,,,,,9.0,
B,L,"[3, 2]",1.0,1.0,0.7513761520385742,2.8427278995513916,0.27191192841038764,,61.0
B,L,"[3, 1]",1.0,2.0,0.32059788703918457,1.7917940616607666,0.4637526791044929,10.0,62.0
B,L,"[3, 0]",0.0,2.0,0.26467108726501465,1.895986795425415,0.6262376843601616,10.0,63.0
B,L,"[3, 0]",0.0,2.0,0.24765706062316895,1.8751919269561768,0.6347296949845752,10.0,64.0
B,L,"[3, 0]",0.0,2.0,0.2231431007385254,1.6950130462646484,0.46335578064693406,10.0,65.0
B,L,"[3, 0]",0.0,2.0,0.5083870887756348,2.145576000213623,0.6253291137506217,10.0,66.0
,,"(3, 3)",,,,,,10.0,
B,L,"[3, 2]",1.0,1.0,0.6699619293212891,3.121011972427368,0.5465734366410553,,67.0
B,L,"[3, 1]",1.0,2.0,0.3459630012512207,1.7532010078430176,0.3998878356812788,11.0,68.0
B,L,"[3, 0]",0.0,2.0,0.2737598419189453,2.0037519931793213,0.7199332950937352,11.0,69.0
Y,R,"[3, 1]",0.0,2.0,0.2758519649505615,1.981626033782959,0.7016874241134612,11.0,70.0
G,D,"[4, 1]",-1.0,1.0,0.2785348892211914,1.7663540840148926,0.4850506998777818,11.0,71.0
B,L,"[4, 0]",0.0,1.0,0.3410470485687256,1.6141650676727295,0.26611718845260646,11.0,72.0
,,"(3, 3)",,,,,,11.0,
B,L,"[3, 2]",1.0,1.0,0.5590190887451172,2.8919739723205566,0.45781839458201157,,73.0
B,L,"[3, 1]",1.0,2.0,0.3341350555419922,1.8237378597259521,0.48158694559558485,12.0,74.0
Y,R,"[3, 2]",0.0,2.0,0.2548198699951172,1.6609609127044678,0.3926803665379552,12.0,75.0
Y,R,"[3, 3]",0.0,2.0,0.1951160430908203,1.729706048965454,0.5389831954450472,12.0,76.0
Y,R,"[3, 4]",-1.0,1.0,0.28566694259643555,1.7428979873657227,0.4486067735764281,12.0,77.0
B,L,"[3, 3]",0.0,1.0,0.41425204277038574,2.0702600479125977,0.6521322613570923,12.0,78.0
,,"(3, 3)",,,,,,12.0,
B,L,"[3, 2]",1.0,1.0,0.5988798141479492,2.664530038833618,0.2837865101501631,,79.0
B,L,"[3, 1]",1.0,2.0,0.31148386001586914,1.663987159729004,0.3477155166067992,13.0,80.0
R,U,"[2, 1]",-2.0,2.0,1.013150930404663,2.515941858291626,0.4634326464598939,13.0,81.0
B,L,"[2, 0]",0.0,2.0,0.3053297996520996,1.749424934387207,0.4296974693943568,13.0,82.0
R,U,"[1, 0]",0.0,2.0,0.2044670581817627,1.4832971096038818,0.26307708426437965,13.0,83.0
R,U,"[0, 0]",0.0,2.0,0.36921000480651855,1.919119119644165,0.5487712570106502,13.0,84.0
,,"(3, 3)",,,,,,13.0,
B,L,"[3, 2]",1.0,1.0,0.7109570503234863,3.375741958618164,0.7406534972491707,,85.0
B,L,"[3, 1]",1.0,2.0,0.2611970901489258,1.6583302021026611,0.3996552352666142,14.0,86.0
R,U,"[2, 1]",1.0,3.0,0.3447239398956299,1.999511957168579,0.648938954214836,14.0,87.0
R,U,"[1, 1]",-1.0,2.0,0.2164459228515625,1.5704238414764404,0.336388059661941,14.0,88.0
B,L,"[1, 0]",0.0,2.0,0.30774402618408203,1.8479259014129639,0.5340596175625988,14.0,89.0
B,L,"[1, 0]",0.0,2.0,0.24607396125793457,1.846912145614624,0.5976762775019546,14.0,90.0
,,"(3, 3)",,,,,,14.0,
B,L,"[3, 2]",1.0,1.0,0.7313799858093262,4.537255048751831,0.6351959835303065,,91.0
B,L,"[3, 1]",1.0,2.0,0.2207040786743164,1.8731861114501953,0.6414726878451105,15.0,92.0
G,D,"[4, 1]",-1.0,1.0,0.14710402488708496,1.5074200630187988,0.34916600405996556,15.0,93.0
R,U,"[3, 1]",0.0,1.0,0.30844807624816895,1.9572818279266357,0.639548532834604,15.0,94.0
B,L,"[3, 0]",0.0,1.0,0.2745351791381836,2.0198848247528076,0.7425828867375923,15.0,95.0
B,L,"[3, 0]",0.0,1.0,0.38193297386169434,1.7979199886322021,0.424161226051792,15.0,96.0
,,"(3, 3)",,,,,,15.0,
B,L,"[3, 2]",1.0,1.0,0.8711059093475342,3.8828201293945312,0.4904853310378428,,97.0
B,L,"[3, 1]",1.0,2.0,0.2350618839263916,1.67149019241333,0.4286451451354908,16.0,98.0
Y,R,"[3, 2]",0.0,2.0,0.2483360767364502,1.9598650932312012,0.7215778157372081,16.0,99.0
Y,R,"[3, 3]",0.0,2.0,0.21472787857055664,1.892012119293213,0.6804117568935828,16.0,100.0
Y,R,"[3, 4]",-1.0,1.0,0.2898709774017334,1.9476969242095947,0.6448568568298074,16.0,101.0
G,D,"[4, 4]",-1.0,0.0,0.6105220317840576,2.1467220783233643,0.5415771574571369,16.0,102.0
,,"(3, 3)",,,,,,16.0,
B,L,"[3, 2]",1.0,1.0,0.7067508697509766,3.192716121673584,0.38450846217025203,,103.0
B,L,"[3, 1]",1.0,2.0,0.31369495391845703,1.9553351402282715,0.6397603712502106,17.0,104.0
R,U,"[2, 1]",1.0,3.0,0.26173996925354004,1.8489408493041992,0.5889426966725351,17.0,105.0
R,U,"[1, 1]",-1.0,2.0,0.19672298431396484,1.7265849113464355,0.5153803557145924,17.0,106.0
R,U,"[0, 1]",0.0,2.0,0.27751708030700684,1.8865671157836914,0.6017806435667463,17.0,107.0
R,U,"[0, 1]",0.0,2.0,0.2600550651550293,1.6768341064453125,0.4123534463395779,17.0,108.0
,,"(3, 3)",,,,,,17.0,
B,L,"[3, 2]",1.0,1.0,0.6131801605224609,3.234929084777832,0.5307411395403379,,109.0
B,L,"[3, 1]",1.0,2.0,0.2815840244293213,1.7306241989135742,0.4440169066037312,18.0,110.0
R,U,"[2, 1]",1.0,3.0,0.30723118782043457,1.8783400058746338,0.5893516772738905,18.0,111.0
G,D,"[3, 1]",0.0,3.0,0.2066938877105713,1.5432331562042236,0.33303571174439145,18.0,112.0
G,D,"[4, 1]",-1.0,2.0,0.27106308937072754,1.9098269939422607,0.6257615620389756,18.0,113.0
B,L,"[4, 0]",0.0,2.0,0.31200695037841797,1.856762170791626,0.5493177197095879,18.0,114.0
,,"(3, 3)",,,,,,18.0,
B,L,"[3, 2]",1.0,1.0,0.6368920803070068,3.4751029014587402,0.6410041404017859,,115.0
B,L,"[3, 1]",1.0,2.0,0.27967309951782227,1.6776888370513916,0.4022911271405073,19.0,116.0
R,U,"[2, 1]",1.0,3.0,0.505579948425293,2.2558159828186035,0.741144992253362,19.0,117.0
Y,R,"[2, 2]",1.0,4.0,0.1416780948638916,1.5686380863189697,0.42684541333849974,19.0,118.0
Y,R,"[2, 3]",-1.0,3.0,0.43012285232543945,2.0892300605773926,0.6491911368548888,19.0,119.0
B,L,"[2, 2]",0.0,3.0,0.5629651546478271,2.0146450996398926,0.44739832779235006,19.0,120.0
,,"(3, 3)",,,,,,19.0,
B,L,"[3, 2]",1.0,1.0,0.8715169429779053,3.3372750282287598,0.3846571609769432,,121.0
B,L,"[3, 1]",1.0,2.0,0.32010984420776367,2.0732600688934326,0.7410160123590215,20.0,122.0
R,U,"[2, 1]",1.0,3.0,0.6395189762115479,1.9897711277008057,0.34794493735667603,20.0,123.0
Y,R,"[2, 2]",1.0,4.0,0.3757481575012207,1.9888060092926025,0.6031602743493821,20.0,124.0
G,D,"[3, 2]",0.0,4.0,0.3071560859680176,1.9655799865722656,0.6520895665005221,20.0,125.0
G,D,"[4, 2]",-1.0,3.0,0.430635929107666,1.9153599739074707,0.467607134617278,20.0,126.0
,,"(3, 3)",,,,,,20.0,
B,L,"[3, 2]",1.0,1.0,0.532634973526001,3.150925874710083,0.6687346955540645,,127.0
B,L,"[3, 1]",1.0,2.0,0.28321385383605957,1.6704940795898438,0.3725539702858214,21.0,128.0
R,U,"[2, 1]",1.0,3.0,0.3014819622039795,1.826585054397583,0.5156066562826407,21.0,129.0
Y,R,"[2, 2]",1.0,4.0,0.2332160472869873,1.9815318584442139,0.7304089515671939,21.0,130.0
Y,R,"[2, 3]",-1.0,3.0,0.2400670051574707,1.6578168869018555,0.40518517594733006,21.0,131.0
B,L,"[2, 2]",0.0,3.0,0.40308094024658203,2.123009204864502,0.7113162218213682,21.0,132.0
,,"(3, 3)",,,,,,21.0,
B,L,"[3, 2]",1.0,1.0,0.7295851707458496,3.268688917160034,0.3137851739475603,,133.0
B,L,"[3, 1]",1.0,2.0,0.29033684730529785,1.7269530296325684,0.4240034934526305,22.0,134.0
R,U,"[2, 1]",1.0,3.0,0.3127279281616211,1.713757038116455,0.4044809545108821,22.0,135.0
Y,R,"[2, 2]",1.0,4.0,0.26603078842163086,1.6451201438903809,0.3829294312361815,22.0,136.0
R,U,"[1, 2]",1.0,5.0,0.1822061538696289,1.4714958667755127,0.27125939269869165,22.0,137.0
R,U,"[0, 2]",0.0,5.0,0.6424529552459717,2.2810330390930176,0.6351622987629781,22.0,138.0
,,"(3, 3)",,,,,,22.0,
B,L,"[3, 2]",1.0,1.0,0.6538290977478027,3.1301589012145996,0.565564233257867,,139.0
B,L,"[3, 1]",1.0,2.0,0.23210787773132324,1.9483180046081543,0.6971260737458649,23.0,140.0
Y,R,"[3, 2]",0.0,2.0,0.5380759239196777,2.2467079162597656,0.6937260750678118,23.0,141.0
Y,R,"[3, 3]",-2.0,2.0,1.2138419151306152,2.880417823791504,0.6408699939693676,23.0,142.0
Y,R,"[3, 4]",-1.0,1.0,0.2716219425201416,1.9246737957000732,0.6490209935077269,23.0,143.0
B,L,"[3, 3]",0.0,1.0,0.4715280532836914,1.7573938369750977,0.2735984563788634,23.0,144.0
,,"(3, 3)",,,,,,23.0,
B,L,"[3, 2]",1.0,1.0,0.6106579303741455,3.0932319164276123,0.3503334543906529,,145.0
B,L,"[3, 1]",1.0,2.0,0.3314027786254883,1.9313771724700928,0.5981891923400637,24.0,146.0
R,U,"[2, 1]",1.0,3.0,0.27039599418640137,1.8806569576263428,0.5953661164718764,24.0,147.0
Y,R,"[2, 2]",-1.0,3.0,0.033538103103637695,5.628961801528931,0.4744838522703593,24.0,148.0
Y,R,"[2, 3]",-1.0,2.0,0.8035461902618408,2.111901044845581,0.3032951669351116,24.0,149.0
B,L,"[2, 2]",0.0,2.0,0.5808138847351074,1.9816370010375977,0.40139508552428216,24.0,150.0
,,"(3, 3)",,,,,,24.0,
B,L,"[3, 2]",1.0,1.0,0.6265950202941895,3.3446950912475586,0.7457971942955152,,151.0
B,L,"[3, 1]",1.0,2.0,0.2678561210632324,1.8189451694488525,0.5317792724117238,25.0,152.0
R,U,"[2, 1]",1.0,3.0,0.2731900215148926,1.5587949752807617,0.27417805272701506,25.0,153.0
Y,R,"[2, 2]",1.0,4.0,0.3761160373687744,1.7828559875488281,0.40683778167756174,25.0,154.0
R,U,"[1, 2]",1.0,5.0,0.3288249969482422,2.0723350048065186,0.7455044116838709,25.0,155.0
G,D,"[2, 2]",0.0,5.0,0.45023417472839355,1.9973020553588867,0.5431578466565183,25.0,156.0
,,"(3, 3)",,,,,,25.0,
B,L,"[3, 2]",1.0,1.0,0.5376379489898682,3.2332570552825928,0.6595048752636619,,157.0
B,L,"[3, 1]",1.0,2.0,0.22910594940185547,1.475696086883545,0.25237718756802685,26.0,158.0
R,U,"[2, 1]",1.0,3.0,0.3729410171508789,1.8863320350646973,0.5052267409881495,26.0,159.0
Y,R,"[2, 2]",-1.0,3.0,0.04299592971801758,5.5807271003723145,0.41933481855508115,26.0,160.0
Y,R,"[2, 3]",-1.0,2.0,0.32037997245788574,2.012195110321045,0.6812563795882121,26.0,161.0
R,U,"[1, 3]",-2.0,2.0,1.6858000755310059,3.4104840755462646,0.6918491127024281,26.0,162.0
,,"(3, 3)",,,,,,26.0,
B,L,"[3, 2]",1.0,1.0,0.6114931106567383,3.0042731761932373,0.4131023358996086,,163.0
B,L,"[3, 1]",1.0,2.0,0.5063068866729736,2.0764000415802,0.5559996745800793,27.0,164.0
R,U,"[2, 1]",1.0,3.0,0.3397090435028076,1.6262569427490234,0.2826772213586469,27.0,165.0
Y,R,"[2, 2]",1.0,4.0,0.5816540718078613,2.0310678482055664,0.4135955683659473,27.0,166.0
R,U,"[1, 2]",1.0,5.0,0.26827001571655273,1.6319549083709717,0.34563564922001305,27.0,167.0
G,D,"[2, 2]",0.0,5.0,0.4497191905975342,2.0206778049468994,0.5827982575939139,27.0,168.0
,,"(3, 3)",,,,,,27.0,
B,L,"[3, 2]",1.0,1.0,0.6023139953613281,3.4221408367156982,0.5885426390842483,,169.0
B,L,"[3, 1]",1.0,2.0,0.24273991584777832,1.8290140628814697,0.5839382236661579,28.0,170.0
R,U,"[2, 1]",-1.0,2.0,0.08355498313903809,5.895840883255005,0.6632835719663668,28.0,171.0
R,U,"[1, 1]",-1.0,1.0,0.5366408824920654,2.155186176300049,0.6017168358301592,28.0,172.0
B,L,"[1, 0]",0.0,1.0,0.25492095947265625,1.8062670230865479,0.5413380712242722,28.0,173.0
Y,R,"[1, 1]",0.0,1.0,0.20787692070007324,1.8059561252593994,0.5974942473049072,28.0,174.0
,,"(3, 3)",,,,,,28.0,
B,L,"[3, 2]",1.0,1.0,0.6160471439361572,2.9893839359283447,0.4373067833766852,,175.0
B,L,"[3, 1]",1.0,2.0,0.8089780807495117,2.203148126602173,0.39021497455974813,29.0,176.0
R,U,"[2, 1]",1.0,3.0,0.6963491439819336,2.0505759716033936,0.3575791191690044,29.0,177.0
Y,R,"[2, 2]",1.0,4.0,0.6070890426635742,2.2941088676452637,0.6846549629115457,29.0,178.0
R,U,"[1, 2]",1.0,5.0,0.3593571186065674,1.9684720039367676,0.6032445760771314,29.0,179.0
Y,R,"[1, 3]",1.0,6.0,0.45074009895324707,1.7800488471984863,0.31697122972152453,29.0,180.0
,,"(3, 3)",,,,,,29.0,
B,L,"[3, 2]",1.0,1.0,0.7605838775634766,3.5766987800598145,0.6768028619852038,,181.0
B,L,"[3, 1]",1.0,2.0,0.3276948928833008,1.6067368984222412,0.28386153260064984,30.0,182.0
R,U,"[2, 1]",1.0,3.0,0.3831140995025635,1.750365972518921,0.35097164099006306,30.0,183.0
Y,R,"[2, 2]",1.0,4.0,0.2613101005554199,1.8895161151885986,0.6235005384214944,30.0,184.0
R,U,"[1, 2]",1.0,5.0,0.22887897491455078,1.5080280303955078,0.2819105661914698,30.0,185.0
Y,R,"[1, 3]",1.0,6.0,0.45712900161743164,1.7735791206359863,0.3054254768980324,30.0,186.0
,,"(3, 3)",,,,,,30.0,
B,L,"[3, 2]",1.0,1.0,0.8634450435638428,3.391094923019409,0.6628434016853806,,187.0
B,L,"[3, 1]",1.0,2.0,0.28184008598327637,1.606713056564331,0.31986617223869424,31.0,188.0
R,U,"[2, 1]",1.0,3.0,0.3247201442718506,2.0503218173980713,0.719992078148094,31.0,189.0
Y,R,"[2, 2]",1.0,4.0,0.15981793403625488,1.6344258785247803,0.47128416844044485,31.0,190.0
B,L,"[2, 1]",0.0,4.0,0.24562811851501465,1.5645627975463867,0.3194870024248678,31.0,191.0
Y,R,"[2, 2]",0.0,4.0,0.6622610092163086,2.2999579906463623,0.6356473152850479,31.0,192.0
,,"(3, 3)",,,,,,31.0,
B,L,"[3, 2]",1.0,1.0,0.6733300685882568,2.994389057159424,0.38044666456101445,,193.0
B,L,"[3, 1]",1.0,2.0,0.49341607093811035,2.150606155395508,0.6473431061305355,32.0,194.0
R,U,"[2, 1]",1.0,3.0,0.25847697257995605,1.6983718872070312,0.4294735368652194,32.0,195.0
G,D,"[3, 1]",0.0,3.0,0.3217308521270752,1.7608098983764648,0.4069702466535258,32.0,196.0
R,U,"[2, 1]",0.0,3.0,0.4404928684234619,1.8785250186920166,0.4354191896283848,32.0,197.0
R,U,"[1, 1]",-1.0,2.0,0.32338404655456543,2.009176015853882,0.6777329750821965,32.0,198.0
,,"(3, 3)",,,,,,32.0,
B,L,"[3, 2]",1.0,1.0,0.7006759643554688,3.336780071258545,0.6645212132870346,,199.0
B,L,"[3, 1]",1.0,2.0,0.2782869338989258,1.6879010200500488,0.40271544240285334,33.0,200.0
R,U,"[2, 1]",1.0,3.0,0.3282170295715332,1.850714921951294,0.5199755982246106,33.0,201.0
Y,R,"[2, 2]",1.0,4.0,0.28508901596069336,1.7799530029296875,0.48347073689385667,33.0,202.0
R,U,"[1, 2]",1.0,5.0,0.2758629322052002,1.6838469505310059,0.4007005205391924,33.0,203.0
Y,R,"[1, 3]",1.0,6.0,0.3364980220794678,2.012655019760132,0.6631400097352507,33.0,204.0
,,"(3, 3)",,,,,,33.0,
Y,R,"[3, 4]",-2.0,0.0,1.961637020111084,4.619707107543945,0.6163666214009593,,205.0
Y,R,"[3, 5]",-1.0,-1.0,0.5563499927520752,1.9429881572723389,0.3762603427312464,34.0,206.0
R,U,"[2, 5]",-2.0,-1.0,1.3182270526885986,2.652556896209717,0.31226466915623424,34.0,207.0
R,U,"[1, 5]",-1.0,-2.0,0.4222378730773926,1.9276859760284424,0.5061673250688614,34.0,208.0
G,D,"[2, 5]",0.0,-2.0,0.4939420223236084,1.7795250415802002,0.2860876694634113,34.0,209.0
G,D,"[3, 5]",0.0,-2.0,0.8196442127227783,2.391469955444336,0.5773736495795494,34.0,210.0
,,"(3, 3)",,,,,,34.0,
B,L,"[3, 2]",1.0,1.0,0.82828688621521,3.494588851928711,0.6886778822199571,,211.0
B,L,"[3, 1]",1.0,2.0,0.39450812339782715,1.9136481285095215,0.5191848869959956,35.0,212.0
R,U,"[2, 1]",1.0,3.0,0.302919864654541,1.648026943206787,0.3339686724288683,35.0,213.0
Y,R,"[2, 2]",1.0,4.0,0.3124082088470459,1.9181439876556396,0.6020042959283164,35.0,214.0
R,U,"[1, 2]",1.0,5.0,0.24755001068115234,1.868053913116455,0.6199677604649322,35.0,215.0
Y,R,"[1, 3]",1.0,6.0,0.23594903945922852,1.9929649829864502,0.7461193907086463,35.0,216.0
,,"(3, 3)",,,,,,35.0,
G,D,"[4, 3]",-2.0,0.0,1.7142300605773926,8.427944898605347,0.25816745494476123,,217.0
G,D,"[5, 3]",-1.0,-1.0,0.30240893363952637,1.8818128108978271,0.5728964395063396,36.0,218.0
R,U,"[4, 3]",0.0,-1.0,0.8283059597015381,2.159785032272339,0.33286489988673423,36.0,219.0
Y,R,"[4, 4]",-1.0,-2.0,0.7226719856262207,1.9842820167541504,0.25080334895723555,36.0,220.0
B,L,"[4, 3]",0.0,-2.0,0.4883110523223877,2.2354660034179688,0.7356341209678343,36.0,221.0
B,L,"[4, 2]",-1.0,-3.0,0.2812619209289551,1.834817886352539,0.5374997988139938,36.0,222.0
,,"(3, 3)",,,,,,36.0,
B,L,"[3, 2]",1.0,1.0,0.6136701107025146,3.3552639484405518,0.7260448415399038,,223.0
B,L,"[3, 1]",1.0,2.0,0.3069019317626953,1.9794600009918213,0.6720653488381618,37.0,224.0
R,U,"[2, 1]",1.0,3.0,0.21884703636169434,1.7376971244812012,0.5097746197722175,37.0,225.0
Y,R,"[2, 2]",1.0,4.0,0.24843192100524902,1.983726978302002,0.7434227711413184,37.0,226.0
R,U,"[1, 2]",1.0,5.0,0.25814199447631836,1.8338379859924316,0.5774624014631737,37.0,227.0
Y,R,"[1, 3]",1.0,6.0,0.26494503021240234,1.894723892211914,0.6389512778346624,37.0,228.0
,,"(3, 3)",,,,,,37.0,
B,L,"[3, 2]",1.0,1.0,0.8670389652252197,3.3839972019195557,0.3897081317277036,,229.0
B,L,"[3, 1]",1.0,2.0,0.345660924911499,1.8724889755249023,0.5287403105930499,38.0,230.0
R,U,"[2, 1]",1.0,3.0,0.25298595428466797,1.877535104751587,0.6230195432108274,38.0,231.0
Y,R,"[2, 2]",1.0,4.0,0.27178001403808594,1.8285021781921387,0.55161773430904,38.0,232.0
R,U,"[1, 2]",1.0,5.0,0.25749993324279785,1.7388489246368408,0.47379600984874215,38.0,233.0
Y,R,"[1, 3]",1.0,6.0,0.27417516708374023,1.5751638412475586,0.2992665670448178,38.0,234.0
,,"(3, 3)",,,,,,38.0,
B,L,"[3, 2]",1.0,1.0,0.718433141708374,3.2031350135803223,0.5689552875927957,,235.0
B,L,"[3, 1]",1.0,2.0,0.4699838161468506,2.228090763092041,0.7467900724250309,39.0,236.0
R,U,"[2, 1]",1.0,3.0,0.26401495933532715,1.5548698902130127,0.2854789022941993,39.0,237.0
Y,R,"[2, 2]",1.0,4.0,0.3828728199005127,1.8253629207611084,0.4273644663018979,39.0,238.0
R,U,"[1, 2]",1.0,5.0,0.4054880142211914,2.0270581245422363,0.6209679177347104,39.0,239.0
Y,R,"[1, 3]",1.0,6.0,0.1800529956817627,1.8713219165802002,0.692203567069212,39.0,240.0
,,"(3, 3)",,,,,,39.0,
B,L,"[3, 2]",1.0,1.0,0.7338540554046631,3.0053820610046387,0.364733233913974,,241.0
B,L,"[3, 1]",1.0,2.0,0.3227541446685791,1.832839012145996,0.49748540966872223,40.0,242.0
R,U,"[2, 1]",1.0,3.0,0.26959896087646484,1.5765490531921387,0.2908013934446473,40.0,243.0
Y,R,"[2, 2]",1.0,4.0,0.47185492515563965,1.89093017578125,0.41495102889651314,40.0,244.0
R,U,"[1, 2]",1.0,5.0,0.3059089183807373,2.0346899032592773,0.7161227817885696,40.0,245.0
Y,R,"[1, 3]",1.0,6.0,0.12969589233398438,1.4090790748596191,0.27545484765591605,40.0,246.0
,,"(3, 3)",,,,,,40.0,
B,L,"[3, 2]",1.0,1.0,0.6619439125061035,3.0559351444244385,0.4650388914417326,,247.0
B,L,"[3, 1]",1.0,2.0,0.3000829219818115,1.6668920516967773,0.3486029945859163,41.0,248.0
R,U,"[2, 1]",1.0,3.0,0.3403921127319336,1.6273090839385986,0.2759950888181361,41.0,249.0
Y,R,"[2, 2]",1.0,4.0,0.28208494186401367,1.9316890239715576,0.6571657790483834,41.0,250.0
R,U,"[1, 2]",-1.0,4.0,0.08065414428710938,5.590303182601929,0.3811961264035252,41.0,251.0
B,L,"[1, 1]",-1.0,3.0,0.3130180835723877,1.9281799793243408,0.592580030413013,41.0,252.0
,,"(3, 3)",,,,,,41.0,
G,D,"[4, 3]",-2.0,0.0,1.0504047870635986,3.424410104751587,0.33391954138985624,,253.0
G,D,"[5, 3]",-1.0,-1.0,0.3262500762939453,1.74733304977417,0.4145218490023619,42.0,254.0
Y,R,"[5, 4]",-1.0,-2.0,0.35133981704711914,1.78271484375,0.4139042407649179,42.0,255.0
R,U,"[4, 4]",-1.0,-3.0,0.3559119701385498,1.944242000579834,0.5747912608090638,42.0,256.0
Y,R,"[4, 5]",-1.0,-4.0,0.24854493141174316,1.592155933380127,0.33389619360064543,42.0,257.0
B,L,"[4, 4]",0.0,-4.0,0.42356300354003906,1.6903882026672363,0.2576736488152631,42.0,258.0
,,"(3, 3)",,,,,,42.0,
B,L,"[3, 2]",1.0,1.0,0.6864969730377197,3.0796399116516113,0.4038281922239683,,259.0
B,L,"[3, 1]",1.0,2.0,0.592271089553833,1.9519598484039307,0.35594032315527113,43.0,260.0
R,U,"[2, 1]",1.0,3.0,0.3771700859069824,1.8781650066375732,0.5006481995321419,43.0,261.0
Y,R,"[2, 2]",1.0,4.0,0.27329397201538086,1.7398560047149658,0.4572576382019045,43.0,262.0
R,U,"[1, 2]",1.0,5.0,0.29356813430786133,1.832596778869629,0.5397155103052353,43.0,263.0
Y,R,"[1, 3]",1.0,6.0,0.26950502395629883,1.9421160221099854,0.6817137289932669,43.0,264.0
,,"(3, 3)",,,,,,43.0,
B,L,"[3, 2]",-2.0,0.0,1.2162578105926514,7.593235015869141,0.6083973436809214,,265.0
B,L,"[3, 1]",1.0,1.0,0.382429838180542,1.8233420848846436,0.43184975985375423,44.0,266.0
B,L,"[3, 0]",0.0,1.0,0.2393331527709961,1.7398850917816162,0.4884988424282233,44.0,267.0
R,U,"[2, 0]",0.0,1.0,0.2918519973754883,1.7597720623016357,0.4651073614888073,44.0,268.0
Y,R,"[2, 1]",1.0,2.0,0.2330949306488037,1.7717740535736084,0.519965711715703,44.0,269.0
R,U,"[1, 1]",-1.0,1.0,0.24651503562927246,1.532796859741211,0.26995226968869274,44.0,270.0
,,"(3, 3)",,,,,,44.0,
B,L,"[3, 2]",1.0,1.0,0.696692943572998,3.5582008361816406,0.6278481336618055,,271.0
B,L,"[3, 1]",1.0,2.0,0.24022483825683594,1.8711600303649902,0.632230843648345,45.0,272.0
R,U,"[2, 1]",1.0,3.0,0.2822151184082031,1.8712170124053955,0.5872012966607075,45.0,273.0
Y,R,"[2, 2]",1.0,4.0,0.24246597290039062,1.873344898223877,0.6268597163760349,45.0,274.0
R,U,"[1, 2]",1.0,5.0,0.20385980606079102,1.8919990062713623,0.702083078378291,45.0,275.0
Y,R,"[1, 3]",-1.0,5.0,0.05220794677734375,5.78549599647522,0.6045438360658811,45.0,276.0
,,"(3, 3)",,,,,,45.0,
B,L,"[3, 2]",1.0,1.0,0.8042500019073486,3.8035709857940674,0.6580432686594754,,277.0
B,L,"[3, 1]",1.0,2.0,0.21391701698303223,1.9112720489501953,0.7026908663020967,46.0,278.0
R,U,"[2, 1]",1.0,3.0,0.25334596633911133,1.9172680377960205,0.6533842648196013,46.0,279.0
Y,R,"[2, 2]",1.0,4.0,0.24674606323242188,1.8931379318237305,0.6465396842533524,46.0,280.0
R,U,"[1, 2]",1.0,5.0,0.2907710075378418,1.982576847076416,0.6790463770716979,46.0,281.0
Y,R,"[1, 3]",1.0,6.0,0.2263469696044922,1.5804319381713867,0.35995348751881073,46.0,282.0
,,"(3, 3)",,,,,,46.0,
B,L,"[3, 2]",1.0,1.0,0.8367969989776611,3.8401670455932617,0.5998753408101298,,283.0
B,L,"[3, 1]",1.0,2.0,0.2083909511566162,1.9110360145568848,0.6941570878509635,47.0,284.0
R,U,"[2, 1]",1.0,3.0,0.23505902290344238,1.6018869876861572,0.3630648152909679,47.0,285.0
Y,R,"[2, 2]",1.0,4.0,0.43258190155029297,1.8262169361114502,0.37262055888882184,47.0,286.0
R,U,"[1, 2]",1.0,5.0,0.44182705879211426,1.9035708904266357,0.4595126646746652,47.0,287.0
Y,R,"[1, 3]",1.0,6.0,0.3081090450286865,1.589228868484497,0.28224538326792387,47.0,288.0
,,"(3, 3)",,,,,,47.0,
B,L,"[3, 2]",1.0,1.0,0.6321511268615723,3.318427801132202,0.5174637790513902,,289.0
B,L,"[3, 1]",1.0,2.0,0.2504580020904541,1.6941969394683838,0.42846276718200027,48.0,290.0
R,U,"[2, 1]",1.0,3.0,0.3112180233001709,1.9232151508331299,0.6179224888855046,48.0,291.0
Y,R,"[2, 2]",1.0,4.0,0.2268209457397461,1.7094910144805908,0.47748420358469823,48.0,292.0
R,U,"[1, 2]",1.0,5.0,0.26405787467956543,1.7068889141082764,0.4512690460586467,48.0,293.0
Y,R,"[1, 3]",1.0,6.0,0.17846107482910156,1.759009838104248,0.576829970136442,48.0,294.0
,,"(3, 3)",,,,,,48.0,
B,L,"[3, 2]",1.0,1.0,0.4889500141143799,3.6397650241851807,0.6998625319824214,,295.0
B,L,"[3, 1]",1.0,2.0,0.18442797660827637,1.516969919204712,0.31724713224636986,49.0,296.0
R,U,"[2, 1]",1.0,3.0,0.3908240795135498,1.9204249382019043,0.5207789377760808,49.0,297.0
Y,R,"[2, 2]",1.0,4.0,0.26824307441711426,1.7282748222351074,0.44920439330878076,49.0,298.0
R,U,"[1, 2]",1.0,5.0,0.3959670066833496,2.021962881088257,0.6208551524721604,49.0,299.0
Y,R,"[1, 3]",1.0,6.0,0.23142600059509277,1.9760849475860596,0.7302526327889935,49.0,300.0
,,"(3, 3)",,,,,,49.0,
B,L,"[3, 2]",1.0,1.0,0.6179630756378174,3.5505599975585938,0.6476410350378987,,301.0
B,L,"[3, 1]",1.0,2.0,0.2680931091308594,1.9863851070404053,0.7173646229264601,50.0,302.0
R,U,"[2, 1]",1.0,3.0,0.2589080333709717,1.5542221069335938,0.28853628911658463,50.0,303.0
Y,R,"[2, 2]",1.0,4.0,0.3820030689239502,1.680232048034668,0.3021474046217028,50.0,304.0
R,U,"[1, 2]",1.0,5.0,0.29869914054870605,2.034008026123047,0.7358574655869423,50.0,305.0
Y,R,"[1, 3]",-1.0,5.0,0.025330066680908203,5.4061009883880615,0.2591362851409203,50.0,306.0
,,"(3, 3)",,,,,,50.0,
B,L,"[3, 2]",1.0,1.0,0.5429279804229736,3.5258989334106445,0.6514012076974576,,307.0
B,L,"[3, 1]",1.0,2.0,0.22755908966064453,1.8895559310913086,0.657587364402898,51.0,308.0
R,U,"[2, 1]",1.0,3.0,0.28818607330322266,1.7332561016082764,0.4411117956696139,51.0,309.0
Y,R,"[2, 2]",1.0,4.0,0.3651118278503418,1.9097959995269775,0.5508916856788028,51.0,310.0
R,U,"[1, 2]",1.0,5.0,0.40433192253112793,1.9708030223846436,0.5549956980686432,51.0,311.0
Y,R,"[1, 3]",1.0,6.0,0.2608039379119873,1.9700839519500732,0.7082226087931021,51.0,312.0
,,"(3, 3)",,,,,,51.0,
B,L,"[3, 2]",1.0,1.0,0.619110107421875,3.283849000930786,0.4422980481930684,,313.0
B,L,"[3, 1]",1.0,2.0,0.33986997604370117,1.6810188293457031,0.340168526203193,52.0,314.0
R,U,"[2, 1]",1.0,3.0,0.3227269649505615,1.8913979530334473,0.5647078589873639,52.0,315.0
Y,R,"[2, 2]",1.0,4.0,0.37061095237731934,2.003000020980835,0.6178032570126328,52.0,316.0
R,U,"[1, 2]",1.0,5.0,0.5127010345458984,1.858471155166626,0.34329969737768884,52.0,317.0
Y,R,"[1, 3]",1.0,6.0,0.5207488536834717,2.0161330699920654,0.49253786567749447,52.0,318.0
,,"(3, 3)",,,,,,52.0,
B,L,"[3, 2]",1.0,1.0,0.6006300449371338,3.2461509704589844,0.42211824407559273,,319.0
B,L,"[3, 1]",1.0,2.0,0.286409854888916,1.7950820922851562,0.5004788600329342,53.0,320.0
R,U,"[2, 1]",1.0,3.0,0.2856287956237793,1.8834941387176514,0.600529069026631,53.0,321.0
Y,R,"[2, 2]",1.0,4.0,0.2602200508117676,1.9448540210723877,0.6953413938570225,53.0,322.0
R,U,"[1, 2]",1.0,5.0,0.2766408920288086,1.7728769779205322,0.5019240210020681,53.0,323.0
Y,R,"[1, 3]",1.0,6.0,0.24788999557495117,1.6691699028015137,0.42112141396471636,53.0,324.0
,,"(3, 3)",,,,,,53.0,
B,L,"[3, 2]",1.0,1.0,0.6528089046478271,3.3263189792633057,0.44746310053230826,,325.0
B,L,"[3, 1]",1.0,2.0,0.4235570430755615,1.934056043624878,0.49811334796417056,54.0,326.0
R,U,"[2, 1]",1.0,3.0,0.32331013679504395,1.7194430828094482,0.38438715578050675,54.0,327.0
Y,R,"[2, 2]",1.0,4.0,0.31777000427246094,1.8720951080322266,0.5397076528964312,54.0,328.0
R,U,"[1, 2]",1.0,5.0,0.2310340404510498,1.5271830558776855,0.300450180735311,54.0,329.0
Y,R,"[1, 3]",1.0,6.0,0.2849581241607666,1.8695251941680908,0.5698327692629328,54.0,330.0
,,"(3, 3)",,,,,,54.0,
B,L,"[3, 2]",1.0,1.0,0.5547099113464355,3.901326894760132,0.27145665874688546,,331.0
B,L,"[3, 1]",1.0,2.0,0.3634369373321533,1.7917819023132324,0.4297809132347037,55.0,332.0
R,U,"[2, 1]",1.0,3.0,0.3533639907836914,1.9133119583129883,0.5431066636824695,55.0,333.0
Y,R,"[2, 2]",1.0,4.0,0.270427942276001,1.6651229858398438,0.39164919562175593,55.0,334.0
R,U,"[1, 2]",1.0,5.0,0.427933931350708,1.8793718814849854,0.4543999948893021,55.0,335.0
Y,R,"[1, 3]",1.0,6.0,0.3276078701019287,2.032655954360962,0.7033908828186608,55.0,336.0
,,"(3, 3)",,,,,,55.0,
B,L,"[3, 2]",1.0,1.0,0.520272970199585,9.006113052368164,0.6429482310689387,,337.0
B,L,"[3, 1]",1.0,2.0,0.22266697883605957,1.7440030574798584,0.5204777903838699,56.0,338.0
R,U,"[2, 1]",1.0,3.0,0.5313239097595215,2.015673875808716,0.4863873608011639,56.0,339.0
Y,R,"[2, 2]",1.0,4.0,0.3251359462738037,1.7747550010681152,0.4443997234877401,56.0,340.0
R,U,"[1, 2]",1.0,5.0,0.33573317527770996,2.071690082550049,0.732462401733647,56.0,341.0
Y,R,"[1, 3]",1.0,6.0,0.1724109649658203,1.8117311000823975,0.6276988992435197,56.0,342.0
,,"(3, 3)",,,,,,56.0,
B,L,"[3, 2]",1.0,1.0,0.8903110027313232,4.079560041427612,0.7240039040628543,,343.0
B,L,"[3, 1]",1.0,2.0,0.23913908004760742,1.8786630630493164,0.6360922391547816,57.0,344.0
R,U,"[2, 1]",1.0,3.0,0.3580129146575928,1.9189119338989258,0.5549986106138194,57.0,345.0
Y,R,"[2, 2]",1.0,4.0,0.3553140163421631,1.973249912261963,0.6115158462678086,57.0,346.0
R,U,"[1, 2]",1.0,5.0,0.4927341938018799,1.9755098819732666,0.4871895218254316,57.0,347.0
Y,R,"[1, 3]",1.0,6.0,0.3336050510406494,2.0685231685638428,0.7221585269100841,57.0,348.0
,,"(3, 3)",,,,,,57.0,
B,L,"[3, 2]",1.0,1.0,0.6225371360778809,3.625298023223877,0.6310154141975616,,349.0
B,L,"[3, 1]",1.0,2.0,0.24459409713745117,1.6376330852508545,0.38573605288723783,58.0,350.0
R,U,"[2, 1]",1.0,3.0,0.3693089485168457,1.764549970626831,0.3836172231641407,58.0,351.0
Y,R,"[2, 2]",1.0,4.0,0.2839210033416748,1.665902853012085,0.3661393890148435,58.0,352.0
R,U,"[1, 2]",1.0,5.0,0.3191111087799072,1.7630150318145752,0.4291919884889875,58.0,353.0
Y,R,"[1, 3]",1.0,6.0,0.32722902297973633,1.9700188636779785,0.6489299663536036,58.0,354.0
,,"(3, 3)",,,,,,58.0,
B,L,"[3, 2]",1.0,1.0,0.5774350166320801,4.051810026168823,0.5675516217877817,,355.0
B,L,"[3, 1]",1.0,2.0,0.2581980228424072,2.002331018447876,0.7363676473600794,59.0,356.0
R,U,"[2, 1]",1.0,3.0,0.31708288192749023,1.8140859603881836,0.48415403636038484,59.0,357.0
Y,R,"[2, 2]",1.0,4.0,0.27263498306274414,1.8817551136016846,0.5990569277492905,59.0,358.0
R,U,"[1, 2]",1.0,5.0,0.2983829975128174,1.575031042098999,0.2744431364471076,59.0,359.0
Y,R,"[1, 3]",1.0,6.0,0.37461400032043457,1.768280029296875,0.392648773118924,59.0,360.0
,,"(3, 3)",,,,,,59.0,
B,L,"[3, 2]",1.0,1.0,0.7090301513671875,4.015072822570801,0.7241311305735683,,361.0
B,L,"[3, 1]",1.0,2.0,0.2995288372039795,1.5846188068389893,0.27585604842387756,60.0,362.0
R,U,"[2, 1]",1.0,3.0,0.4131450653076172,1.8529958724975586,0.4454310499498152,60.0,363.0
Y,R,"[2, 2]",1.0,4.0,0.2694079875946045,1.7107479572296143,0.43945364291087885,60.0,364.0
R,U,"[1, 2]",1.0,5.0,0.27803993225097656,1.7310900688171387,0.4539391319918508,60.0,365.0
Y,R,"[1, 3]",1.0,6.0,0.410308837890625,2.102994918823242,0.6900746223836811,60.0,366.0
,,"(3, 3)",,,,,,60.0,
B,L,"[3, 2]",1.0,1.0,0.7049210071563721,2.970662832260132,0.5609296187625686,,367.0
B,L,"[3, 1]",1.0,2.0,0.30201005935668945,1.6554479598999023,0.34995984057816615,61.0,368.0
R,U,"[2, 1]",1.0,3.0,0.5031721591949463,1.9255220890045166,0.40884297983488094,61.0,369.0
Y,R,"[2, 2]",1.0,4.0,0.4817180633544922,2.2216432094573975,0.7300699731592346,61.0,370.0
R,U,"[1, 2]",1.0,5.0,0.22029685974121094,1.5767030715942383,0.34066608479454685,61.0,371.0
Y,R,"[1, 3]",1.0,6.0,0.35985398292541504,1.9163239002227783,0.5567456079099518,61.0,372.0
,,"(3, 3)",,,,,,61.0,
B,L,"[3, 2]",1.0,1.0,0.702934980392456,4.442957878112793,0.6996153148429888,,373.0
B,L,"[3, 1]",1.0,2.0,0.2351701259613037,1.882112979888916,0.6316985753574804,62.0,374.0
R,U,"[2, 1]",1.0,3.0,0.262037992477417,1.987304925918579,0.7191176309235812,62.0,375.0
Y,R,"[2, 2]",1.0,4.0,0.2527198791503906,1.9047880172729492,0.6406037282500479,62.0,376.0
R,U,"[1, 2]",1.0,5.0,0.29878783226013184,1.7837669849395752,0.47470523378226986,62.0,377.0
Y,R,"[1, 3]",1.0,6.0,0.33852481842041016,1.9100489616394043,0.5677731032364501,62.0,378.0
,,"(3, 3)",,,,,,62.0,
B,L,"[3, 2]",1.0,1.0,0.7253060340881348,3.8833508491516113,0.717863409886412,,379.0
B,L,"[3, 1]",1.0,2.0,0.21971917152404785,1.9126389026641846,0.6804094152793598,63.0,380.0
R,U,"[2, 1]",1.0,3.0,0.5468840599060059,2.1510441303253174,0.5985303115432992,63.0,381.0
Y,R,"[2, 2]",1.0,4.0,0.2700531482696533,1.7566421031951904,0.4717483993640427,63.0,382.0
R,U,"[1, 2]",1.0,5.0,0.6502821445465088,2.370427131652832,0.7085769084467793,63.0,383.0
Y,R,"[1, 3]",1.0,6.0,0.31890010833740234,1.6599249839782715,0.3357528196603869,63.0,384.0
,,"(3, 3)",,,,,,63.0,
B,L,"[3, 2]",1.0,1.0,0.6897971630096436,3.4195921421051025,0.3554718345865667,,385.0
B,L,"[3, 1]",1.0,2.0,0.5885109901428223,2.177043914794922,0.5988976283199972,64.0,386.0
R,U,"[2, 1]",1.0,3.0,0.4462008476257324,1.797245979309082,0.34647981940942413,64.0,387.0
Y,R,"[2, 2]",1.0,4.0,0.40059494972229004,1.85709810256958,0.43685844271503055,64.0,388.0
R,U,"[1, 2]",1.0,5.0,0.3770151138305664,2.0365610122680664,0.6563383219410748,64.0,389.0
Y,R,"[1, 3]",1.0,6.0,0.2561321258544922,1.5548651218414307,0.2949865992385752,64.0,390.0
,,"(3, 3)",,,,,,64.0,
B,L,"[3, 2]",1.0,1.0,0.7017529010772705,3.080841064453125,0.7254370937976722,,391.0
B,L,"[3, 1]",1.0,2.0,0.2477412223815918,1.7423410415649414,0.5014051957001024,65.0,392.0
R,U,"[2, 1]",1.0,3.0,0.3889920711517334,1.9743750095367432,0.5756607363353405,65.0,393.0
Y,R,"[2, 2]",1.0,4.0,0.23733115196228027,1.7358582019805908,0.4950087194090006,65.0,394.0
R,U,"[1, 2]",1.0,5.0,0.45493292808532715,1.8939099311828613,0.43895414445427716,65.0,395.0
Y,R,"[1, 3]",1.0,6.0,0.3655269145965576,1.807610034942627,0.44663677576903654,65.0,396.0
,,"(3, 3)",,,,,,65.0,
B,L,"[3, 2]",1.0,1.0,0.6898338794708252,3.76883602142334,0.6320847735128223,,397.0
B,L,"[3, 1]",1.0,2.0,0.26592016220092773,1.8848321437835693,0.6003026145799512,66.0,398.0
R,U,"[2, 1]",1.0,3.0,0.40787386894226074,1.904693841934204,0.4885250264178033,66.0,399.0
Y,R,"[2, 2]",1.0,4.0,0.3227841854095459,2.0094990730285645,0.6810099110730554,66.0,400.0
R,U,"[1, 2]",1.0,5.0,0.37416505813598633,1.7785019874572754,0.393308704338039,66.0,401.0
Y,R,"[1, 3]",1.0,6.0,0.3295409679412842,1.6313471794128418,0.3081170391036308,66.0,402.0
,,"(3, 3)",,,,,,66.0,
B,L,"[3, 2]",-1.0,-1.0,0.587460994720459,3.2125048637390137,0.40394872180397956,,403.0
R,U,"[2, 2]",-2.0,-1.0,1.3727200031280518,3.0974268913269043,0.7010072175580392,67.0,404.0
G,D,"[3, 2]",-1.0,-2.0,0.4609971046447754,1.8413150310516357,0.3760895387405114,67.0,405.0
Y,R,"[3, 3]",-2.0,-4.0,0.3885791301727295,1.7600300312042236,0.3693400583555377,67.0,406.0
R,U,"[2, 3]",-1.0,-5.0,0.748945951461792,2.1341359615325928,0.3701975208526929,67.0,407.0
G,D,"[3, 3]",-2.0,-7.0,0.5625450611114502,2.2040510177612305,0.6240008782575639,67.0,408.0
,,"(3, 3)",,,,,,67.0,
R,U,"[2, 3]",-1.0,-1.0,0.7489330768585205,3.136836051940918,0.34460024567992165,,409.0
G,D,"[3, 3]",-2.0,-1.0,1.1785049438476562,2.490461826324463,0.2850070154867324,68.0,410.0
G,D,"[4, 3]",1.0,0.0,0.5026750564575195,2.2636430263519287,0.7483265990105072,68.0,411.0
G,D,"[5, 3]",1.0,1.0,0.36608195304870605,1.7580440044403076,0.37349668892496124,68.0,412.0
Y,R,"[5, 4]",-2.0,1.0,1.091257095336914,2.784162998199463,0.6573229411593144,68.0,413.0
R,U,"[4, 4]",-1.0,0.0,0.7064619064331055,1.952690839767456,0.2605327687329775,68.0,414.0
,,"(3, 3)",,,,,,68.0,
G,D,"[4, 3]",1.0,1.0,0.6608068943023682,3.772961139678955,0.583113778233041,,415.0
G,D,"[5, 3]",1.0,2.0,0.3656909465789795,1.637618064880371,0.2544265210743879,69.0,416.0
Y,R,"[5, 4]",-2.0,2.0,1.060405969619751,2.361052989959717,0.2654701554750483,69.0,417.0
R,U,"[4, 4]",-1.0,1.0,0.42467784881591797,2.153991937637329,0.7190850581370754,69.0,418.0
B,L,"[4, 3]",1.0,2.0,0.2799861431121826,2.046802043914795,0.7492524046108302,69.0,419.0
Y,R,"[4, 4]",-1.0,1.0,0.23400592803955078,1.9329540729522705,0.6822311953654794,69.0,420.0
,,"(3, 3)",,,,,,69.0,
G,D,"[4, 3]",1.0,1.0,0.8928861618041992,3.6265480518341064,0.5755482902090869,,421.0
G,D,"[5, 3]",1.0,2.0,0.28118014335632324,1.973013162612915,0.6985893623767512,70.0,422.0
B,L,"[5, 2]",1.0,3.0,0.3268420696258545,2.048962116241455,0.7142093380502162,70.0,423.0
Y,R,"[5, 3]",1.0,4.0,0.2350928783416748,1.9834229946136475,0.7310056734657921,70.0,424.0
R,U,"[4, 3]",1.0,5.0,0.21493196487426758,1.5675339698791504,0.3490235712012617,70.0,425.0
Y,R,"[4, 4]",-1.0,4.0,0.3364090919494629,1.8204779624938965,0.4692447092481727,70.0,426.0
,,"(3, 3)",,,,,,70.0,
G,D,"[4, 3]",1.0,1.0,0.7774839401245117,5.790714979171753,0.37699200771477887,,427.0
G,D,"[5, 3]",1.0,2.0,0.2814202308654785,1.9938898086547852,0.7038807807212146,71.0,428.0
B,L,"[5, 2]",1.0,3.0,0.22328996658325195,1.689234972000122,0.460075275794182,71.0,429.0
R,U,"[4, 2]",1.0,4.0,0.1811678409576416,1.932358980178833,0.7420254679489375,71.0,430.0
B,L,"[4, 1]",1.0,5.0,0.2319648265838623,1.7006950378417969,0.45985096651947227,71.0,431.0
R,U,"[3, 1]",1.0,6.0,0.6888659000396729,2.020285129547119,0.33027700629079254,71.0,432.0
,,"(3, 3)",,,,,,71.0,
G,D,"[4, 3]",1.0,1.0,0.6171360015869141,4.58604097366333,0.6491039154567867,,433.0
G,D,"[5, 3]",1.0,2.0,0.23257803916931152,1.6094119548797607,0.3756954035962602,72.0,434.0
B,L,"[5, 2]",1.0,3.0,0.30446815490722656,2.02022385597229,0.7122309409883653,72.0,435.0
R,U,"[4, 2]",1.0,4.0,0.2508409023284912,1.5437259674072266,0.2897511943586657,72.0,436.0
B,L,"[4, 1]",1.0,5.0,0.5530970096588135,2.184537172317505,0.6240068683206469,72.0,437.0
R,U,"[3, 1]",1.0,6.0,0.2638208866119385,1.9403860569000244,0.6810130490328137,72.0,438.0
,,"(3, 3)",,,,,,72.0,
G,D,"[4, 3]",1.0,1.0,0.7464470863342285,3.5061988830566406,0.537512207721889,,439.0
G,D,"[5, 3]",1.0,2.0,0.3608109951019287,1.9570410251617432,0.5945192923239255,73.0,440.0
B,L,"[5, 2]",1.0,3.0,0.4208798408508301,2.124131917953491,0.7019458533757497,73.0,441.0
R,U,"[4, 2]",1.0,4.0,0.27090001106262207,1.602660894393921,0.3216288593115332,73.0,442.0
B,L,"[4, 1]",1.0,5.0,0.43581199645996094,1.7361040115356445,0.2909899327570911,73.0,443.0
R,U,"[3, 1]",1.0,6.0,0.5215160846710205,2.1319580078125,0.6060566449040068,73.0,444.0
,,"(3, 3)",,,,,,73.0,
G,D,"[4, 3]",1.0,1.0,0.6098380088806152,4.058274984359741,0.7143739952171291,,445.0
G,D,"[5, 3]",1.0,2.0,0.23558306694030762,1.5609910488128662,0.30915377227320734,74.0,446.0
B,L,"[5, 2]",1.0,3.0,0.32851600646972656,1.7694320678710938,0.4451054536798773,74.0,447.0
R,U,"[4, 2]",1.0,4.0,0.2910158634185791,1.9806230068206787,0.6920967454560913,74.0,448.0
B,L,"[4, 1]",1.0,5.0,0.26786208152770996,1.562258005142212,0.2882727383017286,74.0,449.0
R,U,"[3, 1]",1.0,6.0,0.4551379680633545,2.17051100730896,0.7081613372055047,74.0,450.0
,,"(3, 3)",,,,,,74.0,
B,L,"[3, 2]",-1.0,-1.0,0.7265551090240479,18.01802897453308,0.7265021208824051,,451.0
G,D,"[4, 2]",1.0,0.0,0.3628220558166504,1.820037841796875,0.4470297631437995,75.0,452.0
B,L,"[4, 1]",1.0,1.0,0.10974597930908203,1.7221429347991943,0.6021649376297287,75.0,453.0
R,U,"[3, 1]",1.0,2.0,0.28147411346435547,1.6052188873291016,0.30786892899157486,75.0,454.0
B,L,"[3, 0]",0.0,2.0,0.3287060260772705,1.7871780395507812,0.4614404328869449,75.0,455.0
R,U,"[2, 0]",0.0,2.0,0.39726901054382324,1.7520380020141602,0.36361930789410885,75.0,456.0
,,"(3, 3)",,,,,,75.0,
G,D,"[4, 3]",1.0,1.0,0.9698629379272461,3.8353140354156494,0.6820929792030355,,457.0
G,D,"[5, 3]",1.0,2.0,0.23759889602661133,1.7340068817138672,0.48289791885103506,76.0,458.0
B,L,"[5, 2]",1.0,3.0,0.30034899711608887,1.5675928592681885,0.25086004567853165,76.0,459.0
R,U,"[4, 2]",1.0,4.0,0.5398130416870117,1.9062609672546387,0.3570064431953805,76.0,460.0
B,L,"[4, 1]",1.0,5.0,0.3008608818054199,1.668766975402832,0.3591164109974749,76.0,461.0
R,U,"[3, 1]",1.0,6.0,0.29232001304626465,1.9309749603271484,0.6398139210064042,76.0,462.0
,,"(3, 3)",,,,,,76.0,
G,D,"[4, 3]",1.0,1.0,0.8545119762420654,6.575690031051636,0.7321124241175233,,463.0
G,D,"[5, 3]",1.0,2.0,0.23395800590515137,1.6143860816955566,0.36363823279579727,77.0,464.0
B,L,"[5, 2]",1.0,3.0,0.27826595306396484,1.9349851608276367,0.6484689621789925,77.0,465.0
R,U,"[4, 2]",1.0,4.0,0.23880600929260254,1.6110589504241943,0.3597518589564704,77.0,466.0
B,L,"[4, 1]",1.0,5.0,0.3868598937988281,1.7667768001556396,0.37652679418921525,77.0,467.0
R,U,"[3, 1]",1.0,6.0,0.17925786972045898,1.5939319133758545,0.42043364370300546,77.0,468.0
,,"(3, 3)",,,,,,77.0,
G,D,"[4, 3]",1.0,1.0,0.6992878913879395,3.462782144546509,0.383543275893173,,469.0
G,D,"[5, 3]",1.0,2.0,0.41683197021484375,1.6903328895568848,0.25710974764771527,78.0,470.0
B,L,"[5, 2]",1.0,3.0,0.35860514640808105,1.6285300254821777,0.2689531496317283,78.0,471.0
R,U,"[4, 2]",1.0,4.0,0.2902560234069824,1.8455510139465332,0.5476561214963815,78.0,472.0
B,L,"[4, 1]",1.0,5.0,0.2022409439086914,1.4895081520080566,0.27074844632718414,78.0,473.0
R,U,"[3, 1]",1.0,6.0,0.273939847946167,1.8429489135742188,0.5633188367303502,78.0,474.0
,,"(3, 3)",,,,,,78.0,
G,D,"[4, 3]",1.0,1.0,0.466235876083374,2.916315793991089,0.5965365362289863,,475.0
G,D,"[5, 3]",1.0,2.0,0.23540496826171875,1.7705140113830566,0.5170199392478405,79.0,476.0
B,L,"[5, 2]",1.0,3.0,0.3139791488647461,1.767279863357544,0.45110986436666173,79.0,477.0
R,U,"[4, 2]",1.0,4.0,0.2873079776763916,1.7943239212036133,0.49533740274928895,79.0,478.0
B,L,"[4, 1]",1.0,5.0,0.25612592697143555,1.9270861148834229,0.6721800748647426,79.0,479.0
R,U,"[3, 1]",1.0,6.0,0.21475696563720703,1.8647520542144775,0.6539037279058141,79.0,480.0
,,"(3, 3)",,,,,,79.0,
G,D,"[4, 3]",1.0,1.0,0.7304987907409668,3.2476730346679688,0.5849693616916218,,481.0
G,D,"[5, 3]",1.0,2.0,0.2344529628753662,1.8963418006896973,0.6479770689969493,80.0,482.0
B,L,"[5, 2]",1.0,3.0,0.30121898651123047,1.6269910335540771,0.32523459245813,80.0,483.0
R,U,"[4, 2]",1.0,4.0,0.35588717460632324,1.9616320133209229,0.6032536048686076,80.0,484.0
B,L,"[4, 1]",1.0,5.0,0.3483738899230957,2.0671041011810303,0.7202542916861867,80.0,485.0
R,U,"[3, 1]",1.0,6.0,0.24839210510253906,1.9837069511413574,0.7373716458443449,80.0,486.0
,,"(3, 3)",,,,,,80.0,
G,D,"[4, 3]",1.0,1.0,0.7427771091461182,3.2768800258636475,0.680951361181188,,487.0
G,D,"[5, 3]",1.0,2.0,0.28601598739624023,1.6241710186004639,0.3222654468041226,81.0,488.0
B,L,"[5, 2]",1.0,3.0,0.4736759662628174,2.0786020755767822,0.6004592735228684,81.0,489.0
R,U,"[4, 2]",1.0,4.0,0.24206900596618652,1.8596282005310059,0.6101656811029156,81.0,490.0
B,L,"[4, 1]",1.0,5.0,0.305056095123291,1.6319260597229004,0.3258209331551919,81.0,491.0
R,U,"[3, 1]",1.0,6.0,0.34994006156921387,1.6787850856781006,0.3214022649403051,81.0,492.0
,,"(3, 3)",,,,,,81.0,
G,D,"[4, 3]",1.0,1.0,0.617171049118042,3.0705909729003906,0.608248055318626,,493.0
G,D,"[5, 3]",1.0,2.0,0.27925896644592285,1.7090399265289307,0.43420519512262745,82.0,494.0
B,L,"[5, 2]",1.0,3.0,0.3015940189361572,2.029818058013916,0.7137326782897779,82.0,495.0
R,U,"[4, 2]",1.0,4.0,0.24137401580810547,1.8024461269378662,0.5497483008649678,82.0,496.0
B,L,"[4, 1]",1.0,5.0,0.2702140808105469,1.9556770324707031,0.6718056952880849,82.0,497.0
R,U,"[3, 1]",-1.0,5.0,0.008584022521972656,5.491688966751099,0.3640568980281991,82.0,498.0
,,"(3, 3)",,,,,,82.0,
G,D,"[4, 3]",1.0,1.0,0.5325300693511963,3.678046941757202,0.2589448010484453,,499.0
G,D,"[5, 3]",1.0,2.0,0.38088417053222656,1.8608310222625732,0.4862488226614163,83.0,500.0
B,L,"[5, 2]",1.0,3.0,0.2243208885192871,1.906822919845581,0.6763352942651941,83.0,501.0
R,U,"[4, 2]",1.0,4.0,0.44437193870544434,1.7701411247253418,0.3300689576567918,83.0,502.0
B,L,"[4, 1]",1.0,5.0,0.6021308898925781,1.9118661880493164,0.29213239091597965,83.0,503.0
R,U,"[3, 1]",1.0,6.0,0.5851688385009766,2.208116054534912,0.6164939728535579,83.0,504.0
,,"(3, 3)",,,,,,83.0,
G,D,"[4, 3]",1.0,1.0,0.7956981658935547,3.6093459129333496,0.6093781037347563,,505.0
G,D,"[5, 3]",1.0,2.0,0.2925839424133301,1.8614411354064941,0.5708494846065966,84.0,506.0
B,L,"[5, 2]",1.0,3.0,0.4532620906829834,2.0095341205596924,0.5469886258156071,84.0,507.0
R,U,"[4, 2]",1.0,4.0,0.3597700595855713,2.057465076446533,0.6875457649953086,84.0,508.0
B,L,"[4, 1]",1.0,5.0,0.38654088973999023,1.7745640277862549,0.379371620013719,84.0,509.0
R,U,"[3, 1]",1.0,6.0,0.46004796028137207,1.9139549732208252,0.4598178305461423,84.0,510.0
,,"(3, 3)",,,,,,84.0,
G,D,"[4, 3]",1.0,1.0,0.606438159942627,5.000119924545288,0.3600282802241636,,511.0
G,D,"[5, 3]",1.0,2.0,0.3185098171234131,1.7482430934906006,0.42494350642836964,85.0,512.0
B,L,"[5, 2]",1.0,3.0,0.32269716262817383,1.8041579723358154,0.3958806712464028,85.0,513.0
R,U,"[4, 2]",1.0,4.0,0.28758883476257324,1.8349099159240723,0.5474444216556121,85.0,514.0
B,L,"[4, 1]",1.0,5.0,0.46456313133239746,1.9262938499450684,0.4572282771758251,85.0,515.0
R,U,"[3, 1]",1.0,6.0,0.40421605110168457,2.132086992263794,0.7222580793145882,85.0,516.0
,,"(3, 3)",,,,,,85.0,
G,D,"[4, 3]",1.0,1.0,0.809532880783081,3.565932035446167,0.588544477523055,,517.0
G,D,"[5, 3]",1.0,2.0,0.317371129989624,1.84871506690979,0.5206302622745088,86.0,518.0
B,L,"[5, 2]",1.0,3.0,0.42348694801330566,2.032381057739258,0.6028979872411699,86.0,519.0
R,U,"[4, 2]",1.0,4.0,0.2830471992492676,1.844066858291626,0.5468983681973192,86.0,520.0
B,L,"[4, 1]",1.0,5.0,0.3574960231781006,1.6658849716186523,0.2965990797678376,86.0,521.0
R,U,"[3, 1]",1.0,6.0,0.4804418087005615,1.9931159019470215,0.5060502512151315,86.0,522.0
,,"(3, 3)",,,,,,86.0,
G,D,"[4, 3]",1.0,1.0,0.6107978820800781,2.805629014968872,0.29530479378487046,,523.0
G,D,"[5, 3]",1.0,2.0,0.41431593894958496,1.7096829414367676,0.3049640234066822,87.0,524.0
B,L,"[5, 2]",1.0,3.0,0.4727480411529541,1.753605842590332,0.27532356012476,87.0,525.0
R,U,"[4, 2]",1.0,4.0,0.37979602813720703,1.708695888519287,0.33403234780013596,87.0,526.0
B,L,"[4, 1]",1.0,5.0,0.2771899700164795,1.7534921169281006,0.4707883563324589,87.0,527.0
R,U,"[3, 1]",1.0,6.0,0.1504230499267578,1.6254801750183105,0.462910528403138,87.0,528.0
,,"(3, 3)",,,,,,87.0,
G,D,"[4, 3]",1.0,1.0,0.6550757884979248,3.358772039413452,0.6048535787591067,,529.0
G,D,"[5, 3]",1.0,2.0,0.311129093170166,1.8622491359710693,0.550575672907267,88.0,530.0
B,L,"[5, 2]",1.0,3.0,0.27559804916381836,1.6109709739685059,0.3284738075367522,88.0,531.0
R,U,"[4, 2]",1.0,4.0,0.37073183059692383,1.996649980545044,0.6248432013493224,88.0,532.0
B,L,"[4, 1]",1.0,5.0,0.31952714920043945,1.6184139251708984,0.29367367836555186,88.0,533.0
R,U,"[3, 1]",1.0,6.0,0.28904199600219727,1.7676348686218262,0.4777561344571652,88.0,534.0
,,"(3, 3)",,,,,,88.0,
G,D,"[4, 3]",1.0,1.0,0.6059739589691162,3.025441884994507,0.6364083839087408,,535.0
G,D,"[5, 3]",1.0,2.0,0.2932591438293457,1.6330149173736572,0.3365166606468296,89.0,536.0
B,L,"[5, 2]",1.0,3.0,0.30101990699768066,1.7042949199676514,0.39080555885464896,89.0,537.0
R,U,"[4, 2]",1.0,4.0,0.2859981060028076,1.8110120296478271,0.518249330052591,89.0,538.0
B,L,"[4, 1]",1.0,5.0,0.23346304893493652,1.8089289665222168,0.5604270007828238,89.0,539.0
R,U,"[3, 1]",1.0,6.0,0.28447985649108887,1.8280420303344727,0.5386961552221696,89.0,540.0
,,"(3, 3)",,,,,,89.0,
G,D,"[4, 3]",1.0,1.0,0.49028706550598145,2.88075590133667,0.31962618399735426,,541.0
G,D,"[5, 3]",1.0,2.0,0.32975292205810547,1.6235401630401611,0.29322106523208247,90.0,542.0
B,L,"[5, 2]",1.0,3.0,0.36220598220825195,2.012830972671509,0.6556317556777098,90.0,543.0
R,U,"[4, 2]",-1.0,3.0,0.012104988098144531,5.846662998199463,0.7022939133416064,90.0,544.0
B,L,"[4, 1]",1.0,4.0,0.4400451183319092,1.9604270458221436,0.5130734815093767,90.0,545.0
R,U,"[3, 1]",1.0,5.0,0.38535094261169434,2.0783629417419434,0.6745998881364597,90.0,546.0
,,"(3, 3)",,,,,,90.0,
G,D,"[4, 3]",1.0,1.0,0.6191220283508301,3.8306310176849365,0.7385826625676348,,547.0
G,D,"[5, 3]",1.0,2.0,0.25931787490844727,1.7607450485229492,0.49974682027627004,91.0,548.0
B,L,"[5, 2]",1.0,3.0,0.30177903175354004,1.8626041412353516,0.5455423985480281,91.0,549.0
R,U,"[4, 2]",1.0,4.0,0.2618560791015625,1.7314550876617432,0.4771678488148048,91.0,550.0
B,L,"[4, 1]",1.0,5.0,0.5028400421142578,2.0271739959716797,0.5209016303447419,91.0,551.0
R,U,"[3, 1]",1.0,6.0,0.29648303985595703,1.5844662189483643,0.2889408124068596,91.0,552.0
,,"(3, 3)",,,,,,91.0,
G,D,"[4, 3]",1.0,1.0,0.7080068588256836,3.381195068359375,0.5699487629609292,,553.0
G,D,"[5, 3]",1.0,2.0,0.3027920722961426,1.8564460277557373,0.5431144021247143,92.0,554.0
B,L,"[5, 2]",1.0,3.0,0.2528378963470459,1.8819589614868164,0.6250687412992322,92.0,555.0
R,U,"[4, 2]",1.0,4.0,0.26573896408081055,1.7804031372070312,0.5222042443702052,92.0,556.0
B,L,"[4, 1]",1.0,5.0,0.6293580532073975,1.994232177734375,0.3666072389304659,92.0,557.0
R,U,"[3, 1]",1.0,6.0,0.5903260707855225,1.856497049331665,0.25665574926737444,92.0,558.0
,,"(3, 3)",,,,,,92.0,
G,D,"[4, 3]",1.0,1.0,0.6804227828979492,2.8198280334472656,0.3267054275545538,,559.0
G,D,"[5, 3]",1.0,2.0,0.5518770217895508,1.846662998199463,0.2897789874300428,93.0,560.0
B,L,"[5, 2]",1.0,3.0,0.3770639896392822,1.8421351909637451,0.46505690216722523,93.0,561.0
R,U,"[4, 2]",1.0,4.0,0.31999802589416504,1.8006620407104492,0.46575967010755104,93.0,562.0
B,L,"[4, 1]",1.0,5.0,0.2610659599304199,2.0072779655456543,0.7394033098452714,93.0,563.0
R,U,"[3, 1]",1.0,6.0,0.2731180191040039,1.8496370315551758,0.5726131459288044,93.0,564.0
,,"(3, 3)",,,,,,93.0,
G,D,"[4, 3]",1.0,1.0,0.6255109310150146,4.305724859237671,0.4952932615373248,,565.0
G,D,"[5, 3]",1.0,2.0,0.3185291290283203,1.969336986541748,0.6477289648572631,94.0,566.0
B,L,"[5, 2]",1.0,3.0,0.28450703620910645,1.5658941268920898,0.26414732795780227,94.0,567.0
R,U,"[4, 2]",1.0,4.0,0.5374710559844971,2.1687209606170654,0.6158618117333721,94.0,568.0
B,L,"[4, 1]",1.0,5.0,0.3108711242675781,1.6388399600982666,0.3216897286494225,94.0,569.0
R,U,"[3, 1]",1.0,6.0,0.5897350311279297,2.1909639835357666,0.5957367100440389,94.0,570.0
,,"(3, 3)",,,,,,94.0,
G,D,"[4, 3]",1.0,1.0,0.8673601150512695,13.206029176712036,0.402125579831908,,571.0
G,D,"[5, 3]",1.0,2.0,0.31617093086242676,1.6678400039672852,0.33668629925257865,95.0,572.0
B,L,"[5, 2]",1.0,3.0,0.4068448543548584,1.737138032913208,0.3238386337697744,95.0,573.0
R,U,"[4, 2]",1.0,4.0,0.40534496307373047,1.9150431156158447,0.5054609936670482,95.0,574.0
B,L,"[4, 1]",1.0,5.0,0.3447120189666748,2.071829080581665,0.7269837263058946,95.0,575.0
R,U,"[3, 1]",1.0,6.0,0.3608691692352295,1.9394781589508057,0.5834614902694637,95.0,576.0
,,"(3, 3)",,,,,,95.0,
G,D,"[4, 3]",1.0,1.0,0.7127668857574463,2.860927104949951,0.26164868955909554,,577.0
G,D,"[5, 3]",1.0,2.0,0.30515098571777344,1.7537200450897217,0.4481758521881212,96.0,578.0
B,L,"[5, 2]",1.0,3.0,0.26943302154541016,1.7686550617218018,0.48359236742765754,96.0,579.0
R,U,"[4, 2]",1.0,4.0,0.24687600135803223,1.9273431301116943,0.6773410829632402,96.0,580.0
B,L,"[4, 1]",1.0,5.0,0.2752869129180908,1.9077908992767334,0.6351349925117276,96.0,581.0
R,U,"[3, 1]",1.0,6.0,0.30081892013549805,1.8803529739379883,0.5655015617321097,96.0,582.0
,,"(3, 3)",,,,,,96.0,
G,D,"[4, 3]",1.0,1.0,0.6292619705200195,3.1213901042938232,0.40422633198646973,,583.0
G,D,"[5, 3]",1.0,2.0,0.2868928909301758,1.7166368961334229,0.42063824728314114,97.0,584.0
B,L,"[5, 2]",1.0,3.0,0.5883338451385498,2.1485469341278076,0.5523675168603739,97.0,585.0
R,U,"[4, 2]",1.0,4.0,0.36328887939453125,1.6806631088256836,0.3166080567887831,97.0,586.0
B,L,"[4, 1]",1.0,5.0,0.6270439624786377,1.9813439846038818,0.34797689530398,97.0,587.0
R,U,"[3, 1]",1.0,6.0,0.595041036605835,1.9909069538116455,0.38896775328728916,97.0,588.0
,,"(3, 3)",,,,,,97.0,
G,D,"[4, 3]",1.0,1.0,0.5830790996551514,3.129601001739502,0.7351399613952028,,589.0
G,D,"[5, 3]",1.0,2.0,0.309298038482666,1.9975061416625977,0.6826359606552663,98.0,590.0
B,L,"[5, 2]",1.0,3.0,0.5783939361572266,2.147075891494751,0.5629932284319423,98.0,591.0
R,U,"[4, 2]",1.0,4.0,0.32085609436035156,1.6219120025634766,0.28528868280254205,98.0,592.0
B,L,"[4, 1]",1.0,5.0,0.4168739318847656,1.6928861141204834,0.2615165618662772,98.0,593.0
R,U,"[3, 1]",1.0,6.0,0.48155999183654785,2.1850240230560303,0.7127255415364508,98.0,594.0
,,"(3, 3)",,,,,,98.0,
G,D,"[4, 3]",1.0,1.0,0.5664849281311035,2.8553080558776855,0.2521462053487787,,595.0
G,D,"[5, 3]",1.0,2.0,0.4206888675689697,1.7014219760894775,0.2702038005115955,99.0,596.0
B,L,"[5, 2]",1.0,3.0,0.38175010681152344,1.6688899993896484,0.28900678575174016,99.0,597.0
R,U,"[4, 2]",1.0,4.0,0.3259749412536621,1.6739320755004883,0.3461218868812662,99.0,598.0
B,L,"[4, 1]",1.0,5.0,0.18239498138427734,1.4769630432128906,0.2898571301447117,99.0,599.0
R,U,"[3, 1]",1.0,6.0,0.3741641044616699,1.8733940124511719,0.49625947184198,99.0,600.0
,,"(3, 3)",,,,,,99.0,
G,D,"[4, 3]",1.0,1.0,0.7362260818481445,2.6872501373291016,0.41731000889208175,,601.0
G,D,"[5, 3]",1.0,2.0,0.3277580738067627,1.9667460918426514,0.6336552043294368,100.0,602.0
B,L,"[5, 2]",1.0,3.0,0.293104887008667,1.9749879837036133,0.6752962646854193,100.0,603.0
R,U,"[4, 2]",1.0,4.0,0.2908329963684082,1.6806879043579102,0.38971921256938125,100.0,604.0
B,L,"[4, 1]",1.0,5.0,0.3090829849243164,1.6997978687286377,0.3894709805110598,100.0,605.0
R,U,"[3, 1]",1.0,6.0,0.33420586585998535,1.712829828262329,0.3690334213438073,100.0,606.0
,,"(3, 3)",,,,,,100.0,
G,D,"[4, 3]",1.0,1.0,0.4822680950164795,2.957413911819458,0.3764390840485965,,607.0
G,D,"[5, 3]",1.0,2.0,0.32668304443359375,1.7085611820220947,0.38505006079703413,101.0,608.0
B,L,"[5, 2]",1.0,3.0,0.3381538391113281,1.6121139526367188,0.26396376490242546,101.0,609.0
R,U,"[4, 2]",1.0,4.0,0.34446191787719727,1.9051799774169922,0.5521399088695652,101.0,610.0
B,L,"[4, 1]",1.0,5.0,0.2718820571899414,1.6195380687713623,0.3387606868514647,101.0,611.0
R,U,"[3, 1]",1.0,6.0,0.37803101539611816,1.7482359409332275,0.37017113094781473,101.0,612.0
,,"(3, 3)",,,,,,101.0,
G,D,"[4, 3]",1.0,1.0,0.4350090026855469,2.45937180519104,0.5129814642058437,,613.0
G,D,"[5, 3]",1.0,2.0,0.25546979904174805,1.8050670623779297,0.5515846353809247,102.0,614.0
B,L,"[5, 2]",1.0,3.0,0.28551602363586426,1.7796449661254883,0.497525521970865,102.0,615.0
R,U,"[4, 2]",1.0,4.0,0.3154561519622803,1.7018051147460938,0.3828253114255707,102.0,616.0
B,L,"[4, 1]",1.0,5.0,0.3464970588684082,2.077885150909424,0.7271480504166599,102.0,617.0
R,U,"[3, 1]",-1.0,5.0,0.04198098182678223,5.838058948516846,0.681893254385934,102.0,618.0
,,"(3, 3)",,,,,,102.0,
G,D,"[4, 3]",1.0,1.0,0.6298449039459229,5.240655899047852,0.5395418386206189,,619.0
G,D,"[5, 3]",1.0,2.0,0.2916748523712158,1.8404819965362549,0.5468078363974187,103.0,620.0
B,L,"[5, 2]",1.0,3.0,0.27983593940734863,1.7305259704589844,0.4439205922213708,103.0,621.0
R,U,"[4, 2]",1.0,4.0,0.2853550910949707,2.0218019485473633,0.7320828803959719,103.0,622.0
B,L,"[4, 1]",1.0,5.0,0.3099491596221924,1.9195220470428467,0.6018673288466836,103.0,623.0
R,U,"[3, 1]",1.0,6.0,0.3516359329223633,1.6619458198547363,0.2975757883121219,103.0,624.0
,,"(3, 3)",,,,,,103.0,
R,U,"[2, 3]",-1.0,-1.0,0.649420976638794,3.7223448753356934,0.6697693906967548,,625.0
G,D,"[3, 3]",-2.0,-3.0,0.4371051788330078,2.0977699756622314,0.6505575567922565,104.0,626.0
B,L,"[3, 2]",-1.0,-4.0,0.31547999382019043,1.7263150215148926,0.3939194189923049,104.0,627.0
Y,R,"[3, 3]",-2.0,-6.0,0.40662288665771484,1.6624271869659424,0.2565521578826643,104.0,628.0
R,U,"[2, 3]",-1.0,-7.0,0.5070037841796875,2.2073440551757812,0.696891653349977,104.0,629.0
B,L,"[2, 2]",-1.0,-8.0,0.9344308376312256,2.465728998184204,0.5127511914439545,104.0,630.0
,,"(3, 3)",,,,,,104.0,
B,L,"[3, 2]",-1.0,-1.0,0.700840950012207,4.212981939315796,0.3595415667854872,,631.0
Y,R,"[3, 3]",-2.0,-1.0,2.407027006149292,4.060616970062256,0.6197996068391415,105.0,632.0
Y,R,"[3, 4]",-1.0,-2.0,0.3598148822784424,1.6374859809875488,0.27417434884888353,105.0,633.0
R,U,"[2, 4]",-1.0,-3.0,0.4261770248413086,1.816709041595459,0.3909056044018673,105.0,634.0
B,L,"[2, 3]",-1.0,-4.0,0.3717358112335205,1.809142827987671,0.43339673003784734,105.0,635.0
G,D,"[3, 3]",-2.0,-6.0,0.5919439792633057,1.9548578262329102,0.3549591407728204,105.0,636.0
,,"(3, 3)",,,,,,105.0,
Y,R,"[3, 4]",-1.0,-1.0,0.28986310958862305,4.911378860473633,0.6328509966405258,,637.0
R,U,"[2, 4]",-1.0,-2.0,0.2636590003967285,1.8076980113983154,0.5406835920799313,106.0,638.0
B,L,"[2, 3]",-1.0,-3.0,0.6975851058959961,2.4182541370391846,0.7086526922638421,106.0,639.0
G,D,"[3, 3]",-2.0,-5.0,0.3221321105957031,1.781785011291504,0.4574854308489672,106.0,640.0
B,L,"[3, 2]",-1.0,-6.0,0.31264305114746094,1.64656400680542,0.3208159575511891,106.0,641.0
B,L,"[3, 1]",-2.0,-6.0,2.264775037765503,4.030448913574219,0.7341904189089388,106.0,642.0
,,"(3, 3)",,,,,,106.0,
B,L,"[3, 2]",-2.0,0.0,1.4422738552093506,3.07204008102417,0.3903120954451152,,643.0
B,L,"[3, 1]",1.0,1.0,0.7760508060455322,2.0296881198883057,0.2533041185292001,107.0,644.0
B,L,"[3, 0]",0.0,1.0,0.44673609733581543,1.928267002105713,0.4813692351302481,107.0,645.0
R,U,"[2, 0]",0.0,1.0,0.6794369220733643,2.176347017288208,0.4909896651973026,107.0,646.0
Y,R,"[2, 1]",-1.0,0.0,0.5158100128173828,2.071563959121704,0.5458185921171119,107.0,647.0
Y,R,"[2, 2]",-1.0,-1.0,0.324260950088501,1.6868231296539307,0.36620447202666573,107.0,648.0
,,"(3, 3)",,,,,,107.0,
B,L,"[3, 2]",-1.0,-1.0,0.5125210285186768,3.6864380836486816,0.4026762208253502,,649.0
B,L,"[3, 1]",-2.0,-1.0,1.0280728340148926,2.6496939659118652,0.5855283220967553,108.0,650.0
B,L,"[3, 0]",0.0,-1.0,0.3163750171661377,2.0645711421966553,0.7331907096622055,108.0,651.0
G,D,"[4, 0]",0.0,-1.0,0.2867579460144043,1.7771141529083252,0.4940402208906054,108.0,652.0
G,D,"[5, 0]",0.0,-1.0,0.9169759750366211,2.4825570583343506,0.5765154316594494,108.0,653.0
G,D,"[6, 0]",0.0,-1.0,0.33685898780822754,1.8764290809631348,0.5529709320546106,108.0,654.0
,,"(3, 3)",,,,,,108.0,
B,L,"[3, 2]",-1.0,-1.0,0.40491390228271484,2.8226101398468018,0.42589507077946837,,655.0
B,L,"[3, 1]",1.0,0.0,0.3660571575164795,1.8374559879302979,0.46332584181474334,109.0,656.0
G,D,"[4, 1]",-2.0,0.0,1.8532819747924805,3.624890089035034,0.7378295291835884,109.0,657.0
R,U,"[3, 1]",1.0,1.0,0.30437707901000977,1.8967840671539307,0.5847440574560382,109.0,658.0
Y,R,"[3, 2]",-1.0,0.0,0.7374129295349121,2.2006850242614746,0.4522424086110232,109.0,659.0
B,L,"[3, 1]",1.0,1.0,0.34658193588256836,1.740211009979248,0.37614814501251415,109.0,660.0
,,"(3, 3)",,,,,,109.0,
Y,R,"[3, 4]",-2.0,0.0,1.6649808883666992,6.219155788421631,0.7283338134326844,,661.0
B,L,"[3, 3]",-2.0,-2.0,0.37779808044433594,2.082157850265503,0.6772146145446931,110.0,662.0
B,L,"[3, 2]",-1.0,-3.0,0.846534013748169,2.279400110244751,0.4235690663864843,110.0,663.0
R,U,"[2, 2]",-1.0,-4.0,0.36223888397216797,1.7672760486602783,0.4075316551327739,110.0,664.0
B,L,"[2, 1]",-1.0,-5.0,0.7496781349182129,2.0555739402770996,0.2967126219510167,110.0,665.0
G,D,"[3, 1]",1.0,-4.0,0.5882868766784668,1.8675668239593506,0.2642343618813564,110.0,666.0
,,"(3, 3)",,,,,,110.0,
G,D,"[4, 3]",-2.0,0.0,1.8368098735809326,19.60536789894104,0.6194883179939943,,667.0
B,L,"[4, 2]",1.0,1.0,0.2970128059387207,2.0116071701049805,0.7143023651427982,111.0,668.0
R,U,"[3, 2]",-1.0,0.0,0.28862500190734863,1.9231019020080566,0.6207812217466259,111.0,669.0
G,D,"[4, 2]",1.0,1.0,0.5308921337127686,2.0110859870910645,0.465534775422674,111.0,670.0
G,D,"[5, 2]",-2.0,1.0,1.4946200847625732,2.852842092514038,0.3185595391926668,111.0,671.0
Y,R,"[5, 3]",1.0,2.0,0.3883800506591797,1.7310099601745605,0.33275441126098115,111.0,672.0
,,"(3, 3)",,,,,,111.0,
B,L,"[3, 2]",-1.0,-1.0,0.715156078338623,10.14634394645691,0.6459368518489685,,673.0
B,L,"[3, 1]",1.0,0.0,0.28312206268310547,1.9252572059631348,0.6377008398721324,112.0,674.0
G,D,"[4, 1]",1.0,1.0,0.5240418910980225,2.1099748611450195,0.581155505885274,112.0,675.0
Y,R,"[4, 2]",1.0,2.0,0.3222620487213135,1.7150139808654785,0.3795493379388345,112.0,676.0
R,U,"[3, 2]",-2.0,2.0,1.063776969909668,2.8461201190948486,0.7421615230332769,112.0,677.0
Y,R,"[3, 3]",-2.0,0.0,0.25536394119262695,1.5348379611968994,0.27742547597628897,112.0,678.0
,,"(3, 3)",,,,,,112.0,
R,U,"[2, 3]",-1.0,-1.0,0.39702606201171875,3.1197030544281006,0.6137130264762213,,679.0
B,L,"[2, 2]",-1.0,-2.0,0.27205801010131836,1.6073172092437744,0.3213104125939591,113.0,680.0
G,D,"[3, 2]",-1.0,-3.0,0.3708820343017578,1.9813179969787598,0.6023625356397824,113.0,681.0
Y,R,"[3, 3]",-2.0,-5.0,0.15280795097351074,1.8876900672912598,0.7236240521006023,113.0,682.0
Y,R,"[3, 4]",-1.0,-6.0,0.26534104347229004,1.794970989227295,0.5181826888920131,113.0,683.0
Y,R,"[3, 5]",-1.0,-7.0,0.24654912948608398,1.787437915802002,0.5390911343238383,113.0,684.0
,,"(3, 3)",,,,,,113.0,
Y,R,"[3, 4]",-1.0,-1.0,0.4614560604095459,4.99662184715271,0.6359951255565135,,685.0
B,L,"[3, 3]",-2.0,-3.0,0.23825979232788086,1.9412858486175537,0.6935086094957587,114.0,686.0
G,D,"[4, 3]",1.0,-2.0,0.3983919620513916,1.674278974533081,0.2684773292573957,114.0,687.0
Y,R,"[4, 4]",-1.0,-3.0,0.6767580509185791,2.264953136444092,0.5831383880673904,114.0,688.0
Y,R,"[4, 5]",-1.0,-4.0,0.2963700294494629,1.660742998123169,0.360712175507884,114.0,689.0
Y,R,"[4, 6]",0.0,-4.0,0.47215700149536133,1.8436181545257568,0.3711155120552513,114.0,690.0
,,"(3, 3)",,,,,,114.0,
R,U,"[2, 3]",-1.0,-1.0,0.3170459270477295,3.9065980911254883,0.42751532838082745,,691.0
G,D,"[3, 3]",-2.0,-3.0,0.5873360633850098,1.861633062362671,0.27291481218400254,115.0,692.0
G,D,"[4, 3]",1.0,-2.0,0.3408181667327881,1.6750319004058838,0.33116585615013966,115.0,693.0
Y,R,"[4, 4]",-2.0,-2.0,1.3316400051116943,2.6432440280914307,0.27448791657953325,115.0,694.0
B,L,"[4, 3]",1.0,-1.0,0.6292948722839355,1.9949250221252441,0.3693215606760383,115.0,695.0
R,U,"[3, 3]",-2.0,-1.0,1.421537160873413,2.7619071006774902,0.3148158613765775,115.0,696.0
,,"(3, 3)",,,,,,115.0,
Y,R,"[3, 4]",-1.0,-1.0,0.3914060592651367,3.605837106704712,0.43734361859946747,,697.0
G,D,"[4, 4]",-1.0,-2.0,0.300015926361084,2.02449893951416,0.7114110244322915,116.0,698.0
G,D,"[5, 4]",-1.0,-3.0,0.2454679012298584,1.5769410133361816,0.3386952757557045,116.0,699.0
G,D,"[6, 4]",0.0,-3.0,0.3961498737335205,2.0552430152893066,0.6603187140304623,116.0,700.0
Y,R,"[6, 5]",-1.0,-3.0,0.0554509162902832,5.5337231159210205,0.361230076591302,116.0,701.0
Y,R,"[6, 6]",0.0,-3.0,0.5639410018920898,2.012606143951416,0.4569992621155026,116.0,702.0
,,"(3, 3)",,,,,,116.0,
Y,R,"[3, 4]",-1.0,-1.0,0.4334549903869629,3.5016040802001953,0.5921049753615316,,703.0
G,D,"[4, 4]",-1.0,-2.0,0.2854318618774414,1.5723910331726074,0.2812236759076032,117.0,704.0
G,D,"[5, 4]",-1.0,-3.0,0.3803589344024658,2.0974791049957275,0.7116449594033232,117.0,705.0
Y,R,"[5, 5]",-1.0,-4.0,0.5019328594207764,2.167335033416748,0.6623507874784318,117.0,706.0
R,U,"[4, 5]",-1.0,-5.0,0.2602999210357666,1.8889780044555664,0.6347645663846988,117.0,707.0
G,D,"[5, 5]",-1.0,-6.0,0.45836901664733887,1.7149090766906738,0.2500613797564183,117.0,708.0
,,"(3, 3)",,,,,,117.0,
G,D,"[4, 3]",1.0,1.0,0.6874978542327881,3.5469391345977783,0.5301120200012397,,709.0
G,D,"[5, 3]",1.0,2.0,0.3189690113067627,1.7155189514160156,0.3791948532609782,118.0,710.0
Y,R,"[5, 4]",-1.0,1.0,0.390916109085083,1.9692299365997314,0.5815370009347001,118.0,711.0
Y,R,"[5, 5]",-1.0,0.0,0.2816660404205322,2.0322721004486084,0.7303268109083738,118.0,712.0
B,L,"[5, 4]",-1.0,-1.0,0.27570104598999023,1.8665881156921387,0.580458891720185,118.0,713.0
R,U,"[4, 4]",-1.0,-1.0,0.09032392501831055,5.488559007644653,0.2529069670682406,118.0,714.0
,,"(3, 3)",,,,,,118.0,
G,D,"[4, 3]",1.0,1.0,0.49933600425720215,4.575384855270386,0.6111832592425509,,715.0
G,D,"[5, 3]",1.0,2.0,0.29530811309814453,1.762394905090332,0.47383087757095577,119.0,716.0
B,L,"[5, 2]",1.0,3.0,0.2978219985961914,1.5883831977844238,0.29578011192192016,119.0,717.0
Y,R,"[5, 3]",1.0,4.0,0.36861491203308105,1.8280029296875,0.456787010621397,119.0,718.0
R,U,"[4, 3]",1.0,5.0,0.32906007766723633,1.9154760837554932,0.5888220486262605,119.0,719.0
Y,R,"[4, 4]",-1.0,4.0,0.24361085891723633,1.6861422061920166,0.4417788587632813,119.0,720.0
,,"(3, 3)",,,,,,119.0,
G,D,"[4, 3]",1.0,1.0,0.4755871295928955,10.680495023727417,0.2728380695043298,,721.0
G,D,"[5, 3]",1.0,2.0,0.31503820419311523,1.692444086074829,0.3484465136150315,120.0,722.0
B,L,"[5, 2]",1.0,3.0,0.13916802406311035,1.4025990962982178,0.25126132721400435,120.0,723.0
Y,R,"[5, 3]",1.0,4.0,0.46129798889160156,1.7890980243682861,0.32368782539492325,120.0,724.0
B,L,"[5, 2]",1.0,5.0,0.340101957321167,1.6244561672210693,0.281449128299796,120.0,725.0
Y,R,"[5, 3]",1.0,6.0,0.507720947265625,1.9779119491577148,0.4591006045635107,120.0,726.0
,,"(3, 3)",,,,,,120.0,
G,D,"[4, 3]",1.0,1.0,0.5203990936279297,6.023675203323364,0.649360993949635,,727.0
G,D,"[5, 3]",-1.0,1.0,0.05195188522338867,5.866294860839844,0.6825195855354863,121.0,728.0
B,L,"[5, 2]",1.0,2.0,0.4037590026855469,1.8332829475402832,0.416108519814699,121.0,729.0
Y,R,"[5, 3]",1.0,3.0,0.5321588516235352,1.7902250289916992,0.25643755360697745,121.0,730.0
B,L,"[5, 2]",1.0,4.0,0.4511549472808838,1.999312162399292,0.538808044691179,121.0,731.0
Y,R,"[5, 3]",1.0,5.0,0.3028581142425537,1.924515962600708,0.6133681622001689,121.0,732.0
,,"(3, 3)",,,,,,121.0,
G,D,"[4, 3]",-2.0,0.0,1.11763596534729,4.040137052536011,0.6533903094404993,,733.0
G,D,"[5, 3]",1.0,1.0,0.2464590072631836,1.8352820873260498,0.5887642826973323,122.0,734.0
B,L,"[5, 2]",1.0,2.0,0.22931194305419922,1.9711987972259521,0.7432805448488544,122.0,735.0
Y,R,"[5, 3]",1.0,3.0,0.20957183837890625,1.482619047164917,0.27618988797803495,122.0,736.0
B,L,"[5, 2]",1.0,4.0,0.3654661178588867,2.0516369342803955,0.6775610328389092,122.0,737.0
Y,R,"[5, 3]",1.0,5.0,0.2266991138458252,1.7129178047180176,0.49064540516471306,122.0,738.0
,,"(3, 3)",,,,,,122.0,
G,D,"[4, 3]",1.0,1.0,0.6934230327606201,2.803910970687866,0.31151358272580254,,739.0
G,D,"[5, 3]",1.0,2.0,0.315946102142334,1.602060079574585,0.29688737787095154,123.0,740.0
B,L,"[5, 2]",1.0,3.0,0.34134817123413086,2.0454490184783936,0.6918670648365676,123.0,741.0
Y,R,"[5, 3]",1.0,4.0,0.22521615028381348,1.8057031631469727,0.5812883363049992,123.0,742.0
B,L,"[5, 2]",1.0,5.0,0.2933487892150879,1.569314956665039,0.2676504113451345,123.0,743.0
Y,R,"[5, 3]",1.0,6.0,0.488771915435791,1.9594228267669678,0.47685932956916655,123.0,744.0
,,"(3, 3)",,,,,,123.0,
G,D,"[4, 3]",1.0,1.0,0.5185439586639404,3.7354159355163574,0.312283930441963,,745.0
G,D,"[5, 3]",1.0,2.0,0.40261101722717285,2.046595811843872,0.6421423899619245,124.0,746.0
B,L,"[5, 2]",1.0,3.0,0.26467084884643555,1.761244773864746,0.5034182827247649,124.0,747.0
Y,R,"[5, 3]",1.0,4.0,0.28410792350769043,1.6309709548950195,0.3347358292238982,124.0,748.0
B,L,"[5, 2]",1.0,5.0,0.37880802154541016,1.725912094116211,0.34383879324556366,124.0,749.0
Y,R,"[5, 3]",1.0,6.0,0.2794229984283447,1.6465880870819092,0.37379992536736495,124.0,750.0
,,"(3, 3)",,,,,,124.0,
G,D,"[4, 3]",1.0,1.0,0.5154941082000732,3.1573030948638916,0.3976947612986089,,751.0
G,D,"[5, 3]",1.0,2.0,0.29155993461608887,1.5606930255889893,0.25866002615399747,125.0,752.0
B,L,"[5, 2]",1.0,3.0,0.4127390384674072,1.8221728801727295,0.4139367935186378,125.0,753.0
Y,R,"[5, 3]",1.0,4.0,0.29042601585388184,1.9594790935516357,0.6566075661270672,125.0,754.0
B,L,"[5, 2]",1.0,5.0,0.27187514305114746,1.7304551601409912,0.45398893007222524,125.0,755.0
Y,R,"[5, 3]",1.0,6.0,0.3100550174713135,1.8876869678497314,0.574869476955427,125.0,756.0
,,"(3, 3)",,,,,,125.0,
G,D,"[4, 3]",1.0,1.0,0.5994360446929932,2.580192804336548,0.5053398568920361,,757.0
G,D,"[5, 3]",1.0,2.0,0.2816648483276367,2.0088438987731934,0.7306429154724975,126.0,758.0
B,L,"[5, 2]",1.0,3.0,0.257066011428833,1.7121291160583496,0.4430243210629705,126.0,759.0
Y,R,"[5, 3]",1.0,4.0,0.31264710426330566,1.603999137878418,0.2972395367717768,126.0,760.0
B,L,"[5, 2]",1.0,5.0,0.43067288398742676,2.1730549335479736,0.7363297455715168,126.0,761.0
Y,R,"[5, 3]",-1.0,5.0,0.00516510009765625,5.865349054336548,0.7352386267624804,126.0,762.0
,,"(3, 3)",,,,,,126.0,
G,D,"[4, 3]",1.0,1.0,0.5839159488677979,2.9852468967437744,0.3710085989306438,,763.0
G,D,"[5, 3]",1.0,2.0,0.3702549934387207,1.873417854309082,0.5108682373276677,127.0,764.0
B,L,"[5, 2]",1.0,3.0,0.3118009567260742,1.8933329582214355,0.5875657923061559,127.0,765.0
Y,R,"[5, 3]",1.0,4.0,0.34682202339172363,1.9575181007385254,0.6117843024811697,127.0,766.0
B,L,"[5, 2]",1.0,5.0,0.3253309726715088,1.8609769344329834,0.5393881813134442,127.0,767.0
Y,R,"[5, 3]",1.0,6.0,0.24522900581359863,1.8570129871368408,0.6130701817071503,127.0,768.0
,,"(3, 3)",,,,,,127.0,
G,D,"[4, 3]",1.0,1.0,0.5871100425720215,2.5147600173950195,0.4447968402898736,,769.0
G,D,"[5, 3]",1.0,2.0,0.4847080707550049,1.9557969570159912,0.4671949238195131,128.0,770.0
B,L,"[5, 2]",1.0,3.0,0.4781980514526367,2.037276029586792,0.5544122285626757,128.0,771.0
Y,R,"[5, 3]",1.0,4.0,0.4117610454559326,1.7135961055755615,0.30161487109685564,128.0,772.0
B,L,"[5, 2]",1.0,5.0,0.4381229877471924,1.9450218677520752,0.4963395271801082,128.0,773.0
Y,R,"[5, 3]",1.0,6.0,0.3134298324584961,1.997554063796997,0.6772255025072227,128.0,774.0
,,"(3, 3)",,,,,,128.0,
G,D,"[4, 3]",1.0,1.0,0.6835289001464844,3.051323890686035,0.4947594265716211,,775.0
G,D,"[5, 3]",1.0,2.0,0.3387589454650879,2.086327075958252,0.7483445466879208,129.0,776.0
B,L,"[5, 2]",1.0,3.0,0.2451770305633545,1.878406047821045,0.6268039812454713,129.0,777.0
Y,R,"[5, 3]",1.0,4.0,0.27350497245788574,1.9964520931243896,0.7231227468893919,129.0,778.0
B,L,"[5, 2]",1.0,5.0,0.2835719585418701,1.8301770687103271,0.5368393407058369,129.0,779.0
Y,R,"[5, 3]",1.0,6.0,0.23850798606872559,1.6087400913238525,0.3625627435803889,129.0,780.0
,,"(3, 3)",,,,,,129.0,
G,D,"[4, 3]",1.0,1.0,0.5526149272918701,2.7447781562805176,0.3406110280933643,,781.0
G,D,"[5, 3]",1.0,2.0,0.3104379177093506,1.9925620555877686,0.6830144878384816,130.0,782.0
B,L,"[5, 2]",1.0,3.0,0.26140403747558594,1.9931879043579102,0.7260862743372358,130.0,783.0
Y,R,"[5, 3]",1.0,4.0,0.25721311569213867,1.518852949142456,0.2620780226570849,130.0,784.0
B,L,"[5, 2]",1.0,5.0,0.43963003158569336,2.0910489559173584,0.6526568206986769,130.0,785.0
Y,R,"[5, 3]",1.0,6.0,0.2286698818206787,1.8847630023956299,0.6542137838799441,130.0,786.0
,,"(3, 3)",,,,,,130.0,
G,D,"[4, 3]",1.0,1.0,0.6615509986877441,2.9487900733947754,0.6696294655103636,,787.0
G,D,"[5, 3]",1.0,2.0,0.2525200843811035,1.7638771533966064,0.5004985100417778,131.0,788.0
B,L,"[5, 2]",1.0,3.0,0.4078938961029053,1.7301950454711914,0.3142634961352013,131.0,789.0
Y,R,"[5, 3]",1.0,4.0,0.46460580825805664,1.9476501941680908,0.4784525421294727,131.0,790.0
B,L,"[5, 2]",1.0,5.0,0.35048890113830566,1.9987521171569824,0.6434014508860679,131.0,791.0
Y,R,"[5, 3]",1.0,6.0,0.2404930591583252,1.9669129848480225,0.7272222412132692,131.0,792.0
,,"(3, 3)",,,,,,131.0,
G,D,"[4, 3]",1.0,1.0,0.5948278903961182,2.5270750522613525,0.42141490521594377,,793.0
G,D,"[5, 3]",1.0,2.0,0.2985870838165283,1.7434780597686768,0.44812884962181204,132.0,794.0
B,L,"[5, 2]",1.0,3.0,0.28963589668273926,1.9628551006317139,0.6607813643841768,132.0,795.0
Y,R,"[5, 3]",1.0,4.0,0.20668506622314453,1.6341090202331543,0.4283375370304122,132.0,796.0
B,L,"[5, 2]",1.0,5.0,0.3476381301879883,2.059415817260742,0.720898306289171,132.0,797.0
Y,R,"[5, 3]",1.0,6.0,0.337831974029541,1.900993824005127,0.5554764748056049,132.0,798.0
,,"(3, 3)",,,,,,132.0,
G,D,"[4, 3]",1.0,1.0,0.4027891159057617,3.52252197265625,0.31160477039929896,,799.0
G,D,"[5, 3]",1.0,2.0,0.3384528160095215,1.6978821754455566,0.35938655841647893,133.0,800.0
B,L,"[5, 2]",1.0,3.0,0.28846311569213867,1.7218739986419678,0.4313349183233858,133.0,801.0
Y,R,"[5, 3]",1.0,4.0,0.32125306129455566,2.0108699798583984,0.6752902502036549,133.0,802.0
B,L,"[5, 2]",1.0,5.0,0.2581760883331299,1.6408288478851318,0.3830249442786975,133.0,803.0
Y,R,"[5, 3]",1.0,6.0,0.32419896125793457,1.819267988204956,0.48567928853958464,133.0,804.0
,,"(3, 3)",,,,,,133.0,
G,D,"[4, 3]",-1.0,-1.0,0.6640598773956299,2.8539299964904785,0.6560742729674202,,805.0
B,L,"[4, 2]",-1.0,-2.0,0.8486859798431396,2.3936190605163574,0.5332635600914784,134.0,806.0
R,U,"[3, 2]",-1.0,-3.0,0.32370901107788086,1.86692214012146,0.5334623561494412,134.0,807.0
R,U,"[2, 2]",1.0,-2.0,0.2891669273376465,1.5749781131744385,0.2754493449881675,134.0,808.0
Y,R,"[2, 3]",1.0,-1.0,0.7496089935302734,2.4036080837249756,0.6451856718160578,134.0,809.0
R,U,"[1, 3]",-1.0,-2.0,0.5146169662475586,2.0140058994293213,0.49286533643019015,134.0,810.0
,,"(3, 3)",,,,,,134.0,
R,U,"[2, 3]",1.0,1.0,0.5665919780731201,6.214550018310547,0.6408029156297779,,811.0
B,L,"[2, 2]",1.0,2.0,0.2756829261779785,1.8134040832519531,0.5376174268186636,135.0,812.0
G,D,"[3, 2]",-1.0,1.0,0.7609639167785645,2.138460159301758,0.3762524880302086,135.0,813.0
R,U,"[2, 2]",1.0,2.0,0.37076497077941895,1.7967898845672607,0.4229332638924168,135.0,814.0
Y,R,"[2, 3]",1.0,3.0,0.36783695220947266,2.024833917617798,0.6643220409682081,135.0,815.0
Y,R,"[2, 4]",-1.0,2.0,0.8000950813293457,2.1650290489196777,0.34639976881211215,135.0,816.0
,,"(3, 3)",,,,,,135.0,
R,U,"[2, 3]",1.0,1.0,0.4485750198364258,6.747345924377441,0.3604173874231152,,817.0
B,L,"[2, 2]",1.0,2.0,0.37181806564331055,2.0499560832977295,0.6767528984718654,136.0,818.0
R,U,"[1, 2]",1.0,3.0,0.34482693672180176,1.699174165725708,0.35966723505459597,136.0,819.0
Y,R,"[1, 3]",-1.0,2.0,0.436053991317749,2.1614749431610107,0.7207191057955111,136.0,820.0
G,D,"[2, 3]",1.0,3.0,0.3193180561065674,1.6043519973754883,0.2756464171947952,136.0,821.0
Y,R,"[2, 4]",-1.0,2.0,0.7194459438323975,2.3526298999786377,0.6279257414882433,136.0,822.0
,,"(3, 3)",,,,,,136.0,
R,U,"[2, 3]",1.0,1.0,0.44450902938842773,7.352463006973267,0.6472110527829822,,823.0
B,L,"[2, 2]",1.0,2.0,0.33803296089172363,1.7747528553009033,0.4222252381170479,137.0,824.0
R,U,"[1, 2]",1.0,3.0,0.39444518089294434,1.9420859813690186,0.5474989647602716,137.0,825.0
G,D,"[2, 2]",1.0,4.0,0.23441696166992188,1.737234115600586,0.48476841202082016,137.0,826.0
R,U,"[1, 2]",1.0,5.0,0.30220603942871094,1.7286770343780518,0.4134245078906571,137.0,827.0
G,D,"[2, 2]",1.0,6.0,0.2961578369140625,1.9778521060943604,0.6744213351524775,137.0,828.0
,,"(3, 3)",,,,,,137.0,
R,U,"[2, 3]",1.0,1.0,0.7969341278076172,4.344907999038696,0.5529567208329833,,829.0
B,L,"[2, 2]",1.0,2.0,0.27658796310424805,1.5429580211639404,0.26287127970879437,138.0,830.0
R,U,"[1, 2]",1.0,3.0,0.34313201904296875,1.648320198059082,0.31124944544818245,138.0,831.0
G,D,"[2, 2]",1.0,4.0,0.36417698860168457,2.0637118816375732,0.7077409590997427,138.0,832.0
R,U,"[1, 2]",1.0,5.0,0.28252506256103516,1.9229099750518799,0.6307543781984065,138.0,833.0
G,D,"[2, 2]",1.0,6.0,0.2943699359893799,1.9986751079559326,0.6961571345333868,138.0,834.0
,,"(3, 3)",,,,,,138.0,
R,U,"[2, 3]",1.0,1.0,0.5052320957183838,2.805091142654419,0.46818140796314334,,835.0
B,L,"[2, 2]",1.0,2.0,0.3145749568939209,1.823965072631836,0.5087362125289064,139.0,836.0
R,U,"[1, 2]",1.0,3.0,0.32010793685913086,1.7254970073699951,0.4177154999076019,139.0,837.0
G,D,"[2, 2]",1.0,4.0,0.3438229560852051,1.839026927947998,0.49005574483020786,139.0,838.0
R,U,"[1, 2]",1.0,5.0,0.3083829879760742,1.863516092300415,0.5534487200676638,139.0,839.0
G,D,"[2, 2]",1.0,6.0,0.25789690017700195,1.5202641487121582,0.25734141907734953,139.0,840.0
,,"(3, 3)",,,,,,139.0,
R,U,"[2, 3]",1.0,1.0,0.5073690414428711,4.445399045944214,0.46935714309347465,,841.0
B,L,"[2, 2]",1.0,2.0,0.3314189910888672,1.9075279235839844,0.5769012544257606,140.0,842.0
R,U,"[1, 2]",1.0,3.0,0.2745509147644043,1.9839122295379639,0.7106438733779457,140.0,843.0
G,D,"[2, 2]",1.0,4.0,0.26836705207824707,1.5498909950256348,0.27762832098751833,140.0,844.0
R,U,"[1, 2]",1.0,5.0,0.4395780563354492,1.7681879997253418,0.32911842581100487,140.0,845.0
G,D,"[2, 2]",1.0,6.0,0.31271886825561523,1.5796699523925781,0.27555573804139377,140.0,846.0
,,"(3, 3)",,,,,,140.0,
R,U,"[2, 3]",1.0,1.0,0.4322202205657959,2.6932239532470703,0.4854216156595976,,847.0
B,L,"[2, 2]",1.0,2.0,0.3913428783416748,1.9391839504241943,0.5411109450373368,141.0,848.0
R,U,"[1, 2]",1.0,3.0,0.3252289295196533,1.7335290908813477,0.40806244230223165,141.0,849.0
G,D,"[2, 2]",1.0,4.0,0.32288408279418945,1.6522681713104248,0.3270826307605564,141.0,850.0
R,U,"[1, 2]",1.0,5.0,0.348980188369751,1.6838970184326172,0.34434867502092914,141.0,851.0
G,D,"[2, 2]",1.0,6.0,0.29658079147338867,1.566899061203003,0.27802938578343184,141.0,852.0
,,"(3, 3)",,,,,,141.0,
R,U,"[2, 3]",1.0,1.0,0.49967408180236816,3.410569906234741,0.28860338099896715,,853.0
B,L,"[2, 2]",1.0,2.0,0.46241092681884766,2.1923811435699463,0.7307902743554021,142.0,854.0
R,U,"[1, 2]",1.0,3.0,0.26288795471191406,1.732856035232544,0.4638783680550259,142.0,855.0
G,D,"[2, 2]",1.0,4.0,0.3004930019378662,1.9428400993347168,0.6231568247871051,142.0,856.0
R,U,"[1, 2]",1.0,5.0,0.2504611015319824,1.8247251510620117,0.5647604987877559,142.0,857.0
G,D,"[2, 2]",1.0,6.0,0.2169189453125,1.7735419273376465,0.5382136290832487,142.0,858.0
,,"(3, 3)",,,,,,142.0,
R,U,"[2, 3]",1.0,1.0,0.41968488693237305,3.992276906967163,0.6305526109401983,,859.0
B,L,"[2, 2]",1.0,2.0,0.2751760482788086,1.8373651504516602,0.5512861659085873,143.0,860.0
R,U,"[1, 2]",1.0,3.0,0.27579402923583984,2.0180201530456543,0.735899762043897,143.0,861.0
G,D,"[2, 2]",1.0,4.0,0.12529397010803223,1.6657960414886475,0.535180498460321,143.0,862.0
R,U,"[1, 2]",1.0,5.0,0.20401406288146973,1.6433799266815186,0.42866743304116645,143.0,863.0
G,D,"[2, 2]",1.0,6.0,0.3683781623840332,1.8311738967895508,0.4599740651213385,143.0,864.0
,,"(3, 3)",,,,,,143.0,
R,U,"[2, 3]",1.0,1.0,0.4112060070037842,3.608982801437378,0.30221587647700515,,865.0
B,L,"[2, 2]",1.0,2.0,0.3747129440307617,1.9842820167541504,0.6031130810269025,144.0,866.0
R,U,"[1, 2]",1.0,3.0,0.3207540512084961,1.6450779438018799,0.31520331592877765,144.0,867.0
G,D,"[2, 2]",1.0,4.0,0.5864009857177734,2.306594133377075,0.7046775807794157,144.0,868.0
R,U,"[1, 2]",1.0,5.0,0.26248598098754883,1.9755821228027344,0.7135701665632288,144.0,869.0
G,D,"[2, 2]",1.0,6.0,0.3002891540527344,2.021606922149658,0.7186791756484467,144.0,870.0
,,"(3, 3)",,,,,,144.0,
R,U,"[2, 3]",1.0,1.0,0.6642539501190186,8.15002703666687,0.25251202009900087,,871.0
B,L,"[2, 2]",1.0,2.0,0.39783716201782227,1.6644089221954346,0.26711691547628746,145.0,872.0
R,U,"[1, 2]",1.0,3.0,0.32924795150756836,2.031053066253662,0.6976401746562697,145.0,873.0
G,D,"[2, 2]",1.0,4.0,0.29094505310058594,1.8284590244293213,0.526241721988445,145.0,874.0
R,U,"[1, 2]",1.0,5.0,0.2563450336456299,1.5275969505310059,0.2708570274721893,145.0,875.0
G,D,"[2, 2]",1.0,6.0,0.4074079990386963,1.9526329040527344,0.5399080098493352,145.0,876.0
,,"(3, 3)",,,,,,145.0,
R,U,"[2, 3]",1.0,1.0,0.5332369804382324,3.445758104324341,0.7354088603975287,,877.0
B,L,"[2, 2]",1.0,2.0,0.32248997688293457,1.7965190410614014,0.46575487206583754,146.0,878.0
R,U,"[1, 2]",1.0,3.0,0.3215770721435547,1.7800610065460205,0.4457882112100563,146.0,879.0
G,D,"[2, 2]",1.0,4.0,0.4476780891418457,2.1474738121032715,0.7097209397727656,146.0,880.0
R,U,"[1, 2]",1.0,5.0,0.25374889373779297,1.720444917678833,0.4637967232595377,146.0,881.0
G,D,"[2, 2]",1.0,6.0,0.6184980869293213,2.257803201675415,0.6214076828222352,146.0,882.0
,,"(3, 3)",,,,,,146.0,
R,U,"[2, 3]",1.0,1.0,0.5810680389404297,2.927119016647339,0.4986418614268599,,883.0
B,L,"[2, 2]",1.0,2.0,0.28637099266052246,1.6673970222473145,0.36622115659969356,147.0,884.0
R,U,"[1, 2]",1.0,3.0,0.2819797992706299,2.0106019973754883,0.709683840435598,147.0,885.0
G,D,"[2, 2]",1.0,4.0,0.1899120807647705,1.82859206199646,0.6386784087502486,147.0,886.0
R,U,"[1, 2]",1.0,5.0,0.45853590965270996,1.7113149166107178,0.2502389833009462,147.0,887.0
G,D,"[2, 2]",1.0,6.0,0.524954080581665,1.8237488269805908,0.29071407098759483,147.0,888.0
,,"(3, 3)",,,,,,147.0,
R,U,"[2, 3]",1.0,1.0,0.644995927810669,3.3152079582214355,0.6554280925241084,,889.0
B,L,"[2, 2]",1.0,2.0,0.5361299514770508,1.9483590126037598,0.42081237403284716,148.0,890.0
R,U,"[1, 2]",1.0,3.0,0.4418370723724365,2.1781511306762695,0.7321046577053172,148.0,891.0
G,D,"[2, 2]",1.0,4.0,0.2576608657836914,1.6837890148162842,0.416083286715347,148.0,892.0
R,U,"[1, 2]",1.0,5.0,0.4434490203857422,1.954531192779541,0.5037774630962517,148.0,893.0
G,D,"[2, 2]",1.0,6.0,0.38953685760498047,2.031757116317749,0.6356298686725201,148.0,894.0
,,"(3, 3)",,,,,,148.0,
R,U,"[2, 3]",1.0,1.0,0.43340182304382324,3.3690528869628906,0.3217833761971224,,895.0
B,L,"[2, 2]",1.0,2.0,0.3235909938812256,1.8907389640808105,0.5623586676110954,149.0,896.0
R,U,"[1, 2]",1.0,3.0,0.2615480422973633,1.7379820346832275,0.4836559214624888,149.0,897.0
G,D,"[2, 2]",1.0,4.0,0.32151317596435547,1.6466240882873535,0.3140213913543038,149.0,898.0
R,U,"[1, 2]",1.0,5.0,0.6606318950653076,2.0318870544433594,0.36232933690007524,149.0,899.0
G,D,"[2, 2]",1.0,6.0,0.3616769313812256,1.611454963684082,0.25733648750780796,149.0,900.0
,,"(3, 3)",,,,,,149.0,
R,U,"[2, 3]",1.0,1.0,0.7529921531677246,3.643110990524292,0.6000169661923229,,901.0
B,L,"[2, 2]",1.0,2.0,0.18245196342468262,1.7912578582763672,0.5913160866264288,150.0,902.0
R,U,"[1, 2]",1.0,3.0,0.29895687103271484,1.5608100891113281,0.2525909796200005,150.0,903.0
G,D,"[2, 2]",1.0,4.0,0.48333001136779785,2.2069129943847656,0.7088919510486871,150.0,904.0
R,U,"[1, 2]",1.0,5.0,0.28546905517578125,1.644859790802002,0.35425798963860633,150.0,905.0
G,D,"[2, 2]",1.0,6.0,0.2864420413970947,1.6387720108032227,0.3430787152848801,150.0,906.0
,,"(3, 3)",,,,,,150.0,
R,U,"[2, 3]",1.0,1.0,0.47336411476135254,3.4600090980529785,0.3034830612729439,,907.0
B,L,"[2, 2]",1.0,2.0,0.35965394973754883,1.6973299980163574,0.33383202624590186,151.0,908.0
R,U,"[1, 2]",1.0,3.0,0.32274508476257324,2.0663630962371826,0.733194943619139,151.0,909.0
G,D,"[2, 2]",1.0,4.0,0.22626185417175293,1.7580790519714355,0.5247851560626287,151.0,910.0
R,U,"[1, 2]",1.0,5.0,0.29967784881591797,1.6161599159240723,0.3080188233039257,151.0,911.0
G,D,"[2, 2]",1.0,6.0,0.3695690631866455,1.903412103652954,0.5442959103806299,151.0,912.0
,,"(3, 3)",,,,,,151.0,
R,U,"[2, 3]",1.0,1.0,0.7390081882476807,2.7262330055236816,0.5539935490335173,,913.0
B,L,"[2, 2]",1.0,2.0,0.1924450397491455,1.8923828601837158,0.6962772847040148,152.0,914.0
R,U,"[1, 2]",1.0,3.0,0.31670498847961426,2.061230182647705,0.7240901094468005,152.0,915.0
G,D,"[2, 2]",1.0,4.0,0.28880882263183594,1.7729389667510986,0.49747617428946767,152.0,916.0
R,U,"[1, 2]",1.0,5.0,0.2892160415649414,1.612321138381958,0.3099584144877873,152.0,917.0
G,D,"[2, 2]",1.0,6.0,0.36243605613708496,1.6438770294189453,0.28720867305860764,152.0,918.0
,,"(3, 3)",,,,,,152.0,
R,U,"[2, 3]",1.0,1.0,0.5845627784729004,3.2879300117492676,0.3585699879195613,,919.0
B,L,"[2, 2]",1.0,2.0,0.3691129684448242,1.7739651203155518,0.39904541327722065,153.0,920.0
R,U,"[1, 2]",1.0,3.0,0.33583688735961914,2.097433090209961,0.746271621530018,153.0,921.0
G,D,"[2, 2]",1.0,4.0,0.26621007919311523,1.8039650917053223,0.5171085431645281,153.0,922.0
R,U,"[1, 2]",1.0,5.0,0.32212209701538086,1.6566150188446045,0.32388821825270936,153.0,923.0
G,D,"[2, 2]",1.0,6.0,0.3651270866394043,1.7245519161224365,0.3483844884202484,153.0,924.0
,,"(3, 3)",,,,,,153.0,
R,U,"[2, 3]",1.0,1.0,0.6326138973236084,2.8428800106048584,0.3247064635438391,,925.0
B,L,"[2, 2]",1.0,2.0,0.2684769630432129,1.887213945388794,0.6116532933515021,154.0,926.0
R,U,"[1, 2]",1.0,3.0,0.2543189525604248,1.8225901126861572,0.5677894077579471,154.0,927.0
G,D,"[2, 2]",1.0,4.0,0.14223098754882812,1.6711571216583252,0.5222498657323347,154.0,928.0
R,U,"[1, 2]",1.0,5.0,0.12848496437072754,1.4630050659179688,0.3354392485880805,154.0,929.0
G,D,"[2, 2]",1.0,6.0,0.3349180221557617,2.047100067138672,0.698705547260474,154.0,930.0
,,"(3, 3)",,,,,,154.0,
R,U,"[2, 3]",1.0,1.0,0.45955610275268555,2.2455849647521973,0.444904859006194,,931.0
B,L,"[2, 2]",1.0,2.0,0.23845911026000977,1.9532709121704102,0.714469291874757,155.0,932.0
R,U,"[1, 2]",-1.0,2.0,0.08612895011901855,5.771752119064331,0.5530735487646941,155.0,933.0
G,D,"[2, 2]",1.0,3.0,0.5216729640960693,2.141874074935913,0.6116373191882878,155.0,934.0
R,U,"[1, 2]",1.0,4.0,0.30121898651123047,2.0268149375915527,0.7216313607500117,155.0,935.0
G,D,"[2, 2]",1.0,5.0,0.38895392417907715,1.9094128608703613,0.5146693909644593,155.0,936.0
,,"(3, 3)",,,,,,155.0,
R,U,"[2, 3]",1.0,1.0,0.5075979232788086,3.9115569591522217,0.44276556963954916,,937.0
B,L,"[2, 2]",1.0,2.0,0.5935859680175781,2.3080270290374756,0.7175589131936617,156.0,938.0
R,U,"[1, 2]",1.0,3.0,0.33492088317871094,1.7902920246124268,0.4413615693763042,156.0,939.0
G,D,"[2, 2]",1.0,4.0,0.36049818992614746,1.89512300491333,0.5363179214401723,156.0,940.0
R,U,"[1, 2]",1.0,5.0,0.3427920341491699,1.899425983428955,0.5526208443053519,156.0,941.0
G,D,"[2, 2]",1.0,6.0,0.2797219753265381,1.957909107208252,0.6770053513494368,156.0,942.0
,,"(3, 3)",,,,,,156.0,
R,U,"[2, 3]",1.0,1.0,0.6968340873718262,2.653114080429077,0.5136329084356688,,943.0
B,L,"[2, 2]",1.0,2.0,0.48630309104919434,1.8374741077423096,0.3346943278260662,157.0,944.0
R,U,"[1, 2]",1.0,3.0,0.5259201526641846,2.257132053375244,0.7247975052680895,157.0,945.0
G,D,"[2, 2]",1.0,4.0,0.4958310127258301,2.1911330223083496,0.6994821569538081,157.0,946.0
R,U,"[1, 2]",1.0,5.0,0.3522012233734131,2.106126070022583,0.7388397769417216,157.0,947.0
G,D,"[2, 2]",-1.0,5.0,0.09213590621948242,5.749359130859375,0.5217545001218684,157.0,948.0
,,"(3, 3)",,,,,,157.0,
R,U,"[2, 3]",1.0,1.0,0.5351300239562988,3.358051061630249,0.36336839088724115,,949.0
B,L,"[2, 2]",1.0,2.0,0.32367801666259766,1.808751106262207,0.47198540539928613,158.0,950.0
R,U,"[1, 2]",1.0,3.0,0.5508038997650146,2.0784459114074707,0.5171996788705604,158.0,951.0
G,D,"[2, 2]",1.0,4.0,0.5198850631713867,1.931344985961914,0.3987479265613128,158.0,952.0
R,U,"[1, 2]",1.0,5.0,0.4442920684814453,1.7113280296325684,0.2600586022194418,158.0,953.0
G,D,"[2, 2]",1.0,6.0,0.5483720302581787,1.9048290252685547,0.3648981062260912,158.0,954.0
,,"(3, 3)",,,,,,158.0,
R,U,"[2, 3]",1.0,1.0,0.6918351650238037,3.6892518997192383,0.570413275365676,,955.0
B,L,"[2, 2]",1.0,2.0,0.31082701683044434,1.8369050025939941,0.5243328291981946,159.0,956.0
R,U,"[1, 2]",1.0,3.0,0.32544589042663574,1.6463401317596436,0.32089094279703495,159.0,957.0
G,D,"[2, 2]",1.0,4.0,0.4723200798034668,1.84604811668396,0.36692248692763035,159.0,958.0
R,U,"[1, 2]",1.0,5.0,0.4283788204193115,1.971101999282837,0.5378666103028789,159.0,959.0
G,D,"[2, 2]",1.0,6.0,0.4337749481201172,1.993537187576294,0.547966045992669,159.0,960.0
,,"(3, 3)",,,,,,159.0,
R,U,"[2, 3]",1.0,1.0,0.5450329780578613,3.300428867340088,0.5652984878689362,,961.0
B,L,"[2, 2]",1.0,2.0,0.3450770378112793,2.08138108253479,0.7298373808210346,160.0,962.0
R,U,"[1, 2]",1.0,3.0,0.2828030586242676,1.9525070190429688,0.6491327439813082,160.0,963.0
G,D,"[2, 2]",1.0,4.0,0.334197998046875,1.669499158859253,0.318928879002227,160.0,964.0
R,U,"[1, 2]",1.0,5.0,0.6145100593566895,1.9031260013580322,0.2888708473160934,160.0,965.0
G,D,"[2, 2]",1.0,6.0,0.6131608486175537,2.276319980621338,0.6647394516193659,160.0,966.0
,,"(3, 3)",,,,,,160.0,
R,U,"[2, 3]",1.0,1.0,0.5324399471282959,4.073000907897949,0.6879295864524344,,967.0
B,L,"[2, 2]",1.0,2.0,0.31042003631591797,1.6014161109924316,0.2895384420063402,161.0,968.0
R,U,"[1, 2]",1.0,3.0,0.5836601257324219,2.2764060497283936,0.6824185587332601,161.0,969.0
G,D,"[2, 2]",1.0,4.0,0.2983059883117676,1.8845930099487305,0.5837240727459901,161.0,970.0
R,U,"[1, 2]",1.0,5.0,0.2759881019592285,1.5848379135131836,0.3023041319446489,161.0,971.0
G,D,"[2, 2]",1.0,6.0,0.36362385749816895,1.9319748878479004,0.5672807037183162,161.0,972.0
,,"(3, 3)",,,,,,161.0,
R,U,"[2, 3]",1.0,1.0,0.5415260791778564,3.104783058166504,0.38912060563202394,,973.0
B,L,"[2, 2]",1.0,2.0,0.39232516288757324,2.0033788681030273,0.6089156728836186,162.0,974.0
R,U,"[1, 2]",1.0,3.0,0.3496220111846924,1.6553008556365967,0.2978389485718559,162.0,975.0
G,D,"[2, 2]",1.0,4.0,0.40082597732543945,1.899580955505371,0.48056580358172635,162.0,976.0
R,U,"[1, 2]",1.0,5.0,0.3208789825439453,1.8995509147644043,0.5634128416388944,162.0,977.0
G,D,"[2, 2]",1.0,6.0,0.30596017837524414,1.743947982788086,0.42417059170097876,162.0,978.0
,,"(3, 3)",,,,,,162.0,
R,U,"[2, 3]",1.0,1.0,0.7676370143890381,5.666917085647583,0.374554624309681,,979.0
B,L,"[2, 2]",1.0,2.0,0.35334086418151855,1.7518889904022217,0.39311057195805066,163.0,980.0
R,U,"[1, 2]",1.0,3.0,0.38256287574768066,1.8829209804534912,0.5092044523555462,163.0,981.0
G,D,"[2, 2]",1.0,4.0,0.29827308654785156,1.9213950634002686,0.6306545207182799,163.0,982.0
R,U,"[1, 2]",1.0,5.0,0.24679017066955566,1.6208901405334473,0.3684099130785283,163.0,983.0
G,D,"[2, 2]",1.0,6.0,0.3494529724121094,1.977842092514038,0.6126815454866562,163.0,984.0
,,"(3, 3)",,,,,,163.0,
R,U,"[2, 3]",-2.0,0.0,1.0811519622802734,4.070594072341919,0.6501468856418933,,985.0
B,L,"[2, 2]",1.0,1.0,0.7012729644775391,2.210798978805542,0.49429685210343005,164.0,986.0
R,U,"[1, 2]",1.0,2.0,0.252500057220459,1.7778000831604004,0.5221268890593529,164.0,987.0
G,D,"[2, 2]",1.0,3.0,0.2673678398132324,1.5858139991760254,0.308245897304305,164.0,988.0
R,U,"[1, 2]",1.0,4.0,0.41092991828918457,2.1429860591888428,0.7340848720253415,164.0,989.0
G,D,"[2, 2]",1.0,5.0,0.2570929527282715,1.7289540767669678,0.4632709716586986,164.0,990.0
,,"(3, 3)",,,,,,164.0,
R,U,"[2, 3]",1.0,1.0,0.5951471328735352,3.0760068893432617,0.35620969992309875,,991.0
B,L,"[2, 2]",1.0,2.0,0.295274019241333,1.6091868877410889,0.3155416007180485,165.0,992.0
R,U,"[1, 2]",1.0,3.0,0.3775179386138916,2.0559730529785156,0.6710738630986861,165.0,993.0
G,D,"[2, 2]",1.0,4.0,0.2685990333557129,1.814497947692871,0.5358379969729334,165.0,994.0
R,U,"[1, 2]",1.0,5.0,0.28115105628967285,1.5658040046691895,0.2852811471528069,165.0,995.0
G,D,"[2, 2]",1.0,6.0,0.6643800735473633,2.2125232219696045,0.547521553687585,165.0,996.0
,,"(3, 3)",,,,,,165.0,
R,U,"[2, 3]",1.0,1.0,0.6892609596252441,2.8416478633880615,0.5558182412975853,,997.0
B,L,"[2, 2]",1.0,2.0,0.27753305435180664,2.0229029655456543,0.7451415058727805,166.0,998.0
R,U,"[1, 2]",1.0,3.0,0.25503110885620117,1.9612901210784912,0.7065944276753977,166.0,999.0
G,D,"[2, 2]",1.0,4.0,0.3353259563446045,1.8444559574127197,0.5013293690791953,166.0,1000.0
R,U,"[1, 2]",1.0,5.0,0.30538201332092285,1.9000651836395264,0.584564351233458,166.0,1001.0
G,D,"[2, 2]",1.0,6.0,0.29181599617004395,1.844836950302124,0.5461370546523323,166.0,1002.0
,,"(3, 3)",,,,,,166.0,
R,U,"[2, 3]",1.0,1.0,0.6854708194732666,3.186336040496826,0.5159122864559811,,1003.0
B,L,"[2, 2]",1.0,2.0,0.2746388912200928,1.9450969696044922,0.6607761948823241,167.0,1004.0
R,U,"[1, 2]",1.0,3.0,0.2489490509033203,1.8134241104125977,0.5577654502334476,167.0,1005.0
G,D,"[2, 2]",1.0,4.0,0.3474547863006592,1.9976491928100586,0.6554179326315064,167.0,1006.0
R,U,"[1, 2]",1.0,5.0,0.2884030342102051,1.621448040008545,0.32715714241293337,167.0,1007.0
G,D,"[2, 2]",1.0,6.0,0.3288891315460205,1.6413719654083252,0.3186648312738844,167.0,1008.0
,,"(3, 3)",,,,,,167.0,
R,U,"[2, 3]",1.0,1.0,0.6079089641571045,2.906773090362549,0.3754677822769374,,1009.0
B,L,"[2, 2]",1.0,2.0,0.3370249271392822,1.840580940246582,0.49912094865306256,168.0,1010.0
R,U,"[1, 2]",1.0,3.0,0.3040740489959717,1.5674760341644287,0.2503200632987317,168.0,1011.0
G,D,"[2, 2]",1.0,4.0,0.43074488639831543,1.791187047958374,0.3581067546249741,168.0,1012.0
R,U,"[1, 2]",1.0,5.0,0.3223719596862793,1.6086680889129639,0.283498047213673,168.0,1013.0
G,D,"[2, 2]",1.0,6.0,0.3515768051147461,2.0712640285491943,0.7043094375771435,168.0,1014.0
,,"(3, 3)",,,,,,168.0,
R,U,"[2, 3]",1.0,1.0,0.4910609722137451,2.8105740547180176,0.5651915830290953,,1015.0
B,L,"[2, 2]",1.0,2.0,0.2564280033111572,1.9396259784698486,0.6713453511153655,169.0,1016.0
R,U,"[1, 2]",1.0,3.0,0.10318493843078613,1.5430529117584229,0.447769703041329,169.0,1017.0
G,D,"[2, 2]",1.0,4.0,0.574099063873291,2.150110960006714,0.5645638836783284,169.0,1018.0
R,U,"[1, 2]",1.0,5.0,0.3912620544433594,1.9182240962982178,0.5162679715955673,169.0,1019.0
G,D,"[2, 2]",1.0,6.0,0.5112059116363525,1.9988880157470703,0.481989441918911,169.0,1020.0
,,"(3, 3)",,,,,,169.0,
R,U,"[2, 3]",1.0,1.0,0.5637538433074951,3.3165900707244873,0.41535838205564857,,1021.0
B,L,"[2, 2]",1.0,2.0,0.3063068389892578,1.7132608890533447,0.39519462389611903,170.0,1022.0
R,U,"[1, 2]",1.0,3.0,0.3783600330352783,1.9436070919036865,0.5720172271554234,170.0,1023.0
G,D,"[2, 2]",1.0,4.0,0.32645702362060547,1.8339519500732422,0.5060191160095371,170.0,1024.0
R,U,"[1, 2]",1.0,5.0,0.3411240577697754,2.046517848968506,0.7023798982828446,170.0,1025.0
G,D,"[2, 2]",1.0,6.0,0.1743180751800537,1.5372240543365479,0.3566811102444892,170.0,1026.0
,,"(3, 3)",,,,,,170.0,
R,U,"[2, 3]",1.0,1.0,0.46918201446533203,3.1518359184265137,0.5417670367878086,,1027.0
B,L,"[2, 2]",1.0,2.0,0.3888859748840332,1.7658841609954834,0.37446472051460056,171.0,1028.0
R,U,"[1, 2]",1.0,3.0,0.33542513847351074,1.8492250442504883,0.5069939786858337,171.0,1029.0
G,D,"[2, 2]",1.0,4.0,0.3455967903137207,1.6510870456695557,0.3083276947080466,171.0,1030.0
R,U,"[1, 2]",1.0,5.0,0.39658308029174805,1.7900481224060059,0.39818108379748424,171.0,1031.0
G,D,"[2, 2]",1.0,6.0,0.3176920413970947,1.8784220218658447,0.5432376181949583,171.0,1032.0
,,"(3, 3)",,,,,,171.0,
R,U,"[2, 3]",1.0,1.0,0.6252901554107666,3.2580249309539795,0.6845108119649509,,1033.0
B,L,"[2, 2]",1.0,2.0,0.2513771057128906,1.650183916091919,0.38493264729296145,172.0,1034.0
R,U,"[1, 2]",1.0,3.0,0.29848790168762207,1.7303831577301025,0.43210608434323355,172.0,1035.0
G,D,"[2, 2]",1.0,4.0,0.4116358757019043,1.724829912185669,0.30707245453117077,172.0,1036.0
R,U,"[1, 2]",1.0,5.0,0.3165318965911865,1.9330220222473145,0.6230279595874362,172.0,1037.0
G,D,"[2, 2]",1.0,6.0,0.3892371654510498,1.730497121810913,0.33717199478676263,172.0,1038.0
,,"(3, 3)",,,,,,172.0,
R,U,"[2, 3]",1.0,1.0,0.6820509433746338,3.66287899017334,0.5664982057863867,,1039.0
B,L,"[2, 2]",1.0,2.0,0.2993638515472412,1.5817279815673828,0.2820150873070252,173.0,1040.0
R,U,"[1, 2]",1.0,3.0,0.40035390853881836,1.797497034072876,0.3794520743590351,173.0,1041.0
G,D,"[2, 2]",1.0,4.0,0.33092689514160156,1.919929027557373,0.5985528540862528,173.0,1042.0
R,U,"[1, 2]",1.0,5.0,0.22753500938415527,1.607302188873291,0.3733597088302786,173.0,1043.0
G,D,"[2, 2]",1.0,6.0,0.3449389934539795,2.0843279361724854,0.7406339257777115,173.0,1044.0
,,"(3, 3)",,,,,,173.0,
R,U,"[2, 3]",1.0,1.0,0.5796928405761719,3.3692848682403564,0.7434762675634755,,1045.0
B,L,"[2, 2]",1.0,2.0,0.2758049964904785,1.970905065536499,0.6975333097314902,174.0,1046.0
R,U,"[1, 2]",1.0,3.0,0.3356170654296875,1.6510140895843506,0.29914446067882877,174.0,1047.0
G,D,"[2, 2]",1.0,4.0,0.44552111625671387,1.7678380012512207,0.31690218501618034,174.0,1048.0
R,U,"[1, 2]",1.0,5.0,0.42201805114746094,1.8004429340362549,0.3674236561916996,174.0,1049.0
G,D,"[2, 2]",1.0,6.0,0.3179631233215332,2.003451108932495,0.6704550893605531,174.0,1050.0
,,"(3, 3)",,,,,,174.0,
R,U,"[2, 3]",1.0,1.0,0.4282510280609131,3.2719790935516357,0.5260896600533053,,1051.0
B,L,"[2, 2]",1.0,2.0,0.27062487602233887,1.7787761688232422,0.5048310417338315,175.0,1052.0
R,U,"[1, 2]",1.0,3.0,0.3022589683532715,1.9016320705413818,0.5896915429708808,175.0,1053.0
G,D,"[2, 2]",1.0,4.0,0.31930112838745117,1.8411939144134521,0.5143675702254358,175.0,1054.0
R,U,"[1, 2]",1.0,5.0,0.3084750175476074,1.6233010292053223,0.3045951076200494,175.0,1055.0
G,D,"[2, 2]",1.0,6.0,0.4287099838256836,2.110567092895508,0.6815222057284748,175.0,1056.0
,,"(3, 3)",,,,,,175.0,
R,U,"[2, 3]",1.0,1.0,0.5535387992858887,2.818065881729126,0.6332585050457082,,1057.0
B,L,"[2, 2]",1.0,2.0,0.45271778106689453,1.9196429252624512,0.45301782731766127,176.0,1058.0
R,U,"[1, 2]",1.0,3.0,0.34415602684020996,1.6639599800109863,0.316970111068789,176.0,1059.0
G,D,"[2, 2]",1.0,4.0,0.4284679889678955,1.972775936126709,0.539388709587989,176.0,1060.0
R,U,"[1, 2]",1.0,5.0,0.31691908836364746,1.5902490615844727,0.26350180036527526,176.0,1061.0
G,D,"[2, 2]",1.0,6.0,0.5479509830474854,2.0579309463500977,0.504470583236043,176.0,1062.0
,,"(3, 3)",,,,,,176.0,
R,U,"[2, 3]",1.0,1.0,0.6820399761199951,3.351675033569336,0.6230063101359191,,1063.0
B,L,"[2, 2]",1.0,2.0,0.2659881114959717,1.9786911010742188,0.7015113743843361,177.0,1064.0
R,U,"[1, 2]",1.0,3.0,0.25534605979919434,1.9615368843078613,0.6963160029255054,177.0,1065.0
G,D,"[2, 2]",1.0,4.0,0.25504088401794434,1.96303391456604,0.692699536672472,177.0,1066.0
R,U,"[1, 2]",1.0,5.0,0.250485897064209,1.7610180377960205,0.5038978981172104,177.0,1067.0
G,D,"[2, 2]",1.0,6.0,0.26662182807922363,1.916184902191162,0.6367090284640144,177.0,1068.0
,,"(3, 3)",,,,,,177.0,
R,U,"[2, 3]",1.0,1.0,0.4797348976135254,2.88493013381958,0.6216147853657217,,1069.0
B,L,"[2, 2]",1.0,2.0,0.2719080448150635,1.9552199840545654,0.6767875020165453,178.0,1070.0
R,U,"[1, 2]",1.0,3.0,0.23790597915649414,1.823012113571167,0.5832281023187338,178.0,1071.0
G,D,"[2, 2]",1.0,4.0,0.28475308418273926,1.7049880027770996,0.40509915476210795,178.0,1072.0
R,U,"[1, 2]",1.0,5.0,0.4046330451965332,2.0927608013153076,0.6809903006340275,178.0,1073.0
G,D,"[2, 2]",1.0,6.0,0.2966899871826172,1.7199409008026123,0.4180371297485919,178.0,1074.0
,,"(3, 3)",,,,,,178.0,
R,U,"[2, 3]",1.0,1.0,0.45380401611328125,3.4786858558654785,0.3802529577317121,,1075.0
B,L,"[2, 2]",1.0,2.0,0.35590696334838867,1.82932710647583,0.45932757188676315,179.0,1076.0
R,U,"[1, 2]",1.0,3.0,0.2933361530303955,1.9785170555114746,0.6876397150051204,179.0,1077.0
