button_choice,action_choice,coordinate_choice,reward,cumulative_reward,rt,total_trial_time,iti,block_n,trial_n
R,U,"[2, 3]",-2.0,0.0,1.8009798526763916,3.234705924987793,0.402340265372361,0.0,1.0
R,U,"[1, 3]",1.0,1.0,0.4450719356536865,1.9224238395690918,0.45812622169634054,0.0,2.0
B,L,"[1, 2]",1.0,2.0,0.6864449977874756,2.1347930431365967,0.44299259163099247,0.0,3.0
G,D,"[2, 2]",1.0,3.0,0.9425928592681885,2.496358871459961,0.5558594653676445,0.0,4.0
Y,R,"[2, 3]",0.0,3.0,0.5042610168457031,1.8289148807525635,0.3181892980258528,0.0,5.0
R,U,"[1, 3]",0.0,3.0,0.6959590911865234,2.2929790019989014,0.5942542784464396,0.0,6.0
,,"(3, 3)",,,,,,0.0,
R,U,"[2, 3]",-1.0,-1.0,0.8189520835876465,7.646528959274292,0.6241648617007693,,7.0
B,L,"[2, 2]",1.0,0.0,0.28598809242248535,1.8782989978790283,0.5856202274798847,1.0,8.0
G,D,"[3, 2]",1.0,1.0,0.30168795585632324,1.7605149745941162,0.4462152243381579,1.0,9.0
R,U,"[2, 2]",0.0,1.0,0.45313191413879395,1.7775161266326904,0.30727224953861343,1.0,10.0
R,U,"[1, 2]",1.0,2.0,0.5694708824157715,2.146230936050415,0.5697513495311668,1.0,11.0
Y,R,"[1, 3]",1.0,3.0,0.4648888111114502,2.21012282371521,0.746183701026084,1.0,12.0
,,"(3, 3)",,,,,,1.0,
Y,R,"[3, 4]",-1.0,-1.0,0.6580550670623779,7.352304935455322,0.5985125442916233,,13.0
R,U,"[2, 4]",-1.0,-2.0,0.4921541213989258,1.8691680431365967,0.3678909175346251,2.0,14.0
R,U,"[1, 4]",-1.0,-3.0,0.581610918045044,1.904306173324585,0.32215110022221316,2.0,15.0
G,D,"[2, 4]",0.0,-3.0,0.3677058219909668,2.016948938369751,0.6386900175678318,2.0,16.0
B,L,"[2, 3]",-1.0,-4.0,0.2581908702850342,1.554900884628296,0.2938461443403294,2.0,17.0
Y,R,"[2, 4]",0.0,-4.0,0.7861289978027344,2.357473850250244,0.5676364136891994,2.0,18.0
,,"(3, 3)",,,,,,2.0,
R,U,"[2, 3]",-2.0,0.0,1.077214002609253,5.684351921081543,0.3686494883151598,,19.0
R,U,"[1, 3]",1.0,1.0,0.28734612464904785,2.031697988510132,0.7332399438529835,3.0,20.0
B,L,"[1, 2]",1.0,2.0,0.5041220188140869,2.1649110317230225,0.6480853271884266,3.0,21.0
G,D,"[2, 2]",1.0,3.0,0.28046393394470215,1.8146090507507324,0.5294498754692357,3.0,22.0
Y,R,"[2, 3]",0.0,3.0,0.24810385704040527,1.5055060386657715,0.2518862889891497,3.0,23.0
B,L,"[2, 2]",0.0,3.0,0.6419939994812012,1.9394540786743164,0.2912362962241224,3.0,24.0
,,"(3, 3)",,,,,,3.0,
R,U,"[2, 3]",-1.0,-1.0,0.7596900463104248,4.456605911254883,0.6138008585523642,,25.0
G,D,"[3, 3]",0.0,-1.0,0.2474839687347412,1.639601230621338,0.3870263922003671,4.0,26.0
Y,R,"[3, 4]",-1.0,-2.0,0.3259119987487793,1.6823108196258545,0.35265809542641624,4.0,27.0
B,L,"[3, 3]",0.0,-2.0,0.3016691207885742,1.75478196144104,0.4405500922346917,4.0,28.0
R,U,"[2, 3]",0.0,-2.0,0.6876890659332275,2.2117671966552734,0.5353512414588995,4.0,29.0
G,D,"[3, 3]",0.0,-2.0,0.41506099700927734,1.9230730533599854,0.5084545478727696,4.0,30.0
,,"(3, 3)",,,,,,4.0,
R,U,"[2, 3]",-1.0,-1.0,0.6472699642181396,7.378108978271484,0.25318249900513407,,31.0
B,L,"[2, 2]",1.0,0.0,0.23022794723510742,1.8271141052246094,0.5797280717281794,5.0,32.0
G,D,"[3, 2]",1.0,1.0,0.4651050567626953,2.011746883392334,0.5247522593370313,5.0,33.0
B,L,"[3, 1]",1.0,2.0,0.2873411178588867,1.61045503616333,0.3186744414022861,5.0,34.0
G,D,"[4, 1]",-1.0,1.0,0.20270395278930664,1.8110549449920654,0.5959216406007682,5.0,35.0
Y,R,"[4, 2]",-1.0,0.0,0.22296714782714844,1.6871740818023682,0.45003375340729934,5.0,36.0
,,"(3, 3)",,,,,,5.0,
B,L,"[3, 2]",1.0,1.0,0.9505600929260254,4.963181018829346,0.4963510811943382,,37.0
B,L,"[3, 1]",1.0,2.0,0.42025113105773926,1.7254068851470947,0.28884090447106187,6.0,38.0
B,L,"[3, 0]",0.0,2.0,0.5904769897460938,2.129189968109131,0.5346138546404661,6.0,39.0
G,D,"[4, 0]",0.0,2.0,0.19326305389404297,1.9088189601898193,0.7101455541572178,6.0,40.0
R,U,"[3, 0]",0.0,2.0,0.2852969169616699,1.8761820793151855,0.6032896698067379,6.0,41.0
Y,R,"[3, 1]",0.0,2.0,0.26798486709594727,1.5277471542358398,0.26488250198217933,6.0,42.0
,,"(3, 3)",,,,,,6.0,
B,L,"[3, 2]",1.0,1.0,0.5845580101013184,4.2671051025390625,0.3156174970516927,,43.0
G,D,"[4, 2]",-1.0,0.0,0.21624493598937988,1.9580779075622559,0.7234583062097961,7.0,44.0
B,L,"[4, 1]",-1.0,-1.0,0.263261079788208,1.710425853729248,0.45094100796949144,7.0,45.0
Y,R,"[4, 2]",0.0,-1.0,0.20765399932861328,1.8150849342346191,0.5993302562452546,7.0,46.0
R,U,"[3, 2]",0.0,-1.0,0.2711751461029053,1.8898661136627197,0.6059088952078637,7.0,47.0
R,U,"[2, 2]",1.0,0.0,0.7117221355438232,2.353372097015381,0.6425248795258149,7.0,48.0
,,"(3, 3)",,,,,,7.0,
R,U,"[2, 3]",-1.0,-1.0,0.32174205780029297,6.149397134780884,0.7423332544594767,,49.0
B,L,"[2, 2]",1.0,0.0,0.21329593658447266,1.5395138263702393,0.3157040753875772,8.0,50.0
B,L,"[2, 1]",1.0,1.0,0.197282075881958,1.6018309593200684,0.40084295876809994,8.0,51.0
Y,R,"[2, 2]",0.0,1.0,0.2442021369934082,1.8097541332244873,0.5606031453878577,8.0,52.0
B,L,"[2, 1]",0.0,1.0,0.37342405319213867,2.1109070777893066,0.7378571282718469,8.0,53.0
G,D,"[3, 1]",1.0,2.0,0.24863290786743164,1.8262500762939453,0.5645658321216853,8.0,54.0
,,"(3, 3)",,,,,,8.0,
G,D,"[4, 3]",-1.0,-1.0,0.461698055267334,4.69337010383606,0.42492106261221335,,55.0
R,U,"[3, 3]",0.0,-1.0,0.4872589111328125,2.2142748832702637,0.7222402137661912,9.0,56.0
B,L,"[3, 2]",1.0,0.0,0.16768193244934082,1.5310759544372559,0.3538192244340528,9.0,57.0
B,L,"[3, 1]",1.0,1.0,0.40837597846984863,1.7386600971221924,0.32576628040674394,9.0,58.0
B,L,"[3, 0]",0.0,1.0,0.6130208969116211,2.230968952178955,0.6231613650860953,9.0,59.0
Y,R,"[3, 1]",0.0,1.0,0.22993707656860352,1.7620608806610107,0.5353989124252541,9.0,60.0
,,"(3, 3)",,,,,,9.0,
Y,R,"[3, 4]",-1.0,-1.0,0.9170730113983154,5.007179021835327,0.4427517673571115,,61.0
G,D,"[4, 4]",-1.0,-2.0,0.19535613059997559,1.8785738945007324,0.6877919199589121,10.0,62.0
B,L,"[4, 3]",-1.0,-3.0,0.20813488960266113,1.5491621494293213,0.337326182739927,10.0,63.0
R,U,"[3, 3]",0.0,-3.0,0.2263801097869873,1.6831929683685303,0.45376767248340427,10.0,64.0
R,U,"[2, 3]",-1.0,-4.0,0.21309804916381836,1.879828929901123,0.6502090410480179,10.0,65.0
G,D,"[3, 3]",0.0,-4.0,0.45047998428344727,2.1093850135803223,0.6429164477394298,10.0,66.0
,,"(3, 3)",,,,,,10.0,
R,U,"[2, 3]",-1.0,-1.0,0.6658689975738525,5.698124885559082,0.6575795585717104,,67.0
B,L,"[2, 2]",1.0,0.0,0.3503429889678955,1.9378440380096436,0.5788571105221731,11.0,68.0
B,L,"[2, 1]",-1.0,0.0,0.0800628662109375,5.695468902587891,0.4745685655864987,11.0,69.0
B,L,"[2, 0]",0.0,0.0,0.28493618965148926,1.5678482055664062,0.2759143288953919,11.0,70.0
G,D,"[3, 0]",0.0,0.0,0.3050999641418457,1.8951489925384521,0.5875346051169394,11.0,71.0
B,L,"[3, 0]",0.0,0.0,0.2632780075073242,1.921356201171875,0.6586558222883101,11.0,72.0
,,"(3, 3)",,,,,,11.0,
B,L,"[3, 2]",1.0,1.0,0.7926459312438965,6.400511026382446,0.7259319590225699,,73.0
B,L,"[3, 1]",1.0,2.0,0.23479008674621582,1.5364289283752441,0.3125612731471338,12.0,74.0
G,D,"[4, 1]",-1.0,1.0,0.3378331661224365,1.8764619827270508,0.5389447077840032,12.0,75.0
R,U,"[3, 1]",0.0,1.0,0.24521708488464355,1.8538150787353516,0.6093254803152586,12.0,76.0
B,L,"[3, 0]",0.0,1.0,0.26525402069091797,1.9006900787353516,0.6432567691609146,12.0,77.0
Y,R,"[3, 1]",0.0,1.0,0.3125278949737549,1.8363239765167236,0.5297114845542785,12.0,78.0
,,"(3, 3)",,,,,,12.0,
B,L,"[3, 2]",1.0,1.0,0.6743121147155762,3.8710339069366455,0.7004627685246367,,79.0
G,D,"[4, 2]",-1.0,0.0,0.40390610694885254,1.904383897781372,0.48832162888780306,13.0,80.0
R,U,"[3, 2]",0.0,0.0,0.2479410171508789,1.5773699283599854,0.33258610527092325,13.0,81.0
B,L,"[3, 1]",1.0,1.0,0.24180889129638672,1.810088872909546,0.5590644714475175,13.0,82.0
R,U,"[2, 1]",1.0,2.0,0.3137028217315674,1.680832862854004,0.3734172683765171,13.0,83.0
R,U,"[1, 1]",-1.0,1.0,0.9575932025909424,2.230677843093872,0.27077426516476105,13.0,84.0
,,"(3, 3)",,,,,,13.0,
B,L,"[3, 2]",1.0,1.0,0.6090230941772461,5.62603497505188,0.49647811629663435,,85.0
R,U,"[2, 2]",1.0,2.0,0.3110229969024658,1.8063430786132812,0.48612632983377385,14.0,86.0
G,D,"[3, 2]",0.0,2.0,0.27314114570617676,1.9187920093536377,0.6381855466722364,14.0,87.0
B,L,"[3, 1]",1.0,3.0,0.22145915031433105,1.6905279159545898,0.46203580342199035,14.0,88.0
B,L,"[3, 0]",0.0,3.0,0.3912961483001709,2.130439043045044,0.7420106662605033,14.0,89.0
Y,R,"[3, 1]",0.0,3.0,0.31110405921936035,1.9064300060272217,0.5987065403349782,14.0,90.0
,,"(3, 3)",,,,,,14.0,
G,D,"[4, 3]",-1.0,-1.0,0.9604439735412598,4.796416997909546,0.4451184988775536,,91.0
R,U,"[3, 3]",0.0,-1.0,0.2085268497467041,1.8406529426574707,0.6357059264478724,15.0,92.0
R,U,"[2, 3]",-1.0,-2.0,0.23442506790161133,1.983119010925293,0.7358636681395122,15.0,93.0
B,L,"[2, 2]",-1.0,-2.0,0.09904599189758301,5.7658140659332275,0.5344441420474897,15.0,94.0
B,L,"[2, 1]",1.0,-1.0,0.4475550651550293,1.7957589626312256,0.33042750690876926,15.0,95.0
B,L,"[2, 0]",0.0,-1.0,0.46649885177612305,2.1887691020965576,0.7186476600795433,15.0,96.0
,,"(3, 3)",,,,,,15.0,
R,U,"[2, 3]",-1.0,-1.0,0.5362660884857178,4.350048065185547,0.3358445170111652,,97.0
G,D,"[3, 3]",0.0,-1.0,0.2333240509033203,1.973607063293457,0.7421013381919912,16.0,98.0
Y,R,"[3, 4]",-1.0,-2.0,0.2888171672821045,1.5889649391174316,0.2982813821039658,16.0,99.0
B,L,"[3, 3]",0.0,-2.0,0.26799702644348145,1.6297268867492676,0.3444570741602353,16.0,100.0
B,L,"[3, 2]",1.0,-1.0,0.3772439956665039,2.035374879837036,0.6629366195228925,16.0,101.0
R,U,"[2, 2]",1.0,0.0,0.6673541069030762,2.1859469413757324,0.4988884249966893,16.0,102.0
,,"(3, 3)",,,,,,16.0,
B,L,"[3, 2]",1.0,1.0,0.9127509593963623,4.066498041152954,0.34892503970071265,,103.0
R,U,"[2, 2]",1.0,2.0,0.3554999828338623,1.7264220714569092,0.3586477069651914,17.0,104.0
G,D,"[3, 2]",0.0,2.0,0.45311713218688965,1.8350830078125,0.37688584116397345,17.0,105.0
Y,R,"[3, 3]",0.0,2.0,0.36861610412597656,1.6421241760253906,0.2856100698337795,17.0,106.0
Y,R,"[3, 4]",-1.0,1.0,0.44466090202331543,2.12943696975708,0.6812303578739356,17.0,107.0
B,L,"[3, 3]",0.0,1.0,0.5914180278778076,2.1689488887786865,0.5668924891452729,17.0,108.0
,,"(3, 3)",,,,,,17.0,
Y,R,"[3, 4]",-1.0,-1.0,0.610692024230957,3.927664041519165,0.3947188092135571,,109.0
B,L,"[3, 3]",0.0,-1.0,0.4612879753112793,2.124023914337158,0.6683391383311694,18.0,110.0
B,L,"[3, 2]",1.0,0.0,0.40297484397888184,1.6782329082489014,0.2635002605467015,18.0,111.0
R,U,"[2, 2]",1.0,1.0,0.2596909999847412,1.7753920555114746,0.5053038865397816,18.0,112.0
G,D,"[3, 2]",0.0,1.0,0.4300971031188965,2.1306071281433105,0.7024586686756411,18.0,113.0
R,U,"[2, 2]",0.0,1.0,0.6742749214172363,1.9531140327453613,0.2726135698745516,18.0,114.0
,,"(3, 3)",,,,,,18.0,
B,L,"[3, 2]",1.0,1.0,0.7244651317596436,4.47825813293457,0.3005886453086493,,115.0
R,U,"[2, 2]",1.0,2.0,0.5166809558868408,2.0523340702056885,0.5193306744900801,19.0,116.0
Y,R,"[2, 3]",-1.0,1.0,0.4669318199157715,2.1531949043273926,0.672237889902,19.0,117.0
G,D,"[3, 3]",0.0,1.0,0.3108799457550049,1.7334518432617188,0.42256383057973995,19.0,118.0
B,L,"[3, 2]",0.0,1.0,0.423612117767334,2.1713638305664062,0.7435504363567781,19.0,119.0
R,U,"[2, 2]",0.0,1.0,0.29611992835998535,1.5799338817596436,0.2905465986493274,19.0,120.0
,,"(3, 3)",,,,,,19.0,
Y,R,"[3, 4]",-1.0,-1.0,0.8613951206207275,5.600791931152344,0.5242884808433514,,121.0
G,D,"[4, 4]",-1.0,-2.0,0.3498809337615967,1.6514360904693604,0.2925190832935988,20.0,122.0
G,D,"[5, 4]",-1.0,-3.0,0.28395700454711914,2.035114049911499,0.7437700480167616,20.0,123.0
B,L,"[5, 3]",-1.0,-4.0,0.2967379093170166,1.6150081157684326,0.30921143939416423,20.0,124.0
B,L,"[5, 2]",-1.0,-5.0,0.2713479995727539,2.015277147293091,0.7406968380329165,20.0,125.0
R,U,"[4, 2]",-1.0,-6.0,0.29147887229919434,1.6505908966064453,0.3582074826061118,20.0,126.0
,,"(3, 3)",,,,,,20.0,
B,L,"[3, 2]",1.0,1.0,0.8736090660095215,4.540931940078735,0.29905210156015677,,127.0
B,L,"[3, 1]",1.0,2.0,0.565608024597168,1.9178338050842285,0.3500430350470927,21.0,128.0
R,U,"[2, 1]",1.0,3.0,0.478132963180542,1.8922748565673828,0.40903019004431707,21.0,129.0
R,U,"[1, 1]",-1.0,2.0,0.5229549407958984,2.069462776184082,0.5448028263957925,21.0,130.0
B,L,"[1, 0]",0.0,2.0,0.5752890110015869,2.031251907348633,0.4595162159662661,21.0,131.0
G,D,"[2, 0]",0.0,2.0,0.2705390453338623,2.0006279945373535,0.7430078288430148,21.0,132.0
,,"(3, 3)",,,,,,21.0,
B,L,"[3, 2]",-2.0,0.0,1.0346128940582275,4.457803010940552,0.33460379496062626,,133.0
B,L,"[3, 1]",1.0,1.0,0.21630001068115234,1.7193388938903809,0.486839352508847,22.0,134.0
R,U,"[2, 1]",1.0,2.0,0.22295498847961426,1.7224299907684326,0.4926478371127357,22.0,135.0
B,L,"[2, 0]",0.0,2.0,0.3042640686035156,1.7946648597717285,0.5039881664087282,22.0,136.0
R,U,"[1, 0]",0.0,2.0,0.24164199829101562,1.783728837966919,0.5375176544535378,22.0,137.0
G,D,"[2, 0]",0.0,2.0,0.23208308219909668,1.8651537895202637,0.6357305797436996,22.0,138.0
,,"(3, 3)",,,,,,22.0,
R,U,"[2, 3]",-1.0,-1.0,0.6409080028533936,5.715327978134155,0.3345373464641817,,139.0
B,L,"[2, 2]",1.0,0.0,0.6099140644073486,2.066565990447998,0.4509619058757007,23.0,140.0
G,D,"[3, 2]",1.0,1.0,0.4564859867095947,1.8816518783569336,0.41616669898992736,23.0,141.0
B,L,"[3, 1]",1.0,2.0,0.5009980201721191,1.8874421119689941,0.3700616929597094,23.0,142.0
R,U,"[2, 1]",1.0,3.0,0.48178911209106445,2.0198371410369873,0.5399235674882255,23.0,143.0
Y,R,"[2, 2]",0.0,3.0,0.694054126739502,2.183274030685425,0.49041061065557917,23.0,144.0
,,"(3, 3)",,,,,,23.0,
R,U,"[2, 3]",-1.0,-1.0,0.5713081359863281,6.056140899658203,0.5967388239665024,,145.0
B,L,"[2, 2]",1.0,0.0,0.3012850284576416,2.043586015701294,0.7236156032475762,24.0,146.0
G,D,"[3, 2]",1.0,1.0,0.2520599365234375,1.6572818756103516,0.3980619309685252,24.0,147.0
B,L,"[3, 1]",1.0,2.0,0.3285660743713379,1.6420040130615234,0.3067501551938727,24.0,148.0
R,U,"[2, 1]",1.0,3.0,0.5732338428497314,2.052406072616577,0.4758854955087611,24.0,149.0
G,D,"[3, 1]",0.0,3.0,0.4663279056549072,2.237809181213379,0.7471311338513582,24.0,150.0
,,"(3, 3)",,,,,,24.0,
B,L,"[3, 2]",1.0,1.0,0.9395461082458496,5.132143974304199,0.31332010607066335,,151.0
R,U,"[2, 2]",1.0,2.0,0.28014707565307617,1.6075360774993896,0.32089487809510875,25.0,152.0
G,D,"[3, 2]",0.0,2.0,0.7103168964385986,2.0909531116485596,0.378602591245654,25.0,153.0
R,U,"[2, 2]",0.0,2.0,0.278062105178833,1.7441411018371582,0.4726478097943101,25.0,154.0
B,L,"[2, 1]",1.0,3.0,0.21111392974853516,1.683568000793457,0.4729539374541524,25.0,155.0
B,L,"[2, 0]",0.0,3.0,0.5048141479492188,2.1994588375091553,0.68899300708947,25.0,156.0
,,"(3, 3)",,,,,,25.0,
Y,R,"[3, 4]",-1.0,-1.0,0.9001209735870361,5.611770153045654,0.7012861793228894,,157.0
G,D,"[4, 4]",-1.0,-2.0,0.3013880252838135,1.6254470348358154,0.31035333802707116,26.0,158.0
B,L,"[4, 3]",-1.0,-3.0,0.2586991786956787,1.7284750938415527,0.4720591377589917,26.0,159.0
B,L,"[4, 2]",-1.0,-4.0,0.3554561138153076,1.9787120819091797,0.6174101126213027,26.0,160.0
R,U,"[3, 2]",1.0,-3.0,0.27019286155700684,1.613281011581421,0.33104760235592134,26.0,161.0
R,U,"[2, 2]",1.0,-2.0,0.2498180866241455,1.6397161483764648,0.3707915549214263,26.0,162.0
,,"(3, 3)",,,,,,26.0,
R,U,"[2, 3]",-1.0,-1.0,0.6201860904693604,4.367627143859863,0.48854066488329295,,163.0
B,L,"[2, 2]",1.0,0.0,0.2658851146697998,1.723499059677124,0.4454631349021804,27.0,164.0
B,L,"[2, 1]",1.0,1.0,0.34636497497558594,1.8565659523010254,0.5185587136492409,27.0,165.0
G,D,"[3, 1]",1.0,2.0,0.5106849670410156,2.1025028228759766,0.588021116523693,27.0,166.0
G,D,"[4, 1]",-1.0,1.0,0.33382105827331543,1.8967509269714355,0.5515358398964723,27.0,167.0
B,L,"[4, 0]",0.0,1.0,0.3385648727416992,1.620162010192871,0.2719534264871622,27.0,168.0
,,"(3, 3)",,,,,,27.0,
B,L,"[3, 2]",1.0,1.0,0.8566389083862305,5.929637908935547,0.268668175660158,,169.0
B,L,"[3, 1]",1.0,2.0,0.28110504150390625,1.6922080516815186,0.4106966536546059,28.0,170.0
G,D,"[4, 1]",-1.0,1.0,0.21474599838256836,1.637049913406372,0.41444749163610134,28.0,171.0
R,U,"[3, 1]",0.0,1.0,0.22980499267578125,1.5344500541687012,0.299064970724943,28.0,172.0
B,L,"[3, 0]",0.0,1.0,0.2538759708404541,1.6871271133422852,0.4195615738204824,28.0,173.0
R,U,"[2, 0]",0.0,1.0,0.23744511604309082,1.9087681770324707,0.6448336023233368,28.0,174.0
,,"(3, 3)",,,,,,28.0,
B,L,"[3, 2]",1.0,1.0,0.730557918548584,3.9342551231384277,0.5792387478204895,,175.0
R,U,"[2, 2]",1.0,2.0,0.26511311531066895,1.5089340209960938,0.2551616161190358,29.0,176.0
B,L,"[2, 1]",1.0,3.0,0.3046000003814697,1.8983190059661865,0.6033034325598472,29.0,177.0
G,D,"[3, 1]",1.0,4.0,0.26653504371643066,1.5483520030975342,0.2686800350827092,29.0,178.0
B,L,"[3, 0]",0.0,4.0,0.36660289764404297,1.9512808322906494,0.5863781088840104,29.0,179.0
G,D,"[4, 0]",0.0,4.0,0.7826440334320068,2.1527528762817383,0.37268574140504257,29.0,180.0
,,"(3, 3)",,,,,,29.0,
B,L,"[3, 2]",1.0,1.0,0.843040943145752,5.336871862411499,0.35971906001931275,,181.0
B,L,"[3, 1]",1.0,2.0,0.23545289039611816,1.936067819595337,0.6954849773851838,30.0,182.0
B,L,"[3, 0]",0.0,2.0,0.2691938877105713,1.7571392059326172,0.4863091380279267,30.0,183.0
R,U,"[2, 0]",0.0,2.0,0.21776509284973145,1.522947072982788,0.30936905860870423,30.0,184.0
G,D,"[3, 0]",0.0,2.0,0.26500582695007324,1.9210970401763916,0.6635688578796108,30.0,185.0
R,U,"[2, 0]",0.0,2.0,0.2578151226043701,1.9737179279327393,0.7039876614907995,30.0,186.0
,,"(3, 3)",,,,,,30.0,
B,L,"[3, 2]",1.0,1.0,0.832597017288208,4.2738120555877686,0.6942695798925294,,187.0
B,L,"[3, 1]",1.0,2.0,0.2897639274597168,2.022191047668457,0.7332822659170996,31.0,188.0
R,U,"[2, 1]",1.0,3.0,0.34059786796569824,1.7216901779174805,0.37206718367722663,31.0,189.0
R,U,"[1, 1]",-1.0,2.0,0.3587050437927246,1.6251130104064941,0.2641555935001657,31.0,190.0
G,D,"[2, 1]",0.0,2.0,0.24770402908325195,1.5857830047607422,0.33322426677689776,31.0,191.0
B,L,"[2, 0]",0.0,2.0,0.32265496253967285,1.8556559085845947,0.5219428895907112,31.0,192.0
,,"(3, 3)",,,,,,31.0,
Y,R,"[3, 4]",-1.0,-1.0,0.7755410671234131,3.9038870334625244,0.7423949137871118,,193.0
B,L,"[3, 3]",0.0,-1.0,0.4254138469696045,1.7288520336151123,0.30495543686111976,32.0,194.0
G,D,"[4, 3]",-1.0,-2.0,0.2882120609283447,1.7093310356140137,0.4142413563302131,32.0,195.0
R,U,"[3, 3]",0.0,-2.0,0.19556903839111328,1.7466099262237549,0.5440473189466755,32.0,196.0
B,L,"[3, 2]",1.0,-1.0,0.2573411464691162,1.9914629459381104,0.7351083568179642,32.0,197.0
B,L,"[3, 1]",1.0,0.0,0.3513758182525635,1.674316167831421,0.3102260009645011,32.0,198.0
,,"(3, 3)",,,,,,32.0,
R,U,"[2, 3]",-1.0,-1.0,0.5658230781555176,4.235987901687622,0.7125181370455244,,199.0
B,L,"[2, 2]",1.0,0.0,0.23080706596374512,1.8302700519561768,0.5928097303136228,33.0,200.0
B,L,"[2, 1]",1.0,1.0,0.27756309509277344,1.8992390632629395,0.6255457830788365,33.0,201.0
G,D,"[3, 1]",1.0,2.0,0.2573421001434326,1.5941588878631592,0.33648525907548077,33.0,202.0
R,U,"[2, 1]",0.0,2.0,0.2275829315185547,1.8955950736999512,0.6651652379436925,33.0,203.0
B,L,"[2, 0]",-1.0,2.0,0.036653995513916016,5.871258974075317,0.7031218135597315,33.0,204.0
,,"(3, 3)",,,,,,33.0,
B,L,"[3, 2]",1.0,1.0,0.7646942138671875,6.469671964645386,0.43979874610159087,,205.0
B,L,"[3, 1]",1.0,2.0,0.2487349510192871,1.9301910400390625,0.6864327663555756,34.0,206.0
R,U,"[2, 1]",1.0,3.0,0.2983241081237793,1.671314001083374,0.3580764168478467,34.0,207.0
B,L,"[2, 0]",0.0,3.0,0.2858290672302246,1.5729811191558838,0.2811677334096548,34.0,208.0
R,U,"[1, 0]",0.0,3.0,0.27840495109558105,1.7764029502868652,0.4906095854281422,34.0,209.0
G,D,"[2, 0]",0.0,3.0,0.23666620254516602,1.8628239631652832,0.6365447714619618,34.0,210.0
,,"(3, 3)",,,,,,34.0,
B,L,"[3, 2]",1.0,1.0,0.6219661235809326,4.9046759605407715,0.6581660671209172,,211.0
B,L,"[3, 1]",1.0,2.0,0.2845499515533447,1.7385461330413818,0.46343064937438,35.0,212.0
G,D,"[4, 1]",-1.0,1.0,0.272367000579834,1.721200942993164,0.43478269431786376,35.0,213.0
R,U,"[3, 1]",0.0,1.0,0.22780990600585938,1.842545986175537,0.6103905777721548,35.0,214.0
B,L,"[3, 0]",0.0,1.0,0.21356606483459473,1.6863069534301758,0.4802469215980987,35.0,215.0
G,D,"[4, 0]",0.0,1.0,0.23957300186157227,1.9840469360351562,0.7306854534328411,35.0,216.0
,,"(3, 3)",,,,,,35.0,
B,L,"[3, 2]",1.0,1.0,0.6229360103607178,4.35526704788208,0.5197473368442493,,217.0
G,D,"[4, 2]",-1.0,0.0,0.22737479209899902,1.7828030586242676,0.5522389963712087,36.0,218.0
B,L,"[4, 1]",-1.0,-1.0,0.21610403060913086,1.7357888221740723,0.5048207511692555,36.0,219.0
B,L,"[4, 0]",0.0,-1.0,0.33578991889953613,1.9376659393310547,0.5923450265157646,36.0,220.0
R,U,"[3, 0]",0.0,-1.0,0.28156018257141113,1.7389349937438965,0.4646691781055713,36.0,221.0
B,L,"[3, 0]",0.0,-1.0,0.24964284896850586,1.599463939666748,0.34763232164258345,36.0,222.0
,,"(3, 3)",,,,,,36.0,
B,L,"[3, 2]",1.0,1.0,0.6339118480682373,4.171837091445923,0.40280433750692884,,223.0
B,L,"[3, 1]",1.0,2.0,0.2321181297302246,1.9025142192840576,0.6717450286940471,37.0,224.0
G,D,"[4, 1]",-1.0,1.0,0.21620798110961914,1.7102649211883545,0.48207889884233124,37.0,225.0
R,U,"[3, 1]",0.0,1.0,0.2578160762786865,1.6322720050811768,0.36449550946443904,37.0,226.0
R,U,"[2, 1]",1.0,2.0,0.2305741310119629,1.6728401184082031,0.43726292754337287,37.0,227.0
B,L,"[2, 0]",0.0,2.0,0.21476984024047852,1.4863150119781494,0.27380848753605214,37.0,228.0
,,"(3, 3)",,,,,,37.0,
B,L,"[3, 2]",1.0,1.0,0.7835860252380371,4.784344911575317,0.6412772898100156,,229.0
R,U,"[2, 2]",1.0,2.0,0.24229693412780762,1.7372119426727295,0.49535437607190996,38.0,230.0
R,U,"[1, 2]",1.0,3.0,0.33002591133117676,1.9189350605010986,0.5971977185038347,38.0,231.0
G,D,"[2, 2]",0.0,3.0,0.3107008934020996,1.660006046295166,0.3408462146914508,38.0,232.0
G,D,"[3, 2]",0.0,3.0,0.2807929515838623,2.0249550342559814,0.7488991800650413,38.0,233.0
B,L,"[3, 1]",1.0,4.0,0.3794841766357422,1.726585865020752,0.32576446210742643,38.0,234.0
,,"(3, 3)",,,,,,38.0,
B,L,"[3, 2]",1.0,1.0,0.6691489219665527,4.469616889953613,0.5785449429060248,,235.0
B,L,"[3, 1]",1.0,2.0,0.5473549365997314,1.826280117034912,0.2883098323740127,39.0,236.0
B,L,"[3, 0]",0.0,2.0,0.44112706184387207,2.000878095626831,0.5554726230796492,39.0,237.0
G,D,"[4, 0]",0.0,2.0,0.283174991607666,1.7289750576019287,0.4512468796286866,39.0,238.0
R,U,"[3, 0]",0.0,2.0,0.2558109760284424,1.5581510066986084,0.2928905407957303,39.0,239.0
G,D,"[4, 0]",0.0,2.0,0.2758219242095947,1.5934979915618896,0.31973939276276125,39.0,240.0
,,"(3, 3)",,,,,,39.0,
G,D,"[4, 3]",-1.0,-1.0,0.8553650379180908,3.9781930446624756,0.281332624273766,,241.0
R,U,"[3, 3]",0.0,-1.0,0.22777080535888672,1.6646950244903564,0.429043942541595,40.0,242.0
B,L,"[3, 2]",1.0,0.0,0.24282217025756836,1.7322661876678467,0.4948741791166488,40.0,243.0
B,L,"[3, 1]",1.0,1.0,0.23557090759277344,1.5835719108581543,0.34506926562454165,40.0,244.0
B,L,"[3, 0]",0.0,1.0,0.31629085540771484,1.894299030303955,0.5723369408454648,40.0,245.0
R,U,"[2, 0]",0.0,1.0,0.23134207725524902,1.8703410625457764,0.6427104584992762,40.0,246.0
,,"(3, 3)",,,,,,40.0,
B,L,"[3, 2]",1.0,1.0,0.7281479835510254,3.913156032562256,0.3060429404720138,,247.0
R,U,"[2, 2]",1.0,2.0,0.29759788513183594,1.6720709800720215,0.3781130099680398,41.0,248.0
B,L,"[2, 1]",1.0,3.0,0.5565650463104248,2.153902053833008,0.5983856386858184,41.0,249.0
R,U,"[1, 1]",-1.0,2.0,0.30701112747192383,1.5997159481048584,0.2817321497616005,41.0,250.0
G,D,"[2, 1]",0.0,2.0,0.26328277587890625,1.5301978588104248,0.26197036899258513,41.0,251.0
B,L,"[2, 0]",0.0,2.0,0.25443506240844727,1.9305579662322998,0.6919967347541196,41.0,252.0
,,"(3, 3)",,,,,,41.0,
R,U,"[2, 3]",-1.0,-1.0,0.5290498733520508,3.503901958465576,0.5959465631666281,,253.0
G,D,"[3, 3]",0.0,-1.0,0.25768494606018066,1.9882471561431885,0.7173772913630199,42.0,254.0
B,L,"[3, 2]",1.0,0.0,0.2643461227416992,1.6942429542541504,0.41197740234285807,42.0,255.0
B,L,"[3, 1]",1.0,1.0,0.4770491123199463,1.9613959789276123,0.48997356571844136,42.0,256.0
B,L,"[3, 0]",0.0,1.0,0.3733959197998047,2.070410966873169,0.6933913660791323,42.0,257.0
R,U,"[2, 0]",0.0,1.0,0.500236988067627,1.9052660465240479,0.41572031012622673,42.0,258.0
,,"(3, 3)",,,,,,42.0,
B,L,"[3, 2]",1.0,1.0,0.9073600769042969,4.802803993225098,0.2851656110992304,,259.0
Y,R,"[3, 3]",0.0,1.0,0.4474949836730957,2.1670520305633545,0.7183951151913385,43.0,260.0
B,L,"[3, 2]",0.0,1.0,0.28253698348999023,1.993117094039917,0.7115058192598298,43.0,261.0
G,D,"[4, 2]",-1.0,0.0,0.35950398445129395,1.873218059539795,0.518221730111412,43.0,262.0
R,U,"[3, 2]",0.0,0.0,0.1852400302886963,1.7644498348236084,0.5658838685333156,43.0,263.0
B,L,"[3, 1]",1.0,1.0,0.28969788551330566,1.9967639446258545,0.6959247892032352,43.0,264.0
,,"(3, 3)",,,,,,43.0,
R,U,"[2, 3]",-1.0,-1.0,0.666071891784668,4.485208988189697,0.44802882214803924,,265.0
G,D,"[3, 3]",0.0,-1.0,0.22774696350097656,1.6985609531402588,0.46325295220595386,44.0,266.0
B,L,"[3, 2]",1.0,0.0,0.3036379814147949,1.7018208503723145,0.38166631124418693,44.0,267.0
B,L,"[3, 1]",1.0,1.0,0.34865713119506836,1.9715869426727295,0.6196778101390811,44.0,268.0
R,U,"[2, 1]",1.0,2.0,0.688060998916626,2.0554730892181396,0.35880946320997653,44.0,269.0
R,U,"[1, 1]",-1.0,1.0,0.27011990547180176,1.8354640007019043,0.5607096096430786,44.0,270.0
,,"(3, 3)",,,,,,44.0,
B,L,"[3, 2]",1.0,1.0,0.6243858337402344,4.37171483039856,0.7154884119830711,,271.0
G,D,"[4, 2]",-1.0,0.0,0.25414419174194336,1.6460390090942383,0.37851210271976166,45.0,272.0
B,L,"[4, 1]",-1.0,-1.0,0.24428701400756836,1.6389479637145996,0.4008578916212707,45.0,273.0
B,L,"[4, 0]",0.0,-1.0,0.3383669853210449,1.6137220859527588,0.26455982548896156,45.0,274.0
R,U,"[3, 0]",0.0,-1.0,0.21970605850219727,1.4746248722076416,0.255833136785914,45.0,275.0
B,L,"[3, 0]",0.0,-1.0,0.2481670379638672,1.5497009754180908,0.3054505824549002,45.0,276.0
,,"(3, 3)",,,,,,45.0,
B,L,"[3, 2]",1.0,1.0,0.7726662158966064,5.621297121047974,0.7261727776208707,,277.0
R,U,"[2, 2]",1.0,2.0,0.6297731399536133,2.0189239978790283,0.3954158453105131,46.0,278.0
G,D,"[3, 2]",0.0,2.0,0.3634510040283203,1.6434190273284912,0.28885380952593237,46.0,279.0
B,L,"[3, 1]",1.0,3.0,0.2652151584625244,1.7307748794555664,0.4527891549827339,46.0,280.0
R,U,"[2, 1]",1.0,4.0,0.3019521236419678,1.6204969882965088,0.3068973670935476,46.0,281.0
G,D,"[3, 1]",0.0,4.0,0.3843541145324707,1.958362102508545,0.564958179311293,46.0,282.0
,,"(3, 3)",,,,,,46.0,
B,L,"[3, 2]",1.0,1.0,0.6199889183044434,4.472770929336548,0.7373530441449774,,283.0
R,U,"[2, 2]",1.0,2.0,0.24433588981628418,1.9953980445861816,0.7493309702178808,47.0,284.0
B,L,"[2, 1]",1.0,3.0,0.28029704093933105,1.5637612342834473,0.2802016103526744,47.0,285.0
Y,R,"[2, 2]",0.0,3.0,0.8050229549407959,2.108696937561035,0.3057054050600037,47.0,286.0
R,U,"[1, 2]",1.0,4.0,0.21974992752075195,1.5555109977722168,0.3277148358515332,47.0,287.0
B,L,"[1, 1]",-1.0,3.0,0.2908029556274414,1.7181429862976074,0.4290727729316918,47.0,288.0
,,"(3, 3)",,,,,,47.0,
B,L,"[3, 2]",1.0,1.0,0.7050201892852783,4.3735151290893555,0.4191355556027991,,289.0
B,L,"[3, 1]",1.0,2.0,0.33302998542785645,1.7235019207000732,0.37613479386359955,48.0,290.0
G,D,"[4, 1]",-1.0,1.0,0.24055790901184082,1.8341188430786133,0.5932098055216237,48.0,291.0
B,L,"[4, 0]",0.0,1.0,0.20309090614318848,1.707798957824707,0.5011588682490826,48.0,292.0
R,U,"[3, 0]",0.0,1.0,0.1826188564300537,1.6246111392974854,0.4424267532015219,48.0,293.0
G,D,"[4, 0]",0.0,1.0,0.8208940029144287,2.2418971061706543,0.4176865481808521,48.0,294.0
,,"(3, 3)",,,,,,48.0,
B,L,"[3, 2]",1.0,1.0,0.6689119338989258,3.9285030364990234,0.4458498196759631,,295.0
B,L,"[3, 1]",1.0,2.0,0.33798789978027344,1.625749111175537,0.27192857122846514,49.0,296.0
R,U,"[2, 1]",1.0,3.0,0.24721693992614746,1.6586511135101318,0.4137986024805745,49.0,297.0
R,U,"[1, 1]",-1.0,2.0,0.36451196670532227,2.0142641067504883,0.6278218732857204,49.0,298.0
B,L,"[1, 0]",0.0,2.0,0.4626321792602539,2.1660990715026855,0.7104293516856058,49.0,299.0
B,L,"[1, 0]",0.0,2.0,0.26006603240966797,1.9675359725952148,0.7112774448655912,49.0,300.0
,,"(3, 3)",,,,,,49.0,
G,D,"[4, 3]",-1.0,-1.0,0.6370410919189453,4.384774923324585,0.46294685552948023,,301.0
B,L,"[4, 2]",-1.0,-2.0,0.27653002738952637,1.6423051357269287,0.35522374167744103,50.0,302.0
B,L,"[4, 1]",-1.0,-3.0,0.21614909172058105,1.9225289821624756,0.6941369325196929,50.0,303.0
R,U,"[3, 1]",1.0,-2.0,0.22063708305358887,1.4982998371124268,0.2761885411470148,50.0,304.0
R,U,"[2, 1]",1.0,-1.0,0.29976487159729004,1.78578782081604,0.47834450453996974,50.0,305.0
B,L,"[2, 0]",0.0,-1.0,0.3044900894165039,1.8415169715881348,0.5363447199942457,50.0,306.0
,,"(3, 3)",,,,,,50.0,
B,L,"[3, 2]",1.0,1.0,0.9492380619049072,6.143397092819214,0.5461829168577219,,307.0
R,U,"[2, 2]",1.0,2.0,0.3377079963684082,1.7052521705627441,0.3518129451529232,51.0,308.0
B,L,"[2, 1]",1.0,3.0,0.42393994331359863,2.0489768981933594,0.6170837855576059,51.0,309.0
R,U,"[1, 1]",-1.0,2.0,0.7318100929260254,2.0028889179229736,0.25363159923343104,51.0,310.0
G,D,"[2, 1]",0.0,2.0,0.26496291160583496,1.7267701625823975,0.46342097384364983,51.0,311.0
B,L,"[2, 0]",0.0,2.0,0.27557992935180664,1.7706670761108398,0.48405705984395603,51.0,312.0
,,"(3, 3)",,,,,,51.0,
B,L,"[3, 2]",1.0,1.0,0.6543011665344238,3.79544997215271,0.3962716038238579,,313.0
B,L,"[3, 1]",1.0,2.0,0.28417086601257324,1.813528060913086,0.5095517642992289,52.0,314.0
R,U,"[2, 1]",1.0,3.0,0.2792081832885742,1.8188650608062744,0.5449502751921702,52.0,315.0
R,U,"[1, 1]",-1.0,2.0,0.2398080825805664,1.8401520252227783,0.6017139737513217,52.0,316.0
G,D,"[2, 1]",0.0,2.0,0.2538449764251709,1.6035609245300293,0.33894827585247206,52.0,317.0
B,L,"[2, 0]",0.0,2.0,0.3018341064453125,1.95306396484375,0.6581446114783052,52.0,318.0
,,"(3, 3)",,,,,,52.0,
B,L,"[3, 2]",1.0,1.0,0.7025890350341797,4.505446910858154,0.36391320849669545,,319.0
B,L,"[3, 1]",1.0,2.0,0.31321096420288086,1.941467046737671,0.621621720743138,53.0,320.0
R,U,"[2, 1]",1.0,3.0,0.2480001449584961,1.9338419437408447,0.6887968915587825,53.0,321.0
G,D,"[3, 1]",0.0,3.0,0.266660213470459,1.9300918579101562,0.6522222022419369,53.0,322.0
B,L,"[3, 0]",0.0,3.0,0.27730798721313477,1.8152399063110352,0.5341707453365846,53.0,323.0
R,U,"[2, 0]",0.0,3.0,0.27770304679870605,1.8283991813659668,0.5458877951779111,53.0,324.0
,,"(3, 3)",,,,,,53.0,
R,U,"[2, 3]",-1.0,-1.0,0.6735420227050781,4.102977991104126,0.6486202518465003,,325.0
B,L,"[2, 2]",1.0,0.0,0.22479796409606934,1.5292179584503174,0.29491632797051665,54.0,326.0
B,L,"[2, 1]",1.0,1.0,0.2682530879974365,1.5672111511230469,0.2954412136544068,54.0,327.0
R,U,"[1, 1]",-1.0,0.0,0.25551795959472656,1.5111839771270752,0.2567264388734332,54.0,328.0
G,D,"[2, 1]",0.0,0.0,0.2469189167022705,1.8266079425811768,0.5828088396762245,54.0,329.0
Y,R,"[2, 2]",0.0,0.0,0.49276304244995117,2.245357036590576,0.7446870347156347,54.0,330.0
,,"(3, 3)",,,,,,54.0,
R,U,"[2, 3]",-1.0,-1.0,0.6830711364746094,4.416331052780151,0.46119808519281735,,331.0
G,D,"[3, 3]",0.0,-1.0,0.21675395965576172,1.5963289737701416,0.37418306498635,55.0,332.0
G,D,"[4, 3]",-1.0,-2.0,0.2092278003692627,1.9485070705413818,0.739096942875447,55.0,333.0
B,L,"[4, 2]",-1.0,-3.0,0.25388097763061523,1.9378490447998047,0.6769816059875642,55.0,334.0
B,L,"[4, 1]",-1.0,-4.0,0.27177000045776367,1.6770641803741455,0.40425823346357753,55.0,335.0
B,L,"[4, 0]",0.0,-4.0,0.4523298740386963,1.7576348781585693,0.29531363490094636,55.0,336.0
,,"(3, 3)",,,,,,55.0,
B,L,"[3, 2]",1.0,1.0,0.9237971305847168,4.862594842910767,0.6239856325218804,,337.0
B,L,"[3, 1]",1.0,2.0,0.3023710250854492,1.9459619522094727,0.6366642516654387,56.0,338.0
R,U,"[2, 1]",1.0,3.0,0.22403502464294434,1.735949993133545,0.5058569383710434,56.0,339.0
Y,R,"[2, 2]",1.0,4.0,0.3107030391693115,1.645226001739502,0.3346034962243677,56.0,340.0
G,D,"[3, 2]",0.0,4.0,0.29870009422302246,1.9976348876953125,0.6985497011252526,56.0,341.0
B,L,"[3, 1]",0.0,4.0,0.5408380031585693,2.0685930252075195,0.5173671158610778,56.0,342.0
,,"(3, 3)",,,,,,56.0,
B,L,"[3, 2]",1.0,1.0,0.5790660381317139,3.5119431018829346,0.34593740186245686,,343.0
B,L,"[3, 1]",1.0,2.0,0.26435399055480957,1.9530768394470215,0.6987373891937745,57.0,344.0
R,U,"[2, 1]",1.0,3.0,0.22686290740966797,1.6049120426177979,0.3705291187876171,57.0,345.0
Y,R,"[2, 2]",1.0,4.0,0.25882697105407715,1.913818120956421,0.6506961832765144,57.0,346.0
G,D,"[3, 2]",0.0,4.0,0.2582390308380127,1.9641108512878418,0.6981331501232539,57.0,347.0
B,L,"[3, 1]",0.0,4.0,0.6427631378173828,2.216610908508301,0.5646149385437795,57.0,348.0
,,"(3, 3)",,,,,,57.0,
B,L,"[3, 2]",1.0,1.0,0.7280559539794922,3.912437915802002,0.5605380031399211,,349.0
B,L,"[3, 1]",1.0,2.0,0.27808403968811035,1.6864910125732422,0.4135651213636785,58.0,350.0
R,U,"[2, 1]",1.0,3.0,0.21123194694519043,1.9635710716247559,0.7435674979692567,58.0,351.0
Y,R,"[2, 2]",1.0,4.0,0.2844109535217285,1.8509490489959717,0.5612764476151613,58.0,352.0
B,L,"[2, 1]",0.0,4.0,0.2874329090118408,1.8280971050262451,0.5395087624566319,58.0,353.0
R,U,"[1, 1]",-1.0,3.0,0.4810299873352051,1.8192269802093506,0.3253739645922454,58.0,354.0
,,"(3, 3)",,,,,,58.0,
B,L,"[3, 2]",1.0,1.0,0.6163430213928223,3.9287688732147217,0.6372749179698298,,355.0
B,L,"[3, 1]",1.0,2.0,0.2421870231628418,1.6058738231658936,0.36000498027720207,59.0,356.0
R,U,"[2, 1]",1.0,3.0,0.23724603652954102,1.6163690090179443,0.3762138152182242,59.0,357.0
Y,R,"[2, 2]",1.0,4.0,0.2816309928894043,1.6096560955047607,0.336134491752996,59.0,358.0
R,U,"[1, 2]",1.0,5.0,0.4970390796661377,2.0659000873565674,0.5682011874664963,59.0,359.0
G,D,"[2, 2]",0.0,5.0,0.35544300079345703,1.7447800636291504,0.3797576320223735,59.0,360.0
,,"(3, 3)",,,,,,59.0,
B,L,"[3, 2]",1.0,1.0,0.6507160663604736,3.293030023574829,0.27284656233752813,,361.0
B,L,"[3, 1]",1.0,2.0,0.3712608814239502,1.8863050937652588,0.5088720334335998,60.0,362.0
R,U,"[2, 1]",1.0,3.0,0.2551710605621338,1.5353682041168213,0.2777561050029888,60.0,363.0
Y,R,"[2, 2]",1.0,4.0,0.2566661834716797,1.8738470077514648,0.6180006728196703,60.0,364.0
R,U,"[1, 2]",1.0,5.0,0.48647499084472656,1.7900609970092773,0.29156850698630565,60.0,365.0
B,L,"[1, 1]",-1.0,4.0,0.3271751403808594,1.7616469860076904,0.4365306623060137,60.0,366.0
,,"(3, 3)",,,,,,60.0,
B,L,"[3, 2]",1.0,1.0,0.6491568088531494,4.792693138122559,0.7288268566906932,,367.0
B,L,"[3, 1]",1.0,2.0,0.2444901466369629,1.9161889553070068,0.6787649182297895,61.0,368.0
R,U,"[2, 1]",1.0,3.0,0.5047469139099121,2.24235200881958,0.7378975569816398,61.0,369.0
Y,R,"[2, 2]",1.0,4.0,0.2518148422241211,1.9351520538330078,0.673143598303249,61.0,370.0
R,U,"[1, 2]",1.0,5.0,0.18653202056884766,1.5316381454467773,0.338664394448326,61.0,371.0
R,U,"[0, 2]",0.0,5.0,0.6407039165496826,2.155545949935913,0.5108221141588899,61.0,372.0
,,"(3, 3)",,,,,,61.0,
B,L,"[3, 2]",1.0,1.0,0.5910859107971191,4.678104877471924,0.35607099292263644,,373.0
B,L,"[3, 1]",1.0,2.0,0.3011460304260254,1.7926740646362305,0.4820630668837564,62.0,374.0
R,U,"[2, 1]",1.0,3.0,0.9370739459991455,2.619126796722412,0.6676799401183344,62.0,375.0
Y,R,"[2, 2]",1.0,4.0,0.3135089874267578,1.6796720027923584,0.36445192773410373,62.0,376.0
R,U,"[1, 2]",1.0,5.0,0.2752687931060791,1.9755139350891113,0.6898144163614925,62.0,377.0
G,D,"[2, 2]",0.0,5.0,0.3401198387145996,2.0590829849243164,0.7155626210299483,62.0,378.0
,,"(3, 3)",,,,,,62.0,
B,L,"[3, 2]",1.0,1.0,0.7187800407409668,3.3387110233306885,0.40487774948808625,,379.0
B,L,"[3, 1]",1.0,2.0,0.24775290489196777,1.790607213973999,0.5453012135071555,63.0,380.0
R,U,"[2, 1]",1.0,3.0,0.22688698768615723,1.878350019454956,0.6570686032825165,63.0,381.0
Y,R,"[2, 2]",1.0,4.0,0.2676091194152832,1.9014880657196045,0.6252618955248043,63.0,382.0
R,U,"[1, 2]",1.0,5.0,0.22044610977172852,1.6052260398864746,0.38090531761338187,63.0,383.0
B,L,"[1, 1]",-1.0,4.0,0.24395203590393066,1.592655897140503,0.34043638312642716,63.0,384.0
,,"(3, 3)",,,,,,63.0,
B,L,"[3, 2]",1.0,1.0,0.6376478672027588,3.326692819595337,0.4171294675791711,,385.0
B,L,"[3, 1]",1.0,2.0,0.26027798652648926,1.5795619487762451,0.31358789636414586,64.0,386.0
R,U,"[2, 1]",1.0,3.0,0.3541429042816162,2.023648977279663,0.6537433218729716,64.0,387.0
Y,R,"[2, 2]",1.0,4.0,0.2205219268798828,1.7636308670043945,0.5342508018091927,64.0,388.0
R,U,"[1, 2]",1.0,5.0,0.22800207138061523,1.8583428859710693,0.6259335176128383,64.0,389.0
Y,R,"[1, 3]",1.0,6.0,0.26491498947143555,1.7346668243408203,0.477542544500251,64.0,390.0
,,"(3, 3)",,,,,,64.0,
B,L,"[3, 2]",1.0,1.0,0.7010278701782227,4.2084619998931885,0.31963483864276865,,391.0
B,L,"[3, 1]",1.0,2.0,0.22312402725219727,1.4830410480499268,0.2527828754819883,65.0,392.0
R,U,"[2, 1]",1.0,3.0,0.2883260250091553,1.7875950336456299,0.4903678697359425,65.0,393.0
Y,R,"[2, 2]",1.0,4.0,0.21056580543518066,1.4617249965667725,0.25241537930541685,65.0,394.0
R,U,"[1, 2]",1.0,5.0,0.2449190616607666,1.8473758697509766,0.5994315276758087,65.0,395.0
Y,R,"[1, 3]",1.0,6.0,0.25226902961730957,1.5949900150299072,0.3281586945154394,65.0,396.0
,,"(3, 3)",,,,,,65.0,
B,L,"[3, 2]",1.0,1.0,0.6978011131286621,4.091575860977173,0.4364083593539053,,397.0
B,L,"[3, 1]",1.0,2.0,0.22482609748840332,1.5725409984588623,0.34245634870783076,66.0,398.0
R,U,"[2, 1]",1.0,3.0,0.36922693252563477,1.7733440399169922,0.39913640751943846,66.0,399.0
Y,R,"[2, 2]",1.0,4.0,0.199113130569458,1.6396839618682861,0.42232128141253333,66.0,400.0
R,U,"[1, 2]",1.0,5.0,0.336651086807251,1.8407950401306152,0.4964499522648709,66.0,401.0
Y,R,"[1, 3]",1.0,6.0,0.2589089870452881,1.8317651748657227,0.5613778135325083,66.0,402.0
,,"(3, 3)",,,,,,66.0,
B,L,"[3, 2]",-1.0,-1.0,0.5867159366607666,3.783555030822754,0.4620678426311919,,403.0
G,D,"[4, 2]",1.0,0.0,0.39238595962524414,1.7470910549163818,0.35934731140564946,67.0,404.0
R,U,"[3, 2]",-1.0,-1.0,0.5638659000396729,1.9523060321807861,0.37831333730457295,67.0,405.0
B,L,"[3, 1]",1.0,0.0,0.890221118927002,2.599370002746582,0.7107514236146446,67.0,406.0
B,L,"[3, 0]",0.0,0.0,0.3780241012573242,1.9098730087280273,0.5376727468996491,67.0,407.0
G,D,"[4, 0]",0.0,0.0,0.29559803009033203,1.731868028640747,0.4363006741533366,67.0,408.0
,,"(3, 3)",,,,,,67.0,
Y,R,"[3, 4]",-1.0,-1.0,0.7778449058532715,3.5524280071258545,0.3722152666908153,,409.0
B,L,"[3, 3]",-2.0,-3.0,0.24538898468017578,1.587069034576416,0.3260905453080179,68.0,410.0
G,D,"[4, 3]",1.0,-2.0,0.26007699966430664,1.6487960815429688,0.3915601971368802,68.0,411.0
G,D,"[5, 3]",1.0,-1.0,0.3843860626220703,2.1402230262756348,0.7482011749361264,68.0,412.0
G,D,"[6, 3]",0.0,-1.0,0.4344170093536377,1.9244368076324463,0.47306130768740623,68.0,413.0
R,U,"[5, 3]",1.0,0.0,0.24663400650024414,1.8875880241394043,0.6272774469767363,68.0,414.0
,,"(3, 3)",,,,,,68.0,
G,D,"[4, 3]",1.0,1.0,0.48567700386047363,3.136444091796875,0.3973908168920912,,415.0
G,D,"[5, 3]",1.0,2.0,0.27228212356567383,1.7419660091400146,0.45582192327949494,69.0,416.0
R,U,"[4, 3]",1.0,3.0,0.37119293212890625,1.7254447937011719,0.3481838543954961,69.0,417.0
B,L,"[4, 2]",-2.0,3.0,1.2819600105285645,2.9591288566589355,0.640552725245314,69.0,418.0
B,L,"[4, 1]",1.0,4.0,0.5468649864196777,2.1442909240722656,0.5848833433992857,69.0,419.0
Y,R,"[4, 2]",1.0,5.0,0.2540621757507324,1.9099011421203613,0.6448111097654634,69.0,420.0
,,"(3, 3)",,,,,,69.0,
G,D,"[4, 3]",1.0,1.0,0.44920897483825684,3.384188175201416,0.3794461399470627,,421.0
G,D,"[5, 3]",1.0,2.0,0.23385286331176758,1.9547579288482666,0.6840291504736118,70.0,422.0
R,U,"[4, 3]",1.0,3.0,0.22628092765808105,1.7962310314178467,0.5637167839522768,70.0,423.0
Y,R,"[4, 4]",-1.0,2.0,0.21259403228759766,1.6677958965301514,0.43162994618604555,70.0,424.0
B,L,"[4, 3]",1.0,3.0,0.2737448215484619,1.5426340103149414,0.2579059926060165,70.0,425.0
B,L,"[4, 2]",1.0,4.0,0.4714541435241699,1.9130370616912842,0.43752790464332186,70.0,426.0
,,"(3, 3)",,,,,,70.0,
G,D,"[4, 3]",1.0,1.0,0.5824220180511475,3.510629892349243,0.3816937957387582,,427.0
G,D,"[5, 3]",1.0,2.0,0.26230502128601074,1.5499498844146729,0.2817811746517531,71.0,428.0
R,U,"[4, 3]",1.0,3.0,0.2883877754211426,1.6557490825653076,0.37074616097960933,71.0,429.0
B,L,"[4, 2]",1.0,4.0,0.20643401145935059,1.8082199096679688,0.5954996370900081,71.0,430.0
B,L,"[4, 1]",1.0,5.0,0.22657394409179688,1.7810261249542236,0.5599027282060697,71.0,431.0
Y,R,"[4, 2]",1.0,6.0,0.2801821231842041,1.6918361186981201,0.4180482272465377,71.0,432.0
,,"(3, 3)",,,,,,71.0,
G,D,"[4, 3]",1.0,1.0,0.366595983505249,3.1000449657440186,0.3688928029630061,,433.0
G,D,"[5, 3]",1.0,2.0,0.23638105392456055,1.8239572048187256,0.5759966975388487,72.0,434.0
R,U,"[4, 3]",1.0,3.0,0.25869202613830566,1.800304889678955,0.5431225169609153,72.0,435.0
B,L,"[4, 2]",1.0,4.0,0.21081185340881348,1.497600793838501,0.29091723337512715,72.0,436.0
Y,R,"[4, 3]",1.0,5.0,0.3429679870605469,1.9271018505096436,0.5843425256743622,72.0,437.0
Y,R,"[4, 4]",-1.0,4.0,0.23655295372009277,1.5479638576507568,0.29939362049264856,72.0,438.0
,,"(3, 3)",,,,,,72.0,
G,D,"[4, 3]",1.0,1.0,0.5407328605651855,3.183743953704834,0.4497290771310773,,439.0
G,D,"[5, 3]",1.0,2.0,0.2333540916442871,1.8097150325775146,0.5594830725179667,73.0,440.0
R,U,"[4, 3]",1.0,3.0,0.3434560298919678,1.8089380264282227,0.468517207862797,73.0,441.0
B,L,"[4, 2]",1.0,4.0,0.23102688789367676,1.5055160522460938,0.2743052492865793,73.0,442.0
B,L,"[4, 1]",1.0,5.0,0.2845888137817383,1.9369440078735352,0.6443112164596725,73.0,443.0
Y,R,"[4, 2]",1.0,6.0,0.2698540687561035,1.7444839477539062,0.4721971777021593,73.0,444.0
,,"(3, 3)",,,,,,73.0,
G,D,"[4, 3]",1.0,1.0,0.6282448768615723,3.3508598804473877,0.5064200894786399,,445.0
G,D,"[5, 3]",1.0,2.0,0.21678996086120605,1.675299882888794,0.4485840815213818,74.0,446.0
R,U,"[4, 3]",1.0,3.0,0.22054195404052734,1.6998751163482666,0.465400739957159,74.0,447.0
B,L,"[4, 2]",1.0,4.0,0.24460291862487793,1.8538050651550293,0.6021838827187175,74.0,448.0
B,L,"[4, 1]",1.0,5.0,0.13183999061584473,1.4289720058441162,0.2982566270762244,74.0,449.0
Y,R,"[4, 2]",1.0,6.0,0.2445511817932129,1.7184460163116455,0.4664723689801245,74.0,450.0
,,"(3, 3)",,,,,,74.0,
G,D,"[4, 3]",1.0,1.0,0.6872379779815674,3.6263461112976074,0.5428250436056427,,451.0
G,D,"[5, 3]",1.0,2.0,0.2044060230255127,1.5476949214935303,0.3408184872290951,75.0,452.0
R,U,"[4, 3]",1.0,3.0,0.3315889835357666,2.039050817489624,0.6962590319302218,75.0,453.0
B,L,"[4, 2]",1.0,4.0,0.22145318984985352,1.948477029800415,0.7280039687402293,75.0,454.0
B,L,"[4, 1]",-1.0,4.0,0.04234790802001953,5.4284608364105225,0.2737943763029116,75.0,455.0
B,L,"[4, 0]",0.0,4.0,0.3561069965362549,1.7982008457183838,0.4384881604194971,75.0,456.0
,,"(3, 3)",,,,,,75.0,
G,D,"[4, 3]",1.0,1.0,0.8357388973236084,3.9666128158569336,0.3719996905062481,,457.0
G,D,"[5, 3]",1.0,2.0,0.35645198822021484,1.8582699298858643,0.4972286521507822,76.0,458.0
R,U,"[4, 3]",1.0,3.0,0.24289584159851074,1.7657489776611328,0.5126582210707649,76.0,459.0
B,L,"[4, 2]",1.0,4.0,0.28789496421813965,1.5817580223083496,0.294641695876946,76.0,460.0
B,L,"[4, 1]",1.0,5.0,0.4007608890533447,1.714461088180542,0.30908635117711203,76.0,461.0
Y,R,"[4, 2]",1.0,6.0,0.35728907585144043,1.8200950622558594,0.46245442337080844,76.0,462.0
,,"(3, 3)",,,,,,76.0,
G,D,"[4, 3]",1.0,1.0,0.7790768146514893,4.018718957901001,0.6310238957819998,,463.0
G,D,"[5, 3]",1.0,2.0,0.2358839511871338,1.6011857986450195,0.34915639245713276,77.0,464.0
R,U,"[4, 3]",1.0,3.0,0.2902669906616211,1.8370530605316162,0.5360391213505296,77.0,465.0
B,L,"[4, 2]",1.0,4.0,0.23998618125915527,1.9816710948944092,0.7341960150147341,77.0,466.0
B,L,"[4, 1]",1.0,5.0,0.22488689422607422,1.7074859142303467,0.47547952866620413,77.0,467.0
Y,R,"[4, 2]",1.0,6.0,0.30173707008361816,1.8125898838043213,0.5046538274555332,77.0,468.0
,,"(3, 3)",,,,,,77.0,
G,D,"[4, 3]",1.0,1.0,0.609368085861206,3.94272780418396,0.6474438920645811,,469.0
G,D,"[5, 3]",1.0,2.0,0.25232601165771484,2.007398843765259,0.7379806591877713,78.0,470.0
R,U,"[4, 3]",1.0,3.0,0.2393171787261963,1.5061700344085693,0.26130439578983433,78.0,471.0
B,L,"[4, 2]",1.0,4.0,0.3688390254974365,1.7021410465240479,0.3468846300393771,78.0,472.0
B,L,"[4, 1]",1.0,5.0,0.2269611358642578,1.7725028991699219,0.5357858315266586,78.0,473.0
Y,R,"[4, 2]",1.0,6.0,0.2771430015563965,1.6245238780975342,0.3437162024779036,78.0,474.0
,,"(3, 3)",,,,,,78.0,
G,D,"[4, 3]",1.0,1.0,0.568202018737793,3.1144800186157227,0.3251455758384916,,475.0
G,D,"[5, 3]",1.0,2.0,0.2710559368133545,1.91566801071167,0.6403155711067186,79.0,476.0
R,U,"[4, 3]",1.0,3.0,0.2045760154724121,1.6240739822387695,0.4147593476199242,79.0,477.0
B,L,"[4, 2]",1.0,4.0,0.26028895378112793,1.931823968887329,0.6630800591862889,79.0,478.0
B,L,"[4, 1]",1.0,5.0,0.22983598709106445,1.8535239696502686,0.6167089109923514,79.0,479.0
Y,R,"[4, 2]",1.0,6.0,0.2778630256652832,1.9052679538726807,0.6220611412255397,79.0,480.0
,,"(3, 3)",,,,,,79.0,
G,D,"[4, 3]",1.0,1.0,0.5351898670196533,2.748095989227295,0.3037237171594518,,481.0
G,D,"[5, 3]",1.0,2.0,0.41106486320495605,2.0659070014953613,0.6527715626401703,80.0,482.0
R,U,"[4, 3]",1.0,3.0,0.26244187355041504,1.6921048164367676,0.42840089742369586,80.0,483.0
B,L,"[4, 2]",1.0,4.0,0.23616313934326172,1.5513818264007568,0.31333415574120577,80.0,484.0
Y,R,"[4, 3]",1.0,5.0,0.2785298824310303,1.6423819065093994,0.3556882157112212,80.0,485.0
B,L,"[4, 2]",1.0,6.0,0.9104509353637695,2.6246860027313232,0.7132845011105002,80.0,486.0
,,"(3, 3)",,,,,,80.0,
G,D,"[4, 3]",1.0,1.0,0.5378990173339844,2.978214979171753,0.32528870843617536,,487.0
G,D,"[5, 3]",1.0,2.0,0.23703408241271973,1.778695821762085,0.5370569173084214,81.0,488.0
R,U,"[4, 3]",1.0,3.0,0.720250129699707,2.3059959411621094,0.5929078834664188,81.0,489.0
B,L,"[4, 2]",1.0,4.0,0.2392268180847168,1.9354259967803955,0.6951743140833124,81.0,490.0
B,L,"[4, 1]",1.0,5.0,0.2131960391998291,1.587252140045166,0.38270389912400815,81.0,491.0
Y,R,"[4, 2]",1.0,6.0,0.28107500076293945,1.7805531024932861,0.4964780536681933,81.0,492.0
,,"(3, 3)",,,,,,81.0,
G,D,"[4, 3]",1.0,1.0,0.5833029747009277,2.508457899093628,0.42169299778259217,,493.0
G,D,"[5, 3]",1.0,2.0,0.19201898574829102,1.4723119735717773,0.27750955375907127,82.0,494.0
R,U,"[4, 3]",1.0,3.0,0.4212300777435303,2.097515106201172,0.6747249227241083,82.0,495.0
B,L,"[4, 2]",1.0,4.0,0.4045557975769043,1.7934901714324951,0.3852373237531734,82.0,496.0
B,L,"[4, 1]",1.0,5.0,0.39236998558044434,1.8404359817504883,0.44216112798603807,82.0,497.0
Y,R,"[4, 2]",1.0,6.0,0.45828890800476074,1.8909690380096436,0.4333166512193461,82.0,498.0
,,"(3, 3)",,,,,,82.0,
G,D,"[4, 3]",1.0,1.0,0.6967170238494873,3.0221681594848633,0.3223886608249748,,499.0
G,D,"[5, 3]",1.0,2.0,0.31867384910583496,1.8267230987548828,0.4988417274188737,83.0,500.0
R,U,"[4, 3]",1.0,3.0,0.30428600311279297,2.062747001647949,0.7446137682679006,83.0,501.0
B,L,"[4, 2]",1.0,4.0,0.24235010147094727,1.4886631965637207,0.2504928352762523,83.0,502.0
B,L,"[4, 1]",1.0,5.0,0.4595329761505127,1.77069091796875,0.3043827852550428,83.0,503.0
Y,R,"[4, 2]",1.0,6.0,0.41672515869140625,1.9778640270233154,0.5486274540782341,83.0,504.0
,,"(3, 3)",,,,,,83.0,
G,D,"[4, 3]",1.0,1.0,0.7449688911437988,3.0651090145111084,0.4141773511390035,,505.0
G,D,"[5, 3]",1.0,2.0,0.2667880058288574,1.829780101776123,0.5436889276754866,84.0,506.0
R,U,"[4, 3]",1.0,3.0,0.2965250015258789,1.631525993347168,0.34213476639340873,84.0,507.0
B,L,"[4, 2]",1.0,4.0,0.2831299304962158,1.8521361351013184,0.5607039108690949,84.0,508.0
B,L,"[4, 1]",1.0,5.0,0.24023008346557617,1.589500904083252,0.35054238590843545,84.0,509.0
Y,R,"[4, 2]",1.0,6.0,0.41739797592163086,1.8245480060577393,0.3917239897128014,84.0,510.0
,,"(3, 3)",,,,,,84.0,
G,D,"[4, 3]",1.0,1.0,0.7750101089477539,3.2434921264648438,0.6516900561066014,,511.0
G,D,"[5, 3]",1.0,2.0,0.5166881084442139,1.8207299709320068,0.2894710549642703,85.0,512.0
R,U,"[4, 3]",1.0,3.0,0.3441019058227539,1.6921570301055908,0.3479461573023342,85.0,513.0
B,L,"[4, 2]",1.0,4.0,0.37404298782348633,1.895371913909912,0.5100304011610753,85.0,514.0
B,L,"[4, 1]",1.0,5.0,0.3329958915710449,1.6696491241455078,0.3298871244057969,85.0,515.0
Y,R,"[4, 2]",1.0,6.0,0.36449599266052246,1.7975668907165527,0.42747191293318243,85.0,516.0
,,"(3, 3)",,,,,,85.0,
G,D,"[4, 3]",1.0,1.0,0.6599040031433105,3.2654218673706055,0.5093666745670158,,517.0
G,D,"[5, 3]",1.0,2.0,0.3758242130279541,1.8117318153381348,0.4378990651633114,86.0,518.0
R,U,"[4, 3]",1.0,3.0,0.4091498851776123,2.15419602394104,0.7418120150218688,86.0,519.0
B,L,"[4, 2]",1.0,4.0,0.19140887260437012,1.9410910606384277,0.7494975132150893,86.0,520.0
B,L,"[4, 1]",1.0,5.0,0.21224188804626465,1.547753095626831,0.3310757120676694,86.0,521.0
Y,R,"[4, 2]",1.0,6.0,0.35930705070495605,1.9749770164489746,0.6058296753447319,86.0,522.0
,,"(3, 3)",,,,,,86.0,
G,D,"[4, 3]",1.0,1.0,0.48999714851379395,2.9874048233032227,0.2770430446172286,,523.0
G,D,"[5, 3]",1.0,2.0,0.3054468631744385,1.615574836730957,0.30907568873100427,87.0,524.0
R,U,"[4, 3]",1.0,3.0,0.3189258575439453,1.602604866027832,0.2784338883808977,87.0,525.0
B,L,"[4, 2]",1.0,4.0,0.2649540901184082,1.8302037715911865,0.5750059216488104,87.0,526.0
B,L,"[4, 1]",1.0,5.0,0.25686097145080566,1.7148189544677734,0.4566065707847637,87.0,527.0
Y,R,"[4, 2]",1.0,6.0,0.3390660285949707,1.8574621677398682,0.514060176587586,87.0,528.0
,,"(3, 3)",,,,,,87.0,
G,D,"[4, 3]",1.0,1.0,0.7062249183654785,3.7552950382232666,0.5693296491406509,,529.0
G,D,"[5, 3]",1.0,2.0,0.24159002304077148,1.4975390434265137,0.2505140150905371,88.0,530.0
R,U,"[4, 3]",1.0,3.0,0.37758588790893555,1.8143880367279053,0.43138597725510214,88.0,531.0
B,L,"[4, 2]",1.0,4.0,0.25215911865234375,1.5351288318634033,0.2834210476808677,88.0,532.0
B,L,"[4, 1]",1.0,5.0,0.2552170753479004,1.625319004058838,0.3752442290860161,88.0,533.0
Y,R,"[4, 2]",1.0,6.0,0.24511003494262695,1.9205639362335205,0.6789078380728899,88.0,534.0
,,"(3, 3)",,,,,,88.0,
G,D,"[4, 3]",1.0,1.0,0.7668390274047852,3.3988561630249023,0.7112007348681579,,535.0
G,D,"[5, 3]",1.0,2.0,0.21268916130065918,1.8135368824005127,0.6081394163802466,89.0,536.0
R,U,"[4, 3]",1.0,3.0,0.20106005668640137,1.558718204498291,0.35042415877868677,89.0,537.0
B,L,"[4, 2]",1.0,4.0,0.25639891624450684,1.6198680400848389,0.35352807866262664,89.0,538.0
B,L,"[4, 1]",1.0,5.0,0.25011301040649414,1.8610820770263672,0.5977139695851572,89.0,539.0
Y,R,"[4, 2]",1.0,6.0,0.2186269760131836,1.82315993309021,0.5876847636401134,89.0,540.0
,,"(3, 3)",,,,,,89.0,
G,D,"[4, 3]",1.0,1.0,0.5636200904846191,3.2373268604278564,0.5915954451114336,,541.0
G,D,"[5, 3]",1.0,2.0,0.21251916885375977,1.7925739288330078,0.5841809619968048,90.0,542.0
R,U,"[4, 3]",1.0,3.0,0.21043610572814941,1.8186230659484863,0.6028768920081665,90.0,543.0
B,L,"[4, 2]",1.0,4.0,0.27902698516845703,1.7792551517486572,0.49890865525877637,90.0,544.0
B,L,"[4, 1]",1.0,5.0,0.22504711151123047,1.8800559043884277,0.6453912525975045,90.0,545.0
Y,R,"[4, 2]",1.0,6.0,0.24213409423828125,1.5525591373443604,0.31487284610784355,90.0,546.0
,,"(3, 3)",,,,,,90.0,
G,D,"[4, 3]",1.0,1.0,0.6291260719299316,3.2374961376190186,0.6190058214725422,,547.0
G,D,"[5, 3]",1.0,2.0,0.2000119686126709,1.5546009540557861,0.3404234236050486,91.0,548.0
R,U,"[4, 3]",1.0,3.0,0.3083682060241699,2.053576946258545,0.7435727896861817,91.0,549.0
B,L,"[4, 2]",1.0,4.0,0.2072129249572754,1.4991919994354248,0.2931711752220213,91.0,550.0
B,L,"[4, 1]",1.0,5.0,0.28825902938842773,1.673407793045044,0.38334350294064296,91.0,551.0
Y,R,"[4, 2]",1.0,6.0,0.3540809154510498,1.6186130046844482,0.2519336624166811,91.0,552.0
,,"(3, 3)",,,,,,91.0,
G,D,"[4, 3]",1.0,1.0,0.6827890872955322,3.7740530967712402,0.2595566888237581,,553.0
G,D,"[5, 3]",1.0,2.0,0.31082606315612793,1.6188099384307861,0.3115085916719099,92.0,554.0
R,U,"[4, 3]",1.0,3.0,0.297227144241333,1.7393438816070557,0.4507706252564053,92.0,555.0
B,L,"[4, 2]",1.0,4.0,0.2622811794281006,1.5391950607299805,0.2732223689690102,92.0,556.0
B,L,"[4, 1]",1.0,5.0,0.26900506019592285,1.6568009853363037,0.38009099081044384,92.0,557.0
Y,R,"[4, 2]",1.0,6.0,0.25542616844177246,1.7535309791564941,0.4834030634830564,92.0,558.0
,,"(3, 3)",,,,,,92.0,
G,D,"[4, 3]",1.0,1.0,0.6944270133972168,3.4969348907470703,0.5970508526282124,,559.0
G,D,"[5, 3]",1.0,2.0,0.2333509922027588,1.788849115371704,0.5525687923720944,93.0,560.0
R,U,"[4, 3]",1.0,3.0,0.1842818260192871,1.8847129344940186,0.6870860718780217,93.0,561.0
B,L,"[4, 2]",1.0,4.0,0.18216490745544434,1.4495339393615723,0.2704664015044395,93.0,562.0
Y,R,"[4, 3]",1.0,5.0,0.24712800979614258,1.8416740894317627,0.5950233213851724,93.0,563.0
B,L,"[4, 2]",1.0,6.0,0.19218802452087402,1.611725091934204,0.4236533776692554,93.0,564.0
,,"(3, 3)",,,,,,93.0,
G,D,"[4, 3]",1.0,1.0,0.817673921585083,3.595184087753296,0.5187432932152733,,565.0
G,D,"[5, 3]",1.0,2.0,0.18831300735473633,1.5795090198516846,0.38169375261650224,94.0,566.0
R,U,"[4, 3]",1.0,3.0,0.9540131092071533,2.3416590690612793,0.3735144828954206,94.0,567.0
B,L,"[4, 2]",1.0,4.0,0.26709508895874023,2.0184860229492188,0.741610597114607,94.0,568.0
Y,R,"[4, 3]",1.0,5.0,0.2148911952972412,1.5819790363311768,0.37394824788284964,94.0,569.0
B,L,"[4, 2]",1.0,6.0,0.21810698509216309,1.5333428382873535,0.3072118212230018,94.0,570.0
,,"(3, 3)",,,,,,94.0,
G,D,"[4, 3]",1.0,1.0,0.5957949161529541,3.14107084274292,0.4981086059831207,,571.0
G,D,"[5, 3]",1.0,2.0,0.18711113929748535,1.520392894744873,0.31866791237836883,95.0,572.0
R,U,"[4, 3]",1.0,3.0,0.29006290435791016,1.5892257690429688,0.29127858368560317,95.0,573.0
B,L,"[4, 2]",1.0,4.0,0.24597620964050293,1.5972929000854492,0.3553292678626504,95.0,574.0
Y,R,"[4, 3]",-1.0,4.0,0.08844709396362305,5.71576189994812,0.5041610238109167,95.0,575.0
Y,R,"[4, 4]",-1.0,3.0,0.37883901596069336,2.0671281814575195,0.67125285452669,95.0,576.0
,,"(3, 3)",,,,,,95.0,
G,D,"[4, 3]",1.0,1.0,0.9314091205596924,4.040131092071533,0.6611913292929783,,577.0
G,D,"[5, 3]",1.0,2.0,0.23295998573303223,1.5746300220489502,0.3361887918660773,96.0,578.0
R,U,"[4, 3]",1.0,3.0,0.2534830570220947,1.826828956604004,0.5628301841231864,96.0,579.0
Y,R,"[4, 4]",-1.0,2.0,0.51003098487854,1.8978769779205322,0.377537464556891,96.0,580.0
B,L,"[4, 3]",1.0,3.0,0.4147031307220459,1.8638560771942139,0.4416182501782823,96.0,581.0
Y,R,"[4, 4]",-1.0,2.0,0.22613787651062012,1.656290054321289,0.43097343443463315,96.0,582.0
,,"(3, 3)",,,,,,96.0,
G,D,"[4, 3]",1.0,1.0,0.6042580604553223,3.5121779441833496,0.7095542383048958,,583.0
G,D,"[5, 3]",1.0,2.0,0.21367692947387695,1.6737217903137207,0.46686246477664733,97.0,584.0
R,U,"[4, 3]",1.0,3.0,0.26838088035583496,1.677405834197998,0.39429186877423034,97.0,585.0
B,L,"[4, 2]",1.0,4.0,0.31079792976379395,1.9432508945465088,0.637370029017103,97.0,586.0
Y,R,"[4, 3]",1.0,5.0,0.25297117233276367,1.9188179969787598,0.6563611609561122,97.0,587.0
B,L,"[4, 2]",1.0,6.0,0.33420300483703613,1.7265040874481201,0.38300181144690926,97.0,588.0
,,"(3, 3)",,,,,,97.0,
G,D,"[4, 3]",1.0,1.0,0.45482301712036133,3.4076240062713623,0.4072392928156577,,589.0
G,D,"[5, 3]",1.0,2.0,0.26606202125549316,1.795037031173706,0.5187853758378269,98.0,590.0
R,U,"[4, 3]",1.0,3.0,0.7872991561889648,2.5285120010375977,0.7303953178335064,98.0,591.0
B,L,"[4, 2]",1.0,4.0,0.24196100234985352,1.871380090713501,0.6185577169434168,98.0,592.0
Y,R,"[4, 3]",1.0,5.0,0.23122286796569824,1.6909370422363281,0.4595581886276721,98.0,593.0
B,L,"[4, 2]",1.0,6.0,0.23012900352478027,1.8860349655151367,0.6619212520405249,98.0,594.0
,,"(3, 3)",,,,,,98.0,
G,D,"[4, 3]",1.0,1.0,0.6498398780822754,3.698843002319336,0.4110065454815468,,595.0
G,D,"[5, 3]",1.0,2.0,0.22412681579589844,1.7662739753723145,0.5439094501978858,99.0,596.0
R,U,"[4, 3]",1.0,3.0,0.27425694465637207,1.5227010250091553,0.25039639802538277,99.0,597.0
B,L,"[4, 2]",1.0,4.0,0.31613707542419434,1.938040018081665,0.6047681760763948,99.0,598.0
Y,R,"[4, 3]",1.0,5.0,0.7496519088745117,2.1906139850616455,0.42887929507238426,99.0,599.0
B,L,"[4, 2]",1.0,6.0,0.248521089553833,1.9014759063720703,0.6468266004995702,99.0,600.0
,,"(3, 3)",,,,,,99.0,
G,D,"[4, 3]",1.0,1.0,0.7398180961608887,3.435296058654785,0.3324425484541438,,601.0
G,D,"[5, 3]",1.0,2.0,0.23654508590698242,1.9566590785980225,0.705240664984881,100.0,602.0
R,U,"[4, 3]",1.0,3.0,0.21075892448425293,1.766075849533081,0.5548790000992524,100.0,603.0
B,L,"[4, 2]",-1.0,3.0,0.08301305770874023,5.50226092338562,0.2907522750097005,100.0,604.0
Y,R,"[4, 3]",1.0,4.0,0.5123031139373779,1.8475770950317383,0.3381456712252031,100.0,605.0
B,L,"[4, 2]",1.0,5.0,0.2323169708251953,1.5464818477630615,0.31798133014750735,100.0,606.0
,,"(3, 3)",,,,,,100.0,
B,L,"[3, 2]",-1.0,-1.0,0.7982809543609619,6.656187057495117,0.25768159512997674,,607.0
Y,R,"[3, 3]",-2.0,-3.0,0.3165459632873535,1.6611549854278564,0.3352906500059292,101.0,608.0
G,D,"[4, 3]",1.0,-2.0,0.4169490337371826,1.9616570472717285,0.5300856067550443,101.0,609.0
G,D,"[5, 3]",1.0,-1.0,0.2193160057067871,1.8186562061309814,0.5820343757093761,101.0,610.0
R,U,"[4, 3]",1.0,0.0,0.24370384216308594,1.7328460216522217,0.4815918130231802,101.0,611.0
B,L,"[4, 2]",1.0,1.0,0.6114461421966553,2.0404880046844482,0.42214522208313177,101.0,612.0
,,"(3, 3)",,,,,,101.0,
R,U,"[2, 3]",-1.0,-1.0,0.9744729995727539,4.20030403137207,0.6556187639815043,,613.0
G,D,"[3, 3]",-2.0,-3.0,0.29071807861328125,1.8993940353393555,0.60509068228078,102.0,614.0
G,D,"[4, 3]",1.0,-2.0,0.2673959732055664,1.90745210647583,0.6291048193187339,102.0,615.0
G,D,"[5, 3]",1.0,-1.0,0.23745012283325195,1.878511905670166,0.6410348673714605,102.0,616.0
R,U,"[4, 3]",1.0,0.0,0.22107386589050293,1.862574815750122,0.6368524211023586,102.0,617.0
B,L,"[4, 2]",1.0,1.0,0.24162888526916504,1.9657180309295654,0.7192029656998549,102.0,618.0
,,"(3, 3)",,,,,,102.0,
G,D,"[4, 3]",1.0,1.0,0.542633056640625,3.7890279293060303,0.6081171499178539,,619.0
G,D,"[5, 3]",1.0,2.0,0.23277616500854492,1.6564428806304932,0.4149603393239494,103.0,620.0
R,U,"[4, 3]",1.0,3.0,0.30818796157836914,1.784883975982666,0.4663617508724414,103.0,621.0
B,L,"[4, 2]",1.0,4.0,0.24087810516357422,1.5081210136413574,0.2581058086812198,103.0,622.0
B,L,"[4, 1]",1.0,5.0,0.2469339370727539,1.9320869445800781,0.6896331672604116,103.0,623.0
Y,R,"[4, 2]",1.0,6.0,0.263883113861084,1.76631498336792,0.506110953121576,103.0,624.0
,,"(3, 3)",,,,,,103.0,
G,D,"[4, 3]",1.0,1.0,0.49570488929748535,3.798992156982422,0.7048961000144724,,625.0
G,D,"[5, 3]",1.0,2.0,0.3933100700378418,2.033827066421509,0.6388975312123462,104.0,626.0
R,U,"[4, 3]",1.0,3.0,0.6929199695587158,1.9476048946380615,0.25352880746077333,104.0,627.0
B,L,"[4, 2]",1.0,4.0,0.42922115325927734,1.9850950241088867,0.5548415984295721,104.0,628.0
Y,R,"[4, 3]",1.0,5.0,0.30568909645080566,1.731924057006836,0.4202448905170022,104.0,629.0
B,L,"[4, 2]",1.0,6.0,0.24557900428771973,1.9697849750518799,0.7230239039046957,104.0,630.0
,,"(3, 3)",,,,,,104.0,
G,D,"[4, 3]",1.0,1.0,0.5677509307861328,3.401944160461426,0.34200313350574124,,631.0
G,D,"[5, 3]",1.0,2.0,0.22799897193908691,1.4885330200195312,0.26396991530618424,105.0,632.0
R,U,"[4, 3]",1.0,3.0,0.2838599681854248,1.8031251430511475,0.500161935207291,105.0,633.0
B,L,"[4, 2]",1.0,4.0,0.22288084030151367,1.8227479457855225,0.5894725132124032,105.0,634.0
B,L,"[4, 1]",1.0,5.0,0.3763270378112793,2.1095499992370605,0.7322391905396703,105.0,635.0
Y,R,"[4, 2]",1.0,6.0,0.33678412437438965,1.883660078048706,0.5326807708570926,105.0,636.0
,,"(3, 3)",,,,,,105.0,
G,D,"[4, 3]",1.0,1.0,0.4105820655822754,3.0503101348876953,0.3664369307335606,,637.0
G,D,"[5, 3]",1.0,2.0,0.2657749652862549,1.5390269756317139,0.2722845127074426,106.0,638.0
R,U,"[4, 3]",1.0,3.0,0.2513539791107178,1.5701258182525635,0.30901779088796755,106.0,639.0
B,L,"[4, 2]",1.0,4.0,0.24895095825195312,1.6177380084991455,0.37662892005869286,106.0,640.0
Y,R,"[4, 3]",1.0,5.0,0.23608684539794922,1.6671628952026367,0.42709679439396386,106.0,641.0
B,L,"[4, 2]",1.0,6.0,0.2696099281311035,1.9235799312591553,0.6504560447257788,106.0,642.0
,,"(3, 3)",,,,,,106.0,
G,D,"[4, 3]",1.0,1.0,0.5105290412902832,3.658370018005371,0.6922307842412726,,643.0
G,D,"[5, 3]",1.0,2.0,0.23939895629882812,1.883005142211914,0.6417688473763299,107.0,644.0
R,U,"[4, 3]",1.0,3.0,0.4992940425872803,2.127501964569092,0.6194001888455605,107.0,645.0
B,L,"[4, 2]",1.0,4.0,0.3319830894470215,1.961756944656372,0.6144774017339879,107.0,646.0
Y,R,"[4, 3]",1.0,5.0,0.20026302337646484,1.9426300525665283,0.7235724146693465,107.0,647.0
B,L,"[4, 2]",1.0,6.0,0.1901111602783203,1.6779851913452148,0.48515896026846017,107.0,648.0
,,"(3, 3)",,,,,,107.0,
R,U,"[2, 3]",-1.0,-1.0,0.7929561138153076,3.590502977371216,0.30920941611932906,,649.0
G,D,"[3, 3]",-2.0,-3.0,0.4844021797180176,1.7987279891967773,0.3078036054877224,108.0,650.0
B,L,"[3, 2]",-1.0,-4.0,0.2483980655670166,1.8181028366088867,0.559103536077718,108.0,651.0
Y,R,"[3, 3]",-2.0,-6.0,0.21990394592285156,1.7437620162963867,0.5194959221444165,108.0,652.0
G,D,"[4, 3]",1.0,-5.0,0.8218820095062256,2.4509119987487793,0.620247238588455,108.0,653.0
G,D,"[5, 3]",1.0,-4.0,0.22911787033081055,1.6749680042266846,0.4453873740213603,108.0,654.0
,,"(3, 3)",,,,,,108.0,
G,D,"[4, 3]",1.0,1.0,0.515733003616333,3.500560998916626,0.6957030121572005,,655.0
G,D,"[5, 3]",1.0,2.0,0.1978459358215332,1.9274981021881104,0.739727170559709,109.0,656.0
R,U,"[4, 3]",1.0,3.0,0.22031712532043457,1.6894469261169434,0.46289946103676477,109.0,657.0
B,L,"[4, 2]",1.0,4.0,0.26133084297180176,1.708000898361206,0.4374644222104623,109.0,658.0
B,L,"[4, 1]",1.0,5.0,0.22936487197875977,1.6179640293121338,0.38880933991868666,109.0,659.0
Y,R,"[4, 2]",1.0,6.0,0.24476099014282227,1.9265248775482178,0.6817455616635268,109.0,660.0
,,"(3, 3)",,,,,,109.0,
G,D,"[4, 3]",1.0,1.0,0.671820878982544,3.013267993927002,0.49511001578500813,,661.0
G,D,"[5, 3]",1.0,2.0,0.21716809272766113,1.9150609970092773,0.7100087783623547,110.0,662.0
R,U,"[4, 3]",1.0,3.0,0.20102787017822266,1.80216383934021,0.612263921552602,110.0,663.0
B,L,"[4, 2]",1.0,4.0,0.2712838649749756,2.0017199516296387,0.730338177594543,110.0,664.0
Y,R,"[4, 3]",1.0,5.0,0.5585029125213623,2.254884958267212,0.6853677096282597,110.0,665.0
B,L,"[4, 2]",1.0,6.0,0.27875399589538574,1.8009300231933594,0.5197939999871342,110.0,666.0
,,"(3, 3)",,,,,,110.0,
G,D,"[4, 3]",1.0,1.0,0.5402529239654541,2.9803550243377686,0.5836017887134723,,667.0
G,D,"[5, 3]",1.0,2.0,0.24425601959228516,1.953969955444336,0.7040395842956835,111.0,668.0
R,U,"[4, 3]",1.0,3.0,0.2715620994567871,1.5677030086517334,0.2887244608851371,111.0,669.0
B,L,"[4, 2]",1.0,4.0,0.4448730945587158,2.083620071411133,0.6385139616849668,111.0,670.0
Y,R,"[4, 3]",1.0,5.0,0.2705380916595459,1.8212270736694336,0.5432355213162663,111.0,671.0
B,L,"[4, 2]",1.0,6.0,0.2409958839416504,1.504668951034546,0.2648054686211162,111.0,672.0
,,"(3, 3)",,,,,,111.0,
G,D,"[4, 3]",1.0,1.0,0.5002169609069824,4.1862969398498535,0.6340111553120418,,673.0
B,L,"[4, 2]",1.0,2.0,0.2365121841430664,1.855705976486206,0.6063739010481768,112.0,674.0
B,L,"[4, 1]",1.0,3.0,0.5805540084838867,2.046175956726074,0.4694597026362347,112.0,675.0
Y,R,"[4, 2]",1.0,4.0,0.2813231945037842,2.0143401622772217,0.7335642513631442,112.0,676.0
B,L,"[4, 1]",1.0,5.0,0.22060894966125488,1.8230409622192383,0.5899535692988036,112.0,677.0
Y,R,"[4, 2]",1.0,6.0,0.23906207084655762,1.495954990386963,0.25298187179930987,112.0,678.0
,,"(3, 3)",,,,,,112.0,
B,L,"[3, 2]",-1.0,-1.0,0.6107099056243896,3.224600076675415,0.46080212324247755,,679.0
G,D,"[4, 2]",1.0,0.0,0.1975560188293457,1.5239050388336182,0.31796476822967595,113.0,680.0
B,L,"[4, 1]",1.0,1.0,0.29727602005004883,1.912405014038086,0.6135197959003527,113.0,681.0
Y,R,"[4, 2]",1.0,2.0,0.2328951358795166,1.6169581413269043,0.38062110868164917,113.0,682.0
B,L,"[4, 1]",1.0,3.0,0.2720789909362793,1.788707971572876,0.5025141373538389,113.0,683.0
Y,R,"[4, 2]",1.0,4.0,0.4018898010253906,2.046830892562866,0.6325094229287991,113.0,684.0
,,"(3, 3)",,,,,,113.0,
Y,R,"[3, 4]",-1.0,-1.0,0.7267451286315918,3.1289150714874268,0.3286707174271018,,685.0
G,D,"[4, 4]",-1.0,-2.0,0.2932600975036621,1.830125093460083,0.5415776311101954,114.0,686.0
B,L,"[4, 3]",1.0,-1.0,0.18908286094665527,1.6062290668487549,0.4146254949265699,114.0,687.0
B,L,"[4, 2]",1.0,0.0,0.2484431266784668,1.9671850204467773,0.7148810430051773,114.0,688.0
B,L,"[4, 1]",1.0,1.0,0.24684786796569824,1.999795913696289,0.7478500731840778,114.0,689.0
G,D,"[5, 1]",-1.0,0.0,0.8971657752990723,2.508517026901245,0.5898479500894502,114.0,690.0
,,"(3, 3)",,,,,,114.0,
G,D,"[4, 3]",-2.0,0.0,1.0037240982055664,4.617552995681763,0.6906200995382701,,691.0
G,D,"[5, 3]",1.0,1.0,0.271589994430542,1.7774930000305176,0.5015760065163848,115.0,692.0
B,L,"[5, 2]",1.0,2.0,0.31233716011047363,1.6573550701141357,0.3422268331913131,115.0,693.0
B,L,"[5, 1]",-1.0,1.0,0.2943599224090576,1.8311901092529297,0.5401184403723565,115.0,694.0
Y,R,"[5, 2]",1.0,2.0,0.26093482971191406,1.7248749732971191,0.4650367304831931,115.0,695.0
Y,R,"[5, 3]",1.0,3.0,0.48168301582336426,1.999021053314209,0.5138976052467052,115.0,696.0
,,"(3, 3)",,,,,,115.0,
G,D,"[4, 3]",1.0,1.0,0.5476670265197754,3.5784361362457275,0.6421779886197404,,697.0
R,U,"[3, 3]",-2.0,-1.0,0.2023618221282959,1.8328399658203125,0.6250476062331948,116.0,698.0
R,U,"[2, 3]",-1.0,-2.0,0.4971010684967041,1.7806391716003418,0.2893670280396776,116.0,699.0
B,L,"[2, 2]",-1.0,-3.0,0.2738158702850342,1.6044070720672607,0.32710535522046164,116.0,700.0
Y,R,"[2, 3]",-1.0,-4.0,0.24106502532958984,1.9696729183197021,0.7295185621477032,116.0,701.0
G,D,"[3, 3]",-2.0,-6.0,0.7836241722106934,2.2071309089660645,0.4205030081642618,116.0,702.0
,,"(3, 3)",,,,,,116.0,
G,D,"[4, 3]",1.0,1.0,0.5810790061950684,3.4328010082244873,0.5696804552271066,,703.0
G,D,"[5, 3]",1.0,2.0,0.25544309616088867,1.612475872039795,0.3489676420251927,117.0,704.0
B,L,"[5, 2]",1.0,3.0,0.394603967666626,1.854254961013794,0.4531344711450615,117.0,705.0
Y,R,"[5, 3]",1.0,4.0,0.26868200302124023,1.9679570198059082,0.6874923687859464,117.0,706.0
B,L,"[5, 2]",1.0,5.0,0.2156510353088379,1.7134528160095215,0.48454306666964925,117.0,707.0
Y,R,"[5, 3]",1.0,6.0,0.30452799797058105,1.6621499061584473,0.34672113374305036,117.0,708.0
,,"(3, 3)",,,,,,117.0,
G,D,"[4, 3]",1.0,1.0,0.6482410430908203,2.8079237937927246,0.3547082991125238,,709.0
B,L,"[4, 2]",1.0,2.0,0.4771428108215332,1.7525029182434082,0.2738666664657338,118.0,710.0
B,L,"[4, 1]",1.0,3.0,0.2581508159637451,1.9324469566345215,0.6724531104313797,118.0,711.0
B,L,"[4, 0]",0.0,3.0,0.3027689456939697,1.595885992050171,0.28543768133162944,118.0,712.0
Y,R,"[4, 1]",1.0,4.0,0.26986098289489746,1.8110101222991943,0.5295588083594928,118.0,713.0
Y,R,"[4, 2]",1.0,5.0,0.2472531795501709,1.9515390396118164,0.6974821157487243,118.0,714.0
,,"(3, 3)",,,,,,118.0,
G,D,"[4, 3]",-2.0,0.0,1.1821320056915283,3.8758721351623535,0.47362646122401375,,715.0
G,D,"[5, 3]",1.0,1.0,0.3478379249572754,1.6425189971923828,0.29962526626341496,119.0,716.0
R,U,"[4, 3]",1.0,2.0,0.25380992889404297,1.830057144165039,0.5627996778930284,119.0,717.0
B,L,"[4, 2]",1.0,3.0,0.30585503578186035,1.6721680164337158,0.3513239585832321,119.0,718.0
Y,R,"[4, 3]",1.0,4.0,0.25408315658569336,1.6136581897735596,0.348844429946143,119.0,719.0
B,L,"[4, 2]",1.0,5.0,0.22437405586242676,1.857733964920044,0.6228536030041867,119.0,720.0
,,"(3, 3)",,,,,,119.0,
G,D,"[4, 3]",1.0,1.0,0.43262195587158203,2.8431921005249023,0.566081927410863,,721.0
R,U,"[3, 3]",-2.0,-1.0,0.16463589668273926,1.5126841068267822,0.32899451449571515,120.0,722.0
B,L,"[3, 2]",-1.0,-2.0,0.2675199508666992,1.7594799995422363,0.4882791136318715,120.0,723.0
Y,R,"[3, 3]",-2.0,-4.0,0.3254430294036865,1.7381939888000488,0.4099780515054405,120.0,724.0
G,D,"[4, 3]",1.0,-3.0,0.6898210048675537,2.1058549880981445,0.415707995927232,120.0,725.0
G,D,"[5, 3]",1.0,-2.0,0.5200579166412354,2.112828016281128,0.578310502995089,120.0,726.0
,,"(3, 3)",,,,,,120.0,
G,D,"[4, 3]",1.0,1.0,0.3400259017944336,3.2996318340301514,0.5279818198121846,,727.0
G,D,"[5, 3]",1.0,2.0,0.25023984909057617,1.7170660495758057,0.4618413932232539,121.0,728.0
R,U,"[4, 3]",1.0,3.0,0.4466111660003662,1.8309650421142578,0.3927212429515208,121.0,729.0
R,U,"[3, 3]",-2.0,1.0,0.25254201889038086,1.680757999420166,0.4234868867054859,121.0,730.0
B,L,"[3, 2]",-1.0,0.0,0.30862879753112793,1.7505180835723877,0.4407043255213905,121.0,731.0
Y,R,"[3, 3]",-2.0,-2.0,0.22513604164123535,1.6828911304473877,0.45692162011761545,121.0,732.0
,,"(3, 3)",,,,,,121.0,
G,D,"[4, 3]",1.0,1.0,0.44495701789855957,3.4365880489349365,0.6431733445924619,,733.0
G,D,"[5, 3]",1.0,2.0,0.24763202667236328,1.9413189888000488,0.7010563477541207,122.0,734.0
R,U,"[4, 3]",1.0,3.0,0.3158388137817383,1.8050768375396729,0.4730083027220165,122.0,735.0
B,L,"[4, 2]",1.0,4.0,0.39376401901245117,1.924915075302124,0.5312259902858465,122.0,736.0
Y,R,"[4, 3]",1.0,5.0,0.28373217582702637,1.7939910888671875,0.5086145958121151,122.0,737.0
B,L,"[4, 2]",1.0,6.0,0.2393958568572998,1.6344718933105469,0.39317935605904875,122.0,738.0
,,"(3, 3)",,,,,,122.0,
G,D,"[4, 3]",1.0,1.0,0.4772069454193115,3.563868999481201,0.42366953303069554,,739.0
G,D,"[5, 3]",1.0,2.0,0.23154592514038086,1.6134819984436035,0.3870546422054943,123.0,740.0
G,D,"[6, 3]",0.0,2.0,0.3079349994659424,1.8392748832702637,0.5263307207713772,123.0,741.0
B,L,"[6, 2]",-1.0,2.0,0.05173301696777344,5.439604043960571,0.2659920095865564,123.0,742.0
B,L,"[6, 1]",0.0,2.0,0.2823798656463623,1.9151978492736816,0.6309079738820405,123.0,743.0
B,L,"[6, 0]",0.0,2.0,0.2830071449279785,1.8139760494232178,0.5285138982701202,123.0,744.0
,,"(3, 3)",,,,,,123.0,
G,D,"[4, 3]",1.0,1.0,0.4036130905151367,3.6591670513153076,0.653914742184503,,745.0
G,D,"[5, 3]",1.0,2.0,0.20953917503356934,1.9503450393676758,0.7377092613440271,124.0,746.0
B,L,"[5, 2]",1.0,3.0,0.27555084228515625,1.9078550338745117,0.6287793563834432,124.0,747.0
Y,R,"[5, 3]",1.0,4.0,0.29956603050231934,1.5871989727020264,0.28278342302452086,124.0,748.0
B,L,"[5, 2]",1.0,5.0,0.32778310775756836,2.047416925430298,0.7132218336406784,124.0,749.0
Y,R,"[5, 3]",1.0,6.0,0.2638530731201172,1.5266990661621094,0.25711296404968165,124.0,750.0
,,"(3, 3)",,,,,,124.0,
G,D,"[4, 3]",1.0,1.0,0.5326550006866455,3.7279980182647705,0.5681049450129154,,751.0
G,D,"[5, 3]",1.0,2.0,0.24825000762939453,1.7282090187072754,0.4797205711003791,125.0,752.0
B,L,"[5, 2]",1.0,3.0,0.25872302055358887,1.7981340885162354,0.5275430803943082,125.0,753.0
Y,R,"[5, 3]",1.0,4.0,0.22258305549621582,1.7848851680755615,0.5625656190381344,125.0,754.0
B,L,"[5, 2]",1.0,5.0,0.23618507385253906,1.6396100521087646,0.4022990419007679,125.0,755.0
Y,R,"[5, 3]",1.0,6.0,0.4133269786834717,2.123845100402832,0.7091155472770319,125.0,756.0
,,"(3, 3)",,,,,,125.0,
G,D,"[4, 3]",1.0,1.0,0.40706896781921387,3.2115659713745117,0.4708467331569125,,757.0
G,D,"[5, 3]",1.0,2.0,0.4150419235229492,2.0096428394317627,0.5970799419141211,126.0,758.0
B,L,"[5, 2]",1.0,3.0,0.25160789489746094,1.5701780319213867,0.3007975482308895,126.0,759.0
Y,R,"[5, 3]",1.0,4.0,0.23096108436584473,1.9692058563232422,0.7362656967893546,126.0,760.0
Y,R,"[5, 4]",-1.0,3.0,0.23830890655517578,1.8584508895874023,0.6114835221302702,126.0,761.0
B,L,"[5, 3]",1.0,4.0,0.4102029800415039,1.995797872543335,0.5905596275497562,126.0,762.0
,,"(3, 3)",,,,,,126.0,
G,D,"[4, 3]",1.0,1.0,0.368851900100708,3.062372922897339,0.31988106530235183,,763.0
G,D,"[5, 3]",1.0,2.0,0.2915630340576172,1.5680861473083496,0.2714595604295755,127.0,764.0
B,L,"[5, 2]",1.0,3.0,0.24038410186767578,1.8880970478057861,0.6421428380776761,127.0,765.0
B,L,"[5, 1]",-1.0,2.0,0.49477219581604004,1.9487950801849365,0.45793577158274273,127.0,766.0
Y,R,"[5, 2]",1.0,3.0,0.24999690055847168,1.8476250171661377,0.5888407176781645,127.0,767.0
B,L,"[5, 1]",-1.0,2.0,0.22503113746643066,1.7207071781158447,0.4928653878175612,127.0,768.0
,,"(3, 3)",,,,,,127.0,
G,D,"[4, 3]",1.0,1.0,0.5623509883880615,2.571781873703003,0.48141303469041885,,769.0
G,D,"[5, 3]",1.0,2.0,0.22995710372924805,1.736536979675293,0.5013001594278251,128.0,770.0
R,U,"[4, 3]",1.0,3.0,0.3856980800628662,2.090867042541504,0.6917443478606968,128.0,771.0
B,L,"[4, 2]",1.0,4.0,0.25159692764282227,1.5605731010437012,0.30274845082102747,128.0,772.0
Y,R,"[4, 3]",1.0,5.0,0.3380298614501953,2.007215976715088,0.6594601254137444,128.0,773.0
B,L,"[4, 2]",1.0,6.0,0.17728495597839355,1.534437894821167,0.3609631088833731,128.0,774.0
,,"(3, 3)",,,,,,128.0,
G,D,"[4, 3]",1.0,1.0,0.6600620746612549,3.321216106414795,0.33240864690572297,,775.0
G,D,"[5, 3]",1.0,2.0,0.21454691886901855,1.6039881706237793,0.3860453331621848,129.0,776.0
R,U,"[4, 3]",1.0,3.0,0.2865431308746338,2.0219719409942627,0.7243889016981414,129.0,777.0
B,L,"[4, 2]",1.0,4.0,0.23218488693237305,1.609510898590088,0.36768226278615945,129.0,778.0
Y,R,"[4, 3]",1.0,5.0,0.24558496475219727,1.5506861209869385,0.30164988698234424,129.0,779.0
B,L,"[4, 2]",1.0,6.0,0.2354269027709961,1.988142967224121,0.7392586717136227,129.0,780.0
,,"(3, 3)",,,,,,129.0,
G,D,"[4, 3]",1.0,1.0,0.620164155960083,3.2558200359344482,0.6451779725217082,,781.0
G,D,"[5, 3]",1.0,2.0,0.23644185066223145,1.5641288757324219,0.32615178151394847,130.0,782.0
R,U,"[4, 3]",1.0,3.0,0.2986299991607666,1.7106969356536865,0.4034890153267956,130.0,783.0
B,L,"[4, 2]",1.0,4.0,0.25894904136657715,2.0013508796691895,0.7380060581140155,130.0,784.0
Y,R,"[4, 3]",1.0,5.0,0.2174968719482422,1.560305118560791,0.34857584067938846,130.0,785.0
B,L,"[4, 2]",1.0,6.0,0.2594180107116699,1.7454230785369873,0.4771108442881598,130.0,786.0
,,"(3, 3)",,,,,,130.0,
G,D,"[4, 3]",1.0,1.0,0.6591119766235352,4.053728103637695,0.7472263778903943,,787.0
G,D,"[5, 3]",1.0,2.0,0.20975780487060547,1.8705329895019531,0.6511386588309758,131.0,788.0
R,U,"[4, 3]",1.0,3.0,0.25910305976867676,1.9425358772277832,0.6770317888499326,131.0,789.0
B,L,"[4, 2]",1.0,4.0,0.3978281021118164,2.0038061141967773,0.6141819525268073,131.0,790.0
Y,R,"[4, 3]",1.0,5.0,0.26322007179260254,1.5260450839996338,0.2572392837349631,131.0,791.0
B,L,"[4, 2]",1.0,6.0,0.34489989280700684,1.6877961158752441,0.3448324758949531,131.0,792.0
,,"(3, 3)",,,,,,131.0,
G,D,"[4, 3]",1.0,1.0,0.6282329559326172,4.21255898475647,0.7071656477488288,,793.0
G,D,"[5, 3]",1.0,2.0,0.19405102729797363,1.698347806930542,0.5056167079919145,132.0,794.0
B,L,"[5, 2]",1.0,3.0,0.38102197647094727,1.8578808307647705,0.48009345454790675,132.0,795.0
B,L,"[5, 1]",-1.0,2.0,0.549353837966919,2.3144009113311768,0.7441282599249013,132.0,796.0
Y,R,"[5, 2]",1.0,3.0,0.21155691146850586,1.531482219696045,0.32611035901186836,132.0,797.0
B,L,"[5, 1]",-1.0,2.0,0.2452850341796875,1.6034049987792969,0.36274456782880315,132.0,798.0
,,"(3, 3)",,,,,,132.0,
G,D,"[4, 3]",1.0,1.0,0.6206820011138916,3.2390429973602295,0.43499801563248114,,799.0
G,D,"[5, 3]",1.0,2.0,0.24622201919555664,1.7135179042816162,0.46518500836852156,133.0,800.0
R,U,"[4, 3]",1.0,3.0,0.2758350372314453,2.0203700065612793,0.7353142577541423,133.0,801.0
B,L,"[4, 2]",1.0,4.0,0.2723269462585449,1.746919870376587,0.4656879641945835,133.0,802.0
B,L,"[4, 1]",1.0,5.0,0.16620182991027832,1.8847160339355469,0.7169039497550422,133.0,803.0
Y,R,"[4, 2]",1.0,6.0,0.2359170913696289,1.9677319526672363,0.7178053299331235,133.0,804.0
,,"(3, 3)",,,,,,133.0,
G,D,"[4, 3]",-1.0,-1.0,0.5181729793548584,3.663200855255127,0.5144895814637902,,805.0
B,L,"[4, 2]",-1.0,-2.0,0.7377240657806396,2.259504795074463,0.5074645965223247,134.0,806.0
Y,R,"[4, 3]",-1.0,-3.0,0.24408793449401855,1.6632750034332275,0.42069982728620164,134.0,807.0
G,D,"[5, 3]",-1.0,-4.0,0.2523069381713867,1.559014081954956,0.29654778617023275,134.0,808.0
R,U,"[4, 3]",-1.0,-5.0,0.31647300720214844,1.6952569484710693,0.3584063727920574,134.0,809.0
B,L,"[4, 2]",-1.0,-6.0,0.3972489833831787,1.964695930480957,0.5727729357359297,134.0,810.0
,,"(3, 3)",,,,,,134.0,
B,L,"[3, 2]",-2.0,0.0,1.0434260368347168,3.968453884124756,0.47489116628544575,,811.0
B,L,"[3, 1]",1.0,1.0,0.24910998344421387,1.8634631633758545,0.60460870510209,135.0,812.0
B,L,"[3, 0]",0.0,1.0,0.30042409896850586,1.7775158882141113,0.46543293751323006,135.0,813.0
R,U,"[2, 0]",0.0,1.0,0.43624091148376465,1.8539209365844727,0.4029442803370573,135.0,814.0
G,D,"[3, 0]",0.0,1.0,0.300260066986084,1.560521125793457,0.2635830104761111,135.0,815.0
G,D,"[4, 0]",0.0,1.0,0.32866787910461426,2.0155229568481445,0.6784713438442849,135.0,816.0
,,"(3, 3)",,,,,,135.0,
B,L,"[3, 2]",-1.0,-1.0,0.5297520160675049,3.6131930351257324,0.2591368019154297,,817.0
R,U,"[2, 2]",1.0,0.0,0.2741270065307617,1.6567020416259766,0.38229224854177074,136.0,818.0
R,U,"[1, 2]",1.0,1.0,0.3831820487976074,1.7449450492858887,0.3603457436870796,136.0,819.0
G,D,"[2, 2]",1.0,2.0,0.29366016387939453,2.0164549350738525,0.7263855624395987,136.0,820.0
G,D,"[3, 2]",-1.0,1.0,0.24812793731689453,1.7810947895050049,0.5243123747888492,136.0,821.0
B,L,"[3, 1]",1.0,2.0,0.3474268913269043,1.6991770267486572,0.34041327450093806,136.0,822.0
,,"(3, 3)",,,,,,136.0,
R,U,"[2, 3]",1.0,1.0,0.5308148860931396,3.561084032058716,0.6178512433426118,,823.0
R,U,"[1, 3]",-1.0,0.0,0.21106815338134766,1.8608059883117676,0.6119189028857146,137.0,824.0
B,L,"[1, 2]",1.0,1.0,0.2699410915374756,1.5517208576202393,0.28052836018599847,137.0,825.0
Y,R,"[1, 3]",-1.0,0.0,0.33336400985717773,2.03757381439209,0.684463805666923,137.0,826.0
G,D,"[2, 3]",1.0,1.0,0.458158016204834,1.944767951965332,0.4792775104542206,137.0,827.0
B,L,"[2, 2]",1.0,2.0,0.3528618812561035,1.6723711490631104,0.3183116481074443,137.0,828.0
,,"(3, 3)",,,,,,137.0,
R,U,"[2, 3]",1.0,1.0,0.5123488903045654,3.325124979019165,0.5934887092833867,,829.0
B,L,"[2, 2]",1.0,2.0,0.2530391216278076,1.569796085357666,0.3131547009058956,138.0,830.0
G,D,"[3, 2]",-1.0,1.0,0.2755899429321289,1.8255400657653809,0.5385712110621229,138.0,831.0
B,L,"[3, 1]",1.0,2.0,0.28636598587036133,1.9804840087890625,0.6857152354674837,138.0,832.0
G,D,"[4, 1]",-1.0,1.0,0.2959859371185303,1.873572826385498,0.5592939821932826,138.0,833.0
B,L,"[4, 0]",0.0,1.0,0.602330207824707,1.9299190044403076,0.32276543559457116,138.0,834.0
,,"(3, 3)",,,,,,138.0,
R,U,"[2, 3]",1.0,1.0,0.48946213722229004,2.9564361572265625,0.6122855470359649,,835.0
R,U,"[1, 3]",-1.0,0.0,0.2889270782470703,1.7753329277038574,0.48766431320180814,139.0,836.0
B,L,"[1, 2]",1.0,1.0,0.34276318550109863,1.731734037399292,0.38608064785029994,139.0,837.0
G,D,"[2, 2]",1.0,2.0,0.34466981887817383,1.8388760089874268,0.4916216529331549,139.0,838.0
Y,R,"[2, 3]",1.0,3.0,0.4113950729370117,2.063072919845581,0.6544361268220789,139.0,839.0
Y,R,"[2, 4]",-1.0,2.0,0.8638250827789307,2.482534885406494,0.6037048131614198,139.0,840.0
,,"(3, 3)",,,,,,139.0,
R,U,"[2, 3]",1.0,1.0,0.47316884994506836,3.3300371170043945,0.717005873084616,,841.0
B,L,"[2, 2]",1.0,2.0,0.595365047454834,2.3047540187835693,0.7049306259441686,140.0,842.0
G,D,"[3, 2]",-1.0,1.0,0.40738606452941895,1.8823890686035156,0.47088357463440594,140.0,843.0
Y,R,"[3, 3]",-2.0,-1.0,0.4833807945251465,1.8305389881134033,0.334954596584269,140.0,844.0
B,L,"[3, 2]",-1.0,-2.0,0.26766395568847656,1.5393478870391846,0.25765480229702237,140.0,845.0
G,D,"[4, 2]",-1.0,-3.0,0.38240599632263184,1.7321510314941406,0.33970457317633573,140.0,846.0
,,"(3, 3)",,,,,,140.0,
R,U,"[2, 3]",1.0,1.0,0.4585421085357666,3.2111659049987793,0.5506166808272452,,847.0
B,L,"[2, 2]",1.0,2.0,0.2889070510864258,1.577732801437378,0.29542899689094815,141.0,848.0
B,L,"[2, 1]",1.0,3.0,0.28498411178588867,1.7006030082702637,0.41253569550685504,141.0,849.0
G,D,"[3, 1]",1.0,4.0,0.22800993919372559,1.9526820182800293,0.7316015812330616,141.0,850.0
Y,R,"[3, 2]",-1.0,3.0,0.22549104690551758,1.489171028137207,0.25463988938945814,141.0,851.0
Y,R,"[3, 3]",-2.0,1.0,0.49309396743774414,1.9864139556884766,0.49102415879332806,141.0,852.0
,,"(3, 3)",,,,,,141.0,
R,U,"[2, 3]",1.0,1.0,0.8150920867919922,3.4849939346313477,0.2763325408579875,,853.0
B,L,"[2, 2]",1.0,2.0,0.2607259750366211,1.6217820644378662,0.36486760288642567,142.0,854.0
B,L,"[2, 1]",1.0,3.0,0.23441815376281738,1.6068260669708252,0.35512802626822704,142.0,855.0
G,D,"[3, 1]",1.0,4.0,0.3035261631011963,1.685049057006836,0.373549471646809,142.0,856.0
B,L,"[3, 0]",0.0,4.0,0.4701070785522461,2.041975975036621,0.5653003476793041,142.0,857.0
Y,R,"[3, 1]",1.0,5.0,0.23720502853393555,1.522364854812622,0.2714867641306159,142.0,858.0
,,"(3, 3)",,,,,,142.0,
R,U,"[2, 3]",1.0,1.0,0.7448580265045166,3.7561748027801514,0.34448460951849474,,859.0
B,L,"[2, 2]",1.0,2.0,0.2637209892272949,1.9090180397033691,0.653197169266384,143.0,860.0
B,L,"[2, 1]",1.0,3.0,0.2131800651550293,1.6902689933776855,0.47716386192161236,143.0,861.0
G,D,"[3, 1]",1.0,4.0,0.34206509590148926,1.6199941635131836,0.28094731252038824,143.0,862.0
G,D,"[4, 1]",-1.0,3.0,0.4537489414215088,1.8833940029144287,0.4141678356791068,143.0,863.0
Y,R,"[4, 2]",-1.0,2.0,0.2562558650970459,1.6156680583953857,0.34653202442199726,143.0,864.0
,,"(3, 3)",,,,,,143.0,
R,U,"[2, 3]",1.0,1.0,0.5334610939025879,3.2174761295318604,0.4806462812399483,,865.0
B,L,"[2, 2]",1.0,2.0,0.2644369602203369,1.9026329517364502,0.6332411302555486,144.0,866.0
B,L,"[2, 1]",1.0,3.0,0.2215418815612793,1.6212401390075684,0.38800587156419347,144.0,867.0
G,D,"[3, 1]",1.0,4.0,0.2757568359375,1.9256060123443604,0.6469104103936091,144.0,868.0
Y,R,"[3, 2]",-1.0,3.0,0.2434239387512207,1.5150370597839355,0.26244511941105725,144.0,869.0
Y,R,"[3, 3]",-2.0,1.0,0.2583940029144287,1.6442921161651611,0.3900056205961509,144.0,870.0
,,"(3, 3)",,,,,,144.0,
R,U,"[2, 3]",1.0,1.0,0.6729211807250977,3.2851738929748535,0.4918634365072898,,871.0
B,L,"[2, 2]",1.0,2.0,0.28307390213012695,1.888113021850586,0.6132136760650477,145.0,872.0
B,L,"[2, 1]",1.0,3.0,0.20032501220703125,1.856652021408081,0.636765183678762,145.0,873.0
G,D,"[3, 1]",1.0,4.0,0.19927501678466797,1.9465110301971436,0.7332778581516952,145.0,874.0
R,U,"[2, 1]",1.0,5.0,0.2573099136352539,1.9954440593719482,0.7286314847609876,145.0,875.0
Y,R,"[2, 2]",1.0,6.0,0.24922609329223633,1.7461678981781006,0.49200860883660963,145.0,876.0
,,"(3, 3)",,,,,,145.0,
R,U,"[2, 3]",1.0,1.0,0.5592041015625,3.3521368503570557,0.5276401054793707,,877.0
B,L,"[2, 2]",1.0,2.0,0.22329187393188477,1.6155879497528076,0.3933735845009174,146.0,878.0
B,L,"[2, 1]",1.0,3.0,0.23391294479370117,1.6833980083465576,0.44330217157492585,146.0,879.0
G,D,"[3, 1]",1.0,4.0,0.240386962890625,1.7973039150238037,0.5573959808372313,146.0,880.0
R,U,"[2, 1]",1.0,5.0,0.31139492988586426,1.958691120147705,0.6493605332989192,146.0,881.0
Y,R,"[2, 2]",1.0,6.0,0.5197999477386475,2.069304943084717,0.5355506469642253,146.0,882.0
,,"(3, 3)",,,,,,146.0,
R,U,"[2, 3]",1.0,1.0,0.4966750144958496,3.7972140312194824,0.699623348973065,,883.0
B,L,"[2, 2]",1.0,2.0,0.207535982131958,1.5482549667358398,0.3314563745065965,147.0,884.0
B,L,"[2, 1]",1.0,3.0,0.2905728816986084,1.8919382095336914,0.5900151451487644,147.0,885.0
G,D,"[3, 1]",1.0,4.0,0.16810393333435059,1.5203180313110352,0.3438561407880662,147.0,886.0
R,U,"[2, 1]",1.0,5.0,0.24056506156921387,1.9604430198669434,0.7207489701535977,147.0,887.0
Y,R,"[2, 2]",1.0,6.0,0.19187283515930176,1.841775894165039,0.64600526160035,147.0,888.0
,,"(3, 3)",,,,,,147.0,
R,U,"[2, 3]",1.0,1.0,0.5982940196990967,3.1026461124420166,0.29944213137689335,,889.0
B,L,"[2, 2]",1.0,2.0,0.23299407958984375,1.994657039642334,0.7433838356074718,148.0,890.0
B,L,"[2, 1]",1.0,3.0,0.20777082443237305,1.8533239364624023,0.6468097608356574,148.0,891.0
G,D,"[3, 1]",1.0,4.0,0.14738702774047852,1.685779094696045,0.5329618504554439,148.0,892.0
R,U,"[2, 1]",1.0,5.0,0.24888896942138672,1.9387829303741455,0.6716242435257915,148.0,893.0
Y,R,"[2, 2]",1.0,6.0,0.2565910816192627,1.8064980506896973,0.5449220188347594,148.0,894.0
,,"(3, 3)",,,,,,148.0,
R,U,"[2, 3]",1.0,1.0,0.43506288528442383,3.02052903175354,0.39912679495070996,,895.0
B,L,"[2, 2]",1.0,2.0,0.1834409236907959,1.762605905532837,0.5616444116262059,149.0,896.0
B,L,"[2, 1]",1.0,3.0,0.21757006645202637,1.734123945236206,0.5127092271868914,149.0,897.0
G,D,"[3, 1]",1.0,4.0,0.1512758731842041,1.6188011169433594,0.4648163442830897,149.0,898.0
R,U,"[2, 1]",1.0,5.0,0.22707080841064453,1.5277130603790283,0.29290066428802464,149.0,899.0
Y,R,"[2, 2]",1.0,6.0,0.2514338493347168,1.588435173034668,0.3312802772179604,149.0,900.0
,,"(3, 3)",,,,,,149.0,
R,U,"[2, 3]",1.0,1.0,0.5136961936950684,3.189940929412842,0.288069974952921,,901.0
B,L,"[2, 2]",1.0,2.0,0.2911500930786133,1.8834099769592285,0.5879600506677745,150.0,902.0
B,L,"[2, 1]",1.0,3.0,0.10405898094177246,1.5206019878387451,0.4087195781457192,150.0,903.0
G,D,"[3, 1]",1.0,4.0,0.2542691230773926,1.9980430603027344,0.7398056612854603,150.0,904.0
R,U,"[2, 1]",1.0,5.0,0.10260701179504395,1.440222978591919,0.3306034419433142,150.0,905.0
Y,R,"[2, 2]",1.0,6.0,0.28838396072387695,1.6611628532409668,0.3584811966801673,150.0,906.0
,,"(3, 3)",,,,,,150.0,
R,U,"[2, 3]",1.0,1.0,0.5090179443359375,4.221706867218018,0.6967576056996021,,907.0
B,L,"[2, 2]",1.0,2.0,0.19152593612670898,1.9060609340667725,0.7027470644683327,151.0,908.0
B,L,"[2, 1]",1.0,3.0,0.20548391342163086,1.6795201301574707,0.46594889875683787,151.0,909.0
G,D,"[3, 1]",1.0,4.0,0.22104811668395996,1.7213630676269531,0.48733236289077014,151.0,910.0
R,U,"[2, 1]",1.0,5.0,0.31564807891845703,1.961820125579834,0.6323227231282234,151.0,911.0
Y,R,"[2, 2]",1.0,6.0,0.29387688636779785,1.6384670734405518,0.3379341451925429,151.0,912.0
,,"(3, 3)",,,,,,151.0,
R,U,"[2, 3]",1.0,1.0,0.5018479824066162,2.991392135620117,0.4626039124936694,,913.0
B,L,"[2, 2]",1.0,2.0,0.281325101852417,1.7504210472106934,0.4796666263945472,152.0,914.0
B,L,"[2, 1]",1.0,3.0,0.2608778476715088,1.586543083190918,0.316554443370361,152.0,915.0
G,D,"[3, 1]",1.0,4.0,0.3316330909729004,1.6856050491333008,0.3356889861086348,152.0,916.0
R,U,"[2, 1]",1.0,5.0,0.42214202880859375,1.9873170852661133,0.5559923239197135,152.0,917.0
Y,R,"[2, 2]",1.0,6.0,0.23587822914123535,1.966526985168457,0.7224671796823183,152.0,918.0
,,"(3, 3)",,,,,,152.0,
R,U,"[2, 3]",1.0,1.0,0.42372679710388184,3.043990135192871,0.3670882272845471,,919.0
B,L,"[2, 2]",1.0,2.0,0.2554779052734375,1.843183994293213,0.5766750285070297,153.0,920.0
B,L,"[2, 1]",1.0,3.0,0.22214794158935547,1.775649070739746,0.5523912519930156,153.0,921.0
G,D,"[3, 1]",1.0,4.0,0.2750530242919922,1.6651790142059326,0.3845051388211484,153.0,922.0
R,U,"[2, 1]",1.0,5.0,0.2662389278411865,1.6982488632202148,0.4160829877557331,153.0,923.0
Y,R,"[2, 2]",1.0,6.0,0.21749496459960938,1.7110519409179688,0.4771701262546746,153.0,924.0
,,"(3, 3)",,,,,,153.0,
R,U,"[2, 3]",1.0,1.0,0.7309010028839111,2.6504921913146973,0.31137423020106697,,925.0
B,L,"[2, 2]",1.0,2.0,0.23334908485412598,1.5315930843353271,0.2929574643753774,154.0,926.0
B,L,"[2, 1]",1.0,3.0,0.2261509895324707,1.569324016571045,0.3457029826648508,154.0,927.0
G,D,"[3, 1]",1.0,4.0,0.2507040500640869,1.8572759628295898,0.6026620474942362,154.0,928.0
R,U,"[2, 1]",1.0,5.0,0.21917486190795898,1.7984278202056885,0.567952875406567,154.0,929.0
Y,R,"[2, 2]",1.0,6.0,0.2330019474029541,1.6507019996643066,0.41878742913161987,154.0,930.0
,,"(3, 3)",,,,,,154.0,
R,U,"[2, 3]",1.0,1.0,0.466310977935791,2.919234037399292,0.5547881605879414,,931.0
B,L,"[2, 2]",1.0,2.0,0.2267320156097412,1.5602350234985352,0.3319255160558517,155.0,932.0
B,L,"[2, 1]",1.0,3.0,0.2558469772338867,1.645617961883545,0.37747268077554413,155.0,933.0
G,D,"[3, 1]",1.0,4.0,0.24103593826293945,1.8276708126068115,0.5884006532079891,155.0,934.0
R,U,"[2, 1]",1.0,5.0,0.1914668083190918,1.8467628955841064,0.6517054286843221,155.0,935.0
Y,R,"[2, 2]",1.0,6.0,0.24437212944030762,1.611820936203003,0.3640809633751677,155.0,936.0
,,"(3, 3)",,,,,,155.0,
R,U,"[2, 3]",-2.0,0.0,1.0472400188446045,7.589668035507202,0.6037674459535249,,937.0
R,U,"[1, 3]",-1.0,-1.0,0.6606030464172363,1.9197251796722412,0.25726587026987985,156.0,938.0
B,L,"[1, 2]",1.0,0.0,0.27932310104370117,1.87618088722229,0.5830935904757395,156.0,939.0
G,D,"[2, 2]",1.0,1.0,0.220628023147583,1.4877448081970215,0.2544694313786219,156.0,940.0
R,U,"[1, 2]",1.0,2.0,0.2274799346923828,1.7413849830627441,0.5123518435372447,156.0,941.0
Y,R,"[1, 3]",-1.0,1.0,0.23921585083007812,1.6837170124053955,0.4461027751615386,156.0,942.0
,,"(3, 3)",,,,,,156.0,
B,L,"[3, 2]",-1.0,-1.0,0.4823770523071289,3.76029896736145,0.6230033851465577,,943.0
G,D,"[4, 2]",-1.0,-2.0,0.3523728847503662,1.8452191352844238,0.4851818256580334,157.0,944.0
G,D,"[5, 2]",-1.0,-3.0,0.23646283149719238,1.667780876159668,0.41975747894585513,157.0,945.0
R,U,"[4, 2]",-1.0,-4.0,0.3709111213684082,2.045106887817383,0.6647787142153196,157.0,946.0
B,L,"[4, 1]",-1.0,-5.0,0.22290301322937012,1.6516640186309814,0.416690824357737,157.0,947.0
Y,R,"[4, 2]",-1.0,-6.0,0.24500203132629395,1.9777870178222656,0.7275333995746086,157.0,948.0
,,"(3, 3)",,,,,,157.0,
B,L,"[3, 2]",-1.0,-1.0,0.6433660984039307,3.035781145095825,0.4138257152022575,,949.0
G,D,"[4, 2]",-2.0,-1.0,1.0754289627075195,2.7898900508880615,0.6701992012128715,158.0,950.0
G,D,"[5, 2]",-1.0,-2.0,0.24541091918945312,1.8120861053466797,0.5656978055291935,158.0,951.0
R,U,"[4, 2]",-1.0,-2.0,0.014518022537231445,5.615448951721191,0.464777857565564,158.0,952.0
R,U,"[3, 2]",-1.0,-3.0,0.29915595054626465,1.9551060199737549,0.6364190050913161,158.0,953.0
R,U,"[2, 2]",1.0,-2.0,0.3062288761138916,2.0484020709991455,0.7347291547578452,158.0,954.0
,,"(3, 3)",,,,,,158.0,
R,U,"[2, 3]",1.0,1.0,0.6355741024017334,4.732705116271973,0.6179272634436307,,955.0
B,L,"[2, 2]",1.0,2.0,0.2592439651489258,1.6555988788604736,0.3898521876507386,159.0,956.0
B,L,"[2, 1]",1.0,3.0,0.26433396339416504,2.024794816970825,0.7482164875100155,159.0,957.0
G,D,"[3, 1]",1.0,4.0,0.2450411319732666,1.594954013824463,0.34368793052181246,159.0,958.0
R,U,"[2, 1]",1.0,5.0,0.26357483863830566,1.6260409355163574,0.36980215181586523,159.0,959.0
Y,R,"[2, 2]",1.0,6.0,0.2894930839538574,1.6565420627593994,0.3762678837460014,159.0,960.0
,,"(3, 3)",,,,,,159.0,
R,U,"[2, 3]",1.0,1.0,0.5227279663085938,3.2810888290405273,0.6738944042922211,,961.0
B,L,"[2, 2]",1.0,2.0,0.2752268314361572,1.8057010173797607,0.5297064616897011,160.0,962.0
B,L,"[2, 1]",1.0,3.0,0.22094988822937012,1.681818962097168,0.4450410403233726,160.0,963.0
G,D,"[3, 1]",1.0,4.0,0.2729930877685547,2.009706974029541,0.7378004687271664,160.0,964.0
R,U,"[2, 1]",1.0,5.0,0.37529993057250977,1.6621789932250977,0.2838674418933937,160.0,965.0
Y,R,"[2, 2]",1.0,6.0,0.36469411849975586,2.070791006088257,0.7042665688225725,160.0,966.0
,,"(3, 3)",,,,,,160.0,
R,U,"[2, 3]",1.0,1.0,0.6292619705200195,3.865117073059082,0.48639251292119384,,967.0
B,L,"[2, 2]",1.0,2.0,0.2895658016204834,1.7143640518188477,0.4176154465037763,161.0,968.0
B,L,"[2, 1]",1.0,3.0,0.2332320213317871,1.5748012065887451,0.32576267479590754,161.0,969.0
G,D,"[3, 1]",1.0,4.0,0.32431912422180176,1.8256690502166748,0.5014261093590793,161.0,970.0
R,U,"[2, 1]",1.0,5.0,0.30530500411987305,1.614220142364502,0.2991077870681064,161.0,971.0
Y,R,"[2, 2]",1.0,6.0,0.3566927909851074,1.807513952255249,0.4398571181847575,161.0,972.0
,,"(3, 3)",,,,,,161.0,
R,U,"[2, 3]",1.0,1.0,0.7304930686950684,4.123614072799683,0.7300026372840613,,973.0
B,L,"[2, 2]",1.0,2.0,0.2622950077056885,1.719831943511963,0.45016899412506134,162.0,974.0
B,L,"[2, 1]",1.0,3.0,0.25807714462280273,1.600985050201416,0.33468265811431197,162.0,975.0
G,D,"[3, 1]",1.0,4.0,0.22498512268066406,1.6172981262207031,0.38539323708624595,162.0,976.0
R,U,"[2, 1]",1.0,5.0,0.2624220848083496,1.6563470363616943,0.3917085061665105,162.0,977.0
Y,R,"[2, 2]",1.0,6.0,0.26231813430786133,1.7386009693145752,0.480220408838737,162.0,978.0
,,"(3, 3)",,,,,,162.0,
R,U,"[2, 3]",1.0,1.0,0.44332098960876465,3.3695850372314453,0.7329997317239033,,979.0
B,L,"[2, 2]",1.0,2.0,0.22881793975830078,1.7329459190368652,0.49967221594989264,163.0,980.0
B,L,"[2, 1]",1.0,3.0,0.22442293167114258,1.9608399868011475,0.7269418378963002,163.0,981.0
G,D,"[3, 1]",1.0,4.0,0.2178630828857422,1.694148063659668,0.4713701671402925,163.0,982.0
R,U,"[2, 1]",1.0,5.0,0.36252903938293457,2.0737459659576416,0.7116186037152654,163.0,983.0
Y,R,"[2, 2]",1.0,6.0,0.4389169216156006,2.1085660457611084,0.6703554942839487,163.0,984.0
,,"(3, 3)",,,,,,163.0,
R,U,"[2, 3]",1.0,1.0,0.5718731880187988,3.9426770210266113,0.7461212099898566,,985.0
B,L,"[2, 2]",1.0,2.0,0.24148011207580566,1.8004910945892334,0.5471484302438478,164.0,986.0
B,L,"[2, 1]",1.0,3.0,0.2537059783935547,1.872788906097412,0.6199434978424782,164.0,987.0
G,D,"[3, 1]",1.0,4.0,0.3050661087036133,1.8686199188232422,0.5551648860677217,164.0,988.0
R,U,"[2, 1]",1.0,5.0,0.22629308700561523,1.7870361804962158,0.5589632717756385,164.0,989.0
Y,R,"[2, 2]",1.0,6.0,0.2698972225189209,1.6191680431365967,0.3451502217322091,164.0,990.0
,,"(3, 3)",,,,,,164.0,
R,U,"[2, 3]",1.0,1.0,0.5350301265716553,3.3536970615386963,0.33219463961654033,,991.0
B,L,"[2, 2]",1.0,2.0,0.29288506507873535,1.5790560245513916,0.2779958723348762,165.0,992.0
B,L,"[2, 1]",1.0,3.0,0.2895340919494629,1.7217497825622559,0.43298423587265744,165.0,993.0
G,D,"[3, 1]",1.0,4.0,0.27417707443237305,1.7414519786834717,0.4577901347910365,165.0,994.0
R,U,"[2, 1]",1.0,5.0,0.29628801345825195,1.8537049293518066,0.5614290392506125,165.0,995.0
Y,R,"[2, 2]",1.0,6.0,0.2558720111846924,1.9900519847869873,0.7346158436920655,165.0,996.0
,,"(3, 3)",,,,,,165.0,
R,U,"[2, 3]",1.0,1.0,0.6375510692596436,4.053579092025757,0.6054481087212139,,997.0
B,L,"[2, 2]",1.0,2.0,0.3219749927520752,1.6136131286621094,0.28595468685188996,166.0,998.0
B,L,"[2, 1]",1.0,3.0,0.27740001678466797,1.905014991760254,0.624001968856234,166.0,999.0
G,D,"[3, 1]",1.0,4.0,0.24540400505065918,1.5469450950622559,0.30452842968039273,166.0,1000.0
R,U,"[2, 1]",1.0,5.0,0.4375948905944824,1.7448689937591553,0.31608724496101837,166.0,1001.0
Y,R,"[2, 2]",1.0,6.0,0.3025169372558594,1.7459101676940918,0.4286035287439456,166.0,1002.0
,,"(3, 3)",,,,,,166.0,
R,U,"[2, 3]",-2.0,0.0,4.285776853561401,6.544538974761963,0.5398882838095835,,1003.0
R,U,"[1, 3]",-1.0,-1.0,0.19533491134643555,1.7371268272399902,0.5270602020796927,167.0,1004.0
G,D,"[2, 3]",1.0,0.0,0.9440248012542725,2.6562938690185547,0.7166681364977567,167.0,1005.0
R,U,"[1, 3]",-1.0,-1.0,0.22443604469299316,1.5434529781341553,0.3105013144658282,167.0,1006.0
Y,R,"[1, 4]",-1.0,-2.0,0.23671197891235352,1.5446488857269287,0.3220425241200071,167.0,1007.0
B,L,"[1, 3]",-1.0,-3.0,0.4212949275970459,2.0969929695129395,0.6685158637589018,167.0,1008.0
,,"(3, 3)",,,,,,167.0,
R,U,"[2, 3]",1.0,1.0,0.5398950576782227,7.9970011711120605,0.4825054559380253,,1009.0
B,L,"[2, 2]",1.0,2.0,0.22816085815429688,1.5869488716125488,0.35302942802431003,168.0,1010.0
B,L,"[2, 1]",1.0,3.0,0.22053313255310059,1.5683870315551758,0.33806442175999757,168.0,1011.0
G,D,"[3, 1]",1.0,4.0,0.3368191719055176,1.8222930431365967,0.4769676562262791,168.0,1012.0
R,U,"[2, 1]",-1.0,4.0,0.09314608573913574,5.866158962249756,0.6264301227783047,168.0,1013.0
R,U,"[1, 1]",1.0,5.0,0.2857809066772461,1.592860221862793,0.30309696726609026,168.0,1014.0
,,"(3, 3)",,,,,,168.0,
R,U,"[2, 3]",1.0,1.0,0.7807769775390625,4.250187873840332,0.2865944733830653,,1015.0
B,L,"[2, 2]",1.0,2.0,0.2399601936340332,1.986142873764038,0.7389211847603641,169.0,1016.0
B,L,"[2, 1]",1.0,3.0,0.24661684036254883,1.5595169067382812,0.31575247428972353,169.0,1017.0
G,D,"[3, 1]",1.0,4.0,0.2360551357269287,1.6563200950622559,0.4052234860149765,169.0,1018.0
R,U,"[2, 1]",1.0,5.0,0.3411118984222412,1.6127331256866455,0.26817229265687803,169.0,1019.0
Y,R,"[2, 2]",1.0,6.0,0.2736470699310303,1.7624621391296387,0.4805078262482636,169.0,1020.0
,,"(3, 3)",,,,,,169.0,
R,U,"[2, 3]",1.0,1.0,0.6350870132446289,3.9924681186676025,0.6889017135364424,,1021.0
B,L,"[2, 2]",1.0,2.0,0.20487284660339355,1.5704240798950195,0.3602523610077887,170.0,1022.0
B,L,"[2, 1]",1.0,3.0,0.21816706657409668,1.7341060638427734,0.5110008532761641,170.0,1023.0
G,D,"[3, 1]",1.0,4.0,0.19893813133239746,1.4806609153747559,0.2918668118412049,170.0,1024.0
R,U,"[2, 1]",1.0,5.0,0.2964780330657959,2.0372369289398193,0.7453359341017776,170.0,1025.0
Y,R,"[2, 2]",1.0,6.0,0.2413928508758545,1.9180359840393066,0.6802686954898843,170.0,1026.0
,,"(3, 3)",,,,,,170.0,
R,U,"[2, 3]",1.0,1.0,0.6109938621520996,3.7759499549865723,0.3398284504265616,,1027.0
B,L,"[2, 2]",1.0,2.0,0.2498948574066162,1.9177939891815186,0.6573165817341444,171.0,1028.0
B,L,"[2, 1]",1.0,3.0,0.22899913787841797,1.5043458938598633,0.2787400165378636,171.0,1029.0
G,D,"[3, 1]",1.0,4.0,0.34935808181762695,1.9301841259002686,0.5753852210842184,171.0,1030.0
R,U,"[2, 1]",1.0,5.0,0.2630140781402588,1.8037641048431396,0.5458643750736694,171.0,1031.0
Y,R,"[2, 2]",1.0,6.0,0.27575111389160156,1.666990041732788,0.3962648815463507,171.0,1032.0
,,"(3, 3)",,,,,,171.0,
R,U,"[2, 3]",1.0,1.0,0.5533361434936523,3.7181010246276855,0.5478071839618243,,1033.0
B,L,"[2, 2]",1.0,2.0,0.33083415031433105,1.7094638347625732,0.3742243321664344,172.0,1034.0
B,L,"[2, 1]",1.0,3.0,0.260897159576416,1.5784788131713867,0.3193460407632826,172.0,1035.0
G,D,"[3, 1]",1.0,4.0,0.2596011161804199,1.9242339134216309,0.6599040094975629,172.0,1036.0
R,U,"[2, 1]",1.0,5.0,0.22221112251281738,1.7888500690460205,0.5655313201354191,172.0,1037.0
Y,R,"[2, 2]",1.0,6.0,0.21609807014465332,1.9110112190246582,0.6929835798707243,172.0,1038.0
,,"(3, 3)",,,,,,172.0,
R,U,"[2, 3]",1.0,1.0,0.43270111083984375,4.013835906982422,0.7404849288095221,,1039.0
B,L,"[2, 2]",1.0,2.0,0.29570698738098145,1.9336271286010742,0.6408085774894718,173.0,1040.0
B,L,"[2, 1]",1.0,3.0,0.23273205757141113,1.7525811195373535,0.5102458461964241,173.0,1041.0
G,D,"[3, 1]",1.0,4.0,0.26838111877441406,1.9601161479949951,0.6866860672370181,173.0,1042.0
R,U,"[2, 1]",1.0,5.0,0.22412109375,1.6092729568481445,0.37981649442292914,173.0,1043.0
Y,R,"[2, 2]",1.0,6.0,0.22820615768432617,1.6168510913848877,0.38000023502842223,173.0,1044.0
,,"(3, 3)",,,,,,173.0,
R,U,"[2, 3]",1.0,1.0,0.3477358818054199,3.710111141204834,0.7063628077904474,,1045.0
B,L,"[2, 2]",1.0,2.0,0.23383188247680664,1.5705618858337402,0.3275293447122663,174.0,1046.0
B,L,"[2, 1]",1.0,3.0,0.2842710018157959,1.8462119102478027,0.5568838597487198,174.0,1047.0
G,D,"[3, 1]",1.0,4.0,0.21137499809265137,1.8542118072509766,0.6444753276907262,174.0,1048.0
R,U,"[2, 1]",1.0,5.0,0.1024010181427002,1.786423921585083,0.6806517488854613,174.0,1049.0
Y,R,"[2, 2]",1.0,6.0,0.30938196182250977,1.8788278102874756,0.5597412933809951,174.0,1050.0
,,"(3, 3)",,,,,,174.0,
R,U,"[2, 3]",1.0,1.0,0.3698430061340332,3.383927822113037,0.727033657013004,,1051.0
B,L,"[2, 2]",1.0,2.0,0.28962087631225586,1.9295430183410645,0.6399423503170263,175.0,1052.0
B,L,"[2, 1]",1.0,3.0,0.3110687732696533,1.5991439819335938,0.28946265447167485,175.0,1053.0
G,D,"[3, 1]",1.0,4.0,0.29415392875671387,2.0213749408721924,0.7270661873601516,175.0,1054.0
R,U,"[2, 1]",1.0,5.0,0.26547813415527344,1.6627581119537354,0.3903024559754291,175.0,1055.0
Y,R,"[2, 2]",1.0,6.0,0.21406197547912598,1.8962411880493164,0.6862849413035078,175.0,1056.0
,,"(3, 3)",,,,,,175.0,
R,U,"[2, 3]",1.0,1.0,0.6379919052124023,3.6763319969177246,0.46307621854976133,,1057.0
B,L,"[2, 2]",1.0,2.0,0.26786208152770996,1.7654101848602295,0.4782369889080542,176.0,1058.0
B,L,"[2, 1]",1.0,3.0,0.21712207794189453,1.9597558975219727,0.7377652015827642,176.0,1059.0
G,D,"[3, 1]",1.0,4.0,0.22930288314819336,1.6986720561981201,0.47018273802257066,176.0,1060.0
R,U,"[2, 1]",1.0,5.0,0.3103501796722412,1.8885488510131836,0.5750465349491978,176.0,1061.0
Y,R,"[2, 2]",1.0,6.0,0.2380378246307373,1.6237728595733643,0.38254506825442025,176.0,1062.0
,,"(3, 3)",,,,,,176.0,
R,U,"[2, 3]",1.0,1.0,0.3189210891723633,3.2166500091552734,0.33261341801496047,,1063.0
B,L,"[2, 2]",1.0,2.0,0.24121713638305664,1.663388967514038,0.4127217107855217,177.0,1064.0
B,L,"[2, 1]",1.0,3.0,0.29329895973205566,1.7957351207733154,0.5083125222618361,177.0,1065.0
G,D,"[3, 1]",1.0,4.0,0.20051193237304688,1.6092910766601562,0.4011013094834965,177.0,1066.0
R,U,"[2, 1]",1.0,5.0,0.172990083694458,1.681305170059204,0.49900248654479934,177.0,1067.0
Y,R,"[2, 2]",1.0,6.0,0.2074449062347412,1.925105094909668,0.707213663349449,177.0,1068.0
,,"(3, 3)",,,,,,177.0,
R,U,"[2, 3]",1.0,1.0,0.23777484893798828,3.3825788497924805,0.7397177953176588,,1069.0
B,L,"[2, 2]",1.0,2.0,0.23973584175109863,1.95060396194458,0.7071675786514262,178.0,1070.0
B,L,"[2, 1]",1.0,3.0,0.1937999725341797,1.7480590343475342,0.5555272463893365,178.0,1071.0
G,D,"[3, 1]",1.0,4.0,0.21477699279785156,1.5556039810180664,0.3447268688105699,178.0,1072.0
R,U,"[2, 1]",1.0,5.0,0.23179912567138672,1.4747040271759033,0.25277376747483676,178.0,1073.0
Y,R,"[2, 2]",1.0,6.0,0.21253299713134766,1.673140048980713,0.45901125004595583,178.0,1074.0
,,"(3, 3)",,,,,,178.0,
R,U,"[2, 3]",1.0,1.0,0.25995492935180664,2.730297088623047,0.35618028448939715,,1075.0
