button_choice,action_choice,coordinate_choice,reward,cumulative_reward,rt,total_trial_time,iti,block_n,trial_n
B,L,"[3, 2]",-2.0,0.0,2.6010429859161377,3.9872798919677734,0.35494004516321287,0.0,1.0
B,L,"[3, 1]",1.0,1.0,0.5274760723114014,1.8656690120697021,0.32067964411717576,0.0,2.0
Y,R,"[3, 2]",0.0,1.0,0.9075639247894287,2.172348976135254,0.2599581603626484,0.0,3.0
G,D,"[4, 2]",-2.0,1.0,1.1779899597167969,2.610752820968628,0.4038958170806133,0.0,4.0
R,U,"[3, 2]",0.0,1.0,0.6745011806488037,2.3243110179901123,0.6446104320234531,0.0,5.0
B,L,"[3, 1]",0.0,1.0,0.7687888145446777,2.1888790130615234,0.4338159557996202,0.0,6.0
,,"(3, 3)",,,,,,0.0,
B,L,"[3, 2]",1.0,1.0,0.568748950958252,6.628241062164307,0.6783431717137979,,7.0
Y,R,"[3, 3]",0.0,1.0,0.6515059471130371,2.0594000816345215,0.40475882969926075,1.0,8.0
G,D,"[4, 3]",-1.0,0.0,0.8191180229187012,2.206206798553467,0.3778146901750148,1.0,9.0
B,L,"[4, 2]",-1.0,-1.0,0.5699148178100586,2.054647922515869,0.48230796442245344,1.0,10.0
G,D,"[5, 2]",-1.0,-2.0,0.856328010559082,2.5851571559906006,0.7172025382434151,1.0,11.0
R,U,"[4, 2]",0.0,-2.0,0.42903900146484375,1.7649221420288086,0.3324064924694634,1.0,12.0
,,"(3, 3)",,,,,,1.0,
Y,R,"[3, 4]",-1.0,-1.0,0.7993719577789307,7.130069971084595,0.512770078329149,,13.0
G,D,"[4, 4]",-1.0,-2.0,0.6230459213256836,2.1413259506225586,0.5206096479296656,2.0,14.0
R,U,"[3, 4]",-2.0,-2.0,1.799105167388916,3.223433017730713,0.39365268068410914,2.0,15.0
R,U,"[2, 4]",-1.0,-3.0,0.7285728454589844,2.278149127960205,0.5554755223723826,2.0,16.0
G,D,"[3, 4]",0.0,-3.0,0.6043369770050049,2.1027719974517822,0.4917732355542674,2.0,17.0
G,D,"[4, 4]",0.0,-3.0,0.379486083984375,1.9349110126495361,0.5599538633152334,2.0,18.0
,,"(3, 3)",,,,,,2.0,
Y,R,"[3, 4]",-1.0,-1.0,0.593329906463623,5.3959479331970215,0.7224998924943646,,19.0
B,L,"[3, 3]",0.0,-1.0,0.3982279300689697,2.0436880588531494,0.6496151215109234,3.0,20.0
G,D,"[4, 3]",-1.0,-2.0,0.3772921562194824,2.086621046066284,0.7029259773341232,3.0,21.0
R,U,"[3, 3]",0.0,-2.0,0.30315709114074707,1.6399641036987305,0.3266104588786803,3.0,22.0
R,U,"[2, 3]",-1.0,-3.0,0.49978208541870117,2.25039005279541,0.7432128995724309,3.0,23.0
R,U,"[1, 3]",1.0,-2.0,0.4181859493255615,1.7923610210418701,0.3859796983397376,3.0,24.0
,,"(3, 3)",,,,,,3.0,
G,D,"[4, 3]",-1.0,-1.0,0.850553035736084,5.802885055541992,0.7055121570717664,,25.0
G,D,"[5, 3]",-1.0,-2.0,0.409686803817749,1.745121955871582,0.3343035802485227,4.0,26.0
G,D,"[6, 3]",0.0,-2.0,0.9751079082489014,2.240778923034668,0.25841933042618104,4.0,27.0
G,D,"[6, 3]",0.0,-2.0,0.5554711818695068,2.0112721920013428,0.46963367378884996,4.0,28.0
G,D,"[6, 3]",0.0,-2.0,0.7141518592834473,2.1662399768829346,0.45232633680230055,4.0,29.0
B,L,"[6, 2]",0.0,-2.0,0.5147509574890137,2.0277371406555176,0.5136001195620613,4.0,30.0
,,"(3, 3)",,,,,,4.0,
Y,R,"[3, 4]",-2.0,0.0,1.8725359439849854,4.245870113372803,0.5594601109528927,,31.0
Y,R,"[3, 5]",-1.0,-1.0,0.8927428722381592,2.262115001678467,0.37185881117528635,5.0,32.0
R,U,"[2, 5]",-1.0,-2.0,0.30816102027893066,1.5658619403839111,0.2543901466572112,5.0,33.0
R,U,"[1, 5]",-2.0,-2.0,1.3630650043487549,2.698201894760132,0.3027335490088895,5.0,34.0
G,D,"[2, 5]",0.0,-2.0,0.4350850582122803,2.0050830841064453,0.557497797033796,5.0,35.0
G,D,"[3, 5]",-2.0,-2.0,1.2903900146484375,2.7687621116638184,0.4430504221029783,5.0,36.0
,,"(3, 3)",,,,,,5.0,
B,L,"[3, 2]",1.0,1.0,0.2879159450531006,44.84965395927429,0.46013009076062444,,37.0
B,L,"[3, 1]",1.0,2.0,0.8551318645477295,2.4851579666137695,0.6283769323790065,6.0,38.0
B,L,"[3, 0]",0.0,2.0,0.3647780418395996,1.7057080268859863,0.3511913719447938,6.0,39.0
Y,R,"[3, 1]",0.0,2.0,0.9472839832305908,2.356234073638916,0.4073997463150146,6.0,40.0
R,U,"[2, 1]",1.0,3.0,0.643578052520752,1.9354960918426514,0.2928860759574602,6.0,41.0
R,U,"[1, 1]",-1.0,2.0,0.9940571784973145,2.5514791011810303,0.5608458133690333,6.0,42.0
,,"(3, 3)",,,,,,6.0,
G,D,"[4, 3]",-1.0,-1.0,0.8271400928497314,3.78459095954895,0.578866907491184,,43.0
R,U,"[3, 3]",-2.0,-1.0,1.3004229068756104,2.8929128646850586,0.5717165588076376,7.0,44.0
B,L,"[3, 2]",1.0,0.0,0.3760709762573242,2.0316288471221924,0.6533243443750869,7.0,45.0
B,L,"[3, 1]",1.0,1.0,0.4089221954345703,1.9773378372192383,0.5641119323170163,7.0,46.0
R,U,"[2, 1]",1.0,2.0,0.8104519844055176,2.154860019683838,0.33599546790132734,7.0,47.0
R,U,"[1, 1]",-1.0,1.0,0.7608070373535156,2.2639148235321045,0.4996414050851881,7.0,48.0
,,"(3, 3)",,,,,,7.0,
G,D,"[4, 3]",-1.0,-1.0,0.9100158214569092,5.246422052383423,0.3463648237119976,,49.0
B,L,"[4, 2]",-1.0,-2.0,0.4153721332550049,2.1067090034484863,0.6860771297065187,8.0,50.0
B,L,"[4, 1]",-1.0,-3.0,0.5383310317993164,2.071953058242798,0.524916990487745,8.0,51.0
Y,R,"[4, 2]",0.0,-3.0,0.8058030605316162,2.083073854446411,0.27484168216631044,8.0,52.0
Y,R,"[4, 3]",-2.0,-3.0,1.0144898891448975,2.341446876525879,0.2996853346525103,8.0,53.0
Y,R,"[4, 4]",-1.0,-4.0,0.7324130535125732,2.303226947784424,0.5693919420680159,8.0,54.0
,,"(3, 3)",,,,,,8.0,
B,L,"[3, 2]",1.0,1.0,0.3583700656890869,18.111392974853516,0.681040744877526,,55.0
B,L,"[3, 1]",1.0,2.0,0.32158398628234863,1.8420989513397217,0.5065713535257467,9.0,56.0
R,U,"[2, 1]",1.0,3.0,0.2973358631134033,1.9860448837280273,0.692410715098262,9.0,57.0
B,L,"[2, 0]",0.0,3.0,0.233842134475708,1.6548810005187988,0.43106649564005706,9.0,58.0
R,U,"[1, 0]",0.0,3.0,0.3253021240234375,1.9020938873291016,0.5662718144526652,9.0,59.0
B,L,"[1, 0]",0.0,3.0,0.26343393325805664,1.743260145187378,0.47632453795391616,9.0,60.0
,,"(3, 3)",,,,,,9.0,
B,L,"[3, 2]",1.0,1.0,0.46280789375305176,2.8340539932250977,0.2606681174069965,,61.0
B,L,"[3, 1]",1.0,2.0,0.5387279987335205,2.0449209213256836,0.5055387813394019,10.0,62.0
R,U,"[2, 1]",1.0,3.0,0.39977598190307617,2.103551149368286,0.6920733767836035,10.0,63.0
B,L,"[2, 0]",0.0,3.0,0.293881893157959,2.0108699798583984,0.7195555875813096,10.0,64.0
R,U,"[1, 0]",0.0,3.0,0.4733109474182129,2.190558910369873,0.7103000878715253,10.0,65.0
B,L,"[1, 0]",0.0,3.0,0.34508800506591797,2.006200075149536,0.6665943885173807,10.0,66.0
,,"(3, 3)",,,,,,10.0,
B,L,"[3, 2]",1.0,1.0,0.3747551441192627,3.170102119445801,0.5367902890539267,,67.0
B,L,"[3, 1]",1.0,2.0,0.21623802185058594,1.840893030166626,0.6110387794410082,11.0,68.0
R,U,"[2, 1]",1.0,3.0,0.4237198829650879,2.1567041873931885,0.7342021050977363,11.0,69.0
B,L,"[2, 0]",0.0,3.0,0.2730438709259033,1.69315505027771,0.41108723955804605,11.0,70.0
R,U,"[1, 0]",0.0,3.0,0.7297849655151367,2.085063934326172,0.3628660819402581,11.0,71.0
B,L,"[1, 0]",0.0,3.0,0.3859860897064209,1.8578460216522217,0.47080065685690764,11.0,72.0
,,"(3, 3)",,,,,,11.0,
B,L,"[3, 2]",1.0,1.0,0.39795684814453125,2.82151198387146,0.3422911094540293,,73.0
B,L,"[3, 1]",1.0,2.0,0.24055695533752441,1.54349684715271,0.30259329917507216,12.0,74.0
R,U,"[2, 1]",1.0,3.0,0.3943960666656494,1.8054108619689941,0.4079298327839523,12.0,75.0
G,D,"[3, 1]",0.0,3.0,0.3194429874420166,2.0497758388519287,0.7240790668989421,12.0,76.0
Y,R,"[3, 2]",0.0,3.0,0.3535120487213135,2.03061580657959,0.6880009748749223,12.0,77.0
B,L,"[3, 1]",0.0,3.0,0.4232180118560791,1.8124370574951172,0.3842203722098098,12.0,78.0
,,"(3, 3)",,,,,,12.0,
B,L,"[3, 2]",1.0,1.0,0.4147632122039795,3.026808977127075,0.7107325914640441,,79.0
B,L,"[3, 1]",1.0,2.0,0.33635997772216797,2.040634870529175,0.7014280068348551,13.0,80.0
R,U,"[2, 1]",1.0,3.0,0.19148683547973633,1.8313350677490234,0.632849772962451,13.0,81.0
G,D,"[3, 1]",-2.0,3.0,1.787895917892456,3.4360949993133545,0.618944903796607,13.0,82.0
B,L,"[3, 0]",0.0,3.0,0.3018229007720947,1.619837999343872,0.3058787608107667,13.0,83.0
B,L,"[3, 0]",0.0,3.0,0.21402406692504883,1.6936960220336914,0.4828316081513827,13.0,84.0
,,"(3, 3)",,,,,,13.0,
B,L,"[3, 2]",1.0,1.0,0.30838704109191895,3.330944061279297,0.6136261368817482,,85.0
B,L,"[3, 1]",1.0,2.0,0.18480801582336426,1.6252150535583496,0.42245401855084136,14.0,86.0
R,U,"[2, 1]",1.0,3.0,0.30724120140075684,1.6989209651947021,0.3880297182782862,14.0,87.0
R,U,"[1, 1]",-1.0,2.0,0.38426804542541504,1.750788927078247,0.3555251301721267,14.0,88.0
G,D,"[2, 1]",0.0,2.0,0.6937010288238525,2.20513916015625,0.5105341864650178,14.0,89.0
G,D,"[3, 1]",0.0,2.0,0.586529016494751,2.0483360290527344,0.4756323184257813,14.0,90.0
,,"(3, 3)",,,,,,14.0,
B,L,"[3, 2]",1.0,1.0,0.373046875,2.941209077835083,0.7498237819209719,,91.0
B,L,"[3, 1]",1.0,2.0,0.19064116477966309,1.568406105041504,0.3687093061221663,15.0,92.0
R,U,"[2, 1]",1.0,3.0,0.452984094619751,1.750054121017456,0.3021991882521129,15.0,93.0
Y,R,"[2, 2]",1.0,4.0,0.6030459403991699,2.0594089031219482,0.4448594640558471,15.0,94.0
G,D,"[3, 2]",0.0,4.0,0.5621440410614014,1.8062188625335693,0.25128421525369043,15.0,95.0
B,L,"[3, 1]",-2.0,4.0,1.0596439838409424,2.543056011199951,0.4441306421303038,15.0,96.0
,,"(3, 3)",,,,,,15.0,
B,L,"[3, 2]",1.0,1.0,0.33907079696655273,2.8398709297180176,0.7340788092500501,,97.0
B,L,"[3, 1]",1.0,2.0,0.2118370532989502,1.4889931678771973,0.27325364635497373,16.0,98.0
R,U,"[2, 1]",1.0,3.0,0.42605090141296387,1.9010980129241943,0.47426047600973875,16.0,99.0
Y,R,"[2, 2]",1.0,4.0,0.2373490333557129,1.6493210792541504,0.4069012907850313,16.0,100.0
G,D,"[3, 2]",0.0,4.0,0.4931681156158447,1.7869799137115479,0.2940285197199502,16.0,101.0
Y,R,"[3, 3]",0.0,4.0,0.7079010009765625,2.1313509941101074,0.4254126401686012,16.0,102.0
,,"(3, 3)",,,,,,16.0,
B,L,"[3, 2]",1.0,1.0,0.4131929874420166,2.869821071624756,0.34560234577799237,,103.0
B,L,"[3, 1]",1.0,2.0,0.24707889556884766,1.5082311630249023,0.2703402644296843,17.0,104.0
R,U,"[2, 1]",1.0,3.0,0.3865349292755127,1.7279410362243652,0.331484087053553,17.0,105.0
Y,R,"[2, 2]",1.0,4.0,0.25833702087402344,1.7071311473846436,0.43853788217504525,17.0,106.0
G,D,"[3, 2]",0.0,4.0,0.2864539623260498,1.8067660331726074,0.511844238366102,17.0,107.0
R,U,"[2, 2]",0.0,4.0,0.3523240089416504,2.0854909420013428,0.7472469989477438,17.0,108.0
,,"(3, 3)",,,,,,17.0,
B,L,"[3, 2]",1.0,1.0,0.39386796951293945,2.434154987335205,0.28198378547154035,,109.0
B,L,"[3, 1]",1.0,2.0,0.5241129398345947,1.8975660800933838,0.3627105200263548,18.0,110.0
R,U,"[2, 1]",1.0,3.0,0.19097113609313965,1.7117869853973389,0.524384302772281,18.0,111.0
Y,R,"[2, 2]",1.0,4.0,0.2202310562133789,1.7682428359985352,0.5426673075886361,18.0,112.0
Y,R,"[2, 3]",-1.0,3.0,0.22268891334533691,1.5086040496826172,0.2849563835689907,18.0,113.0
B,L,"[2, 2]",0.0,3.0,0.7800171375274658,2.2485690116882324,0.46672410006906534,18.0,114.0
,,"(3, 3)",,,,,,18.0,
B,L,"[3, 2]",1.0,1.0,0.32114386558532715,3.148329973220825,0.29844202984746027,,115.0
B,L,"[3, 1]",1.0,2.0,0.2781820297241211,1.9707138538360596,0.6855179004617584,19.0,116.0
R,U,"[2, 1]",1.0,3.0,0.3127760887145996,2.020875930786133,0.706346498658692,19.0,117.0
Y,R,"[2, 2]",1.0,4.0,0.3610069751739502,1.6281020641326904,0.26809104732825445,19.0,118.0
G,D,"[3, 2]",0.0,4.0,0.4247100353240967,1.952584981918335,0.5207557078098933,19.0,119.0
R,U,"[2, 2]",0.0,4.0,0.551767110824585,2.1610848903656006,0.6151535050704979,19.0,120.0
,,"(3, 3)",,,,,,19.0,
B,L,"[3, 2]",1.0,1.0,0.37690210342407227,2.5511858463287354,0.39998146428080583,,121.0
B,L,"[3, 1]",1.0,2.0,0.3552420139312744,1.821707010269165,0.4547985933469636,20.0,122.0
R,U,"[2, 1]",1.0,3.0,0.3296539783477783,1.7064850330352783,0.3781292710280969,20.0,123.0
Y,R,"[2, 2]",1.0,4.0,0.3357810974121094,1.8716440200805664,0.5329929478559525,20.0,124.0
B,L,"[2, 1]",0.0,4.0,0.3468048572540283,1.7026619911193848,0.3525471952672928,20.0,125.0
R,U,"[1, 1]",-1.0,3.0,0.649616003036499,1.9434268474578857,0.27944343168255736,20.0,126.0
,,"(3, 3)",,,,,,20.0,
B,L,"[3, 2]",1.0,1.0,0.3498411178588867,2.7438220977783203,0.6229457368087512,,127.0
B,L,"[3, 1]",1.0,2.0,0.257627010345459,1.6770081520080566,0.41685028023263854,21.0,128.0
R,U,"[2, 1]",1.0,3.0,0.40804409980773926,1.9045190811157227,0.48781897371092053,21.0,129.0
Y,R,"[2, 2]",1.0,4.0,0.6621360778808594,1.9121649265289307,0.2503890724521076,21.0,130.0
R,U,"[1, 2]",1.0,5.0,0.4036250114440918,1.8894639015197754,0.4729360764877309,21.0,131.0
Y,R,"[1, 3]",1.0,6.0,0.7262730598449707,2.059497117996216,0.33269169385506386,21.0,132.0
,,"(3, 3)",,,,,,21.0,
B,L,"[3, 2]",1.0,1.0,0.6552720069885254,3.2305781841278076,0.5963677421394828,,133.0
B,L,"[3, 1]",-2.0,1.0,1.1387360095977783,2.5864510536193848,0.4163158946966677,22.0,134.0
B,L,"[3, 0]",0.0,1.0,0.23037004470825195,1.8358659744262695,0.602082936877999,22.0,135.0
B,L,"[3, 0]",0.0,1.0,0.21799492835998535,1.928830862045288,0.7141892471608297,22.0,136.0
B,L,"[3, 0]",0.0,1.0,0.39159202575683594,1.9672801494598389,0.5649101931414038,22.0,137.0
B,L,"[3, 0]",0.0,1.0,0.46219801902770996,1.9310009479522705,0.4627833932422952,22.0,138.0
,,"(3, 3)",,,,,,22.0,
B,L,"[3, 2]",1.0,1.0,0.31909799575805664,2.524667978286743,0.370586787558286,,139.0
B,L,"[3, 1]",1.0,2.0,0.25014305114746094,1.6735789775848389,0.41100746876067534,23.0,140.0
R,U,"[2, 1]",1.0,3.0,0.318634033203125,1.921550989151001,0.5990560349674765,23.0,141.0
Y,R,"[2, 2]",1.0,4.0,0.2785501480102539,1.8957090377807617,0.6116632999208198,23.0,142.0
R,U,"[1, 2]",1.0,5.0,0.3121469020843506,1.5813510417938232,0.2764364785659269,23.0,143.0
Y,R,"[1, 3]",1.0,6.0,0.47183990478515625,2.0956389904022217,0.6218716985774279,23.0,144.0
,,"(3, 3)",,,,,,23.0,
B,L,"[3, 2]",1.0,1.0,0.4665060043334961,3.120576858520508,0.6924402732978342,,145.0
B,L,"[3, 1]",-2.0,1.0,1.4283690452575684,2.900559902191162,0.4432915619628774,24.0,146.0
B,L,"[3, 0]",0.0,1.0,0.20551085472106934,1.5235910415649414,0.3171019933789712,24.0,147.0
B,L,"[3, 0]",0.0,1.0,0.19031214714050293,1.8338730335235596,0.6506627336902793,24.0,148.0
B,L,"[3, 0]",0.0,1.0,0.2349100112915039,1.814363956451416,0.5817615209234204,24.0,149.0
B,L,"[3, 0]",0.0,1.0,0.29745912551879883,2.02478289604187,0.7231871212426282,24.0,150.0
,,"(3, 3)",,,,,,24.0,
B,L,"[3, 2]",1.0,1.0,0.3404238224029541,2.6294732093811035,0.35307360674634847,,151.0
R,U,"[2, 2]",1.0,2.0,0.22927403450012207,1.6062819957733154,0.37587282012943246,25.0,152.0
B,L,"[2, 1]",1.0,3.0,0.5634582042694092,2.17036509513855,0.6128264569929912,25.0,153.0
R,U,"[1, 1]",-1.0,2.0,0.2531301975250244,1.8582401275634766,0.5877300292842331,25.0,154.0
Y,R,"[1, 2]",1.0,3.0,0.26320695877075195,1.779710054397583,0.5007742786662517,25.0,155.0
R,U,"[0, 2]",-2.0,3.0,1.476844072341919,2.8140499591827393,0.2984635842426577,25.0,156.0
,,"(3, 3)",,,,,,25.0,
B,L,"[3, 2]",1.0,1.0,0.37924885749816895,2.66920804977417,0.650640507508344,,157.0
R,U,"[2, 2]",1.0,2.0,0.24071407318115234,1.8792810440063477,0.630005633796977,26.0,158.0
B,L,"[2, 1]",1.0,3.0,0.27245306968688965,1.7598350048065186,0.4733642764711027,26.0,159.0
R,U,"[1, 1]",-1.0,2.0,0.3104851245880127,1.62642502784729,0.31663700874174416,26.0,160.0
Y,R,"[1, 2]",-2.0,2.0,1.0965828895568848,2.698575973510742,0.5650630406862944,26.0,161.0
B,L,"[1, 1]",0.0,2.0,0.3243379592895508,1.6838150024414062,0.3491101459103618,26.0,162.0
,,"(3, 3)",,,,,,26.0,
B,L,"[3, 2]",1.0,1.0,0.3876769542694092,2.649135112762451,0.5813200413799986,,163.0
R,U,"[2, 2]",-2.0,1.0,1.1820769309997559,2.7138891220092773,0.495496095456721,27.0,164.0
B,L,"[2, 1]",1.0,2.0,0.2971839904785156,1.7922029495239258,0.5040554233461112,27.0,165.0
R,U,"[1, 1]",-1.0,1.0,0.22929596900939941,1.575706958770752,0.33016958932737334,27.0,166.0
B,L,"[1, 0]",0.0,1.0,0.46212100982666016,1.9063210487365723,0.43652536513241996,27.0,167.0
B,L,"[1, 0]",0.0,1.0,0.5352659225463867,2.245504140853882,0.7149205947033421,27.0,168.0
,,"(3, 3)",,,,,,27.0,
B,L,"[3, 2]",1.0,1.0,0.4311189651489258,2.5590999126434326,0.5076426829838454,,169.0
B,L,"[3, 1]",1.0,2.0,0.2342231273651123,1.7556710243225098,0.5133800912316883,28.0,170.0
R,U,"[2, 1]",1.0,3.0,0.3129129409790039,1.956752061843872,0.6366129870357253,28.0,171.0
Y,R,"[2, 2]",-2.0,3.0,1.4417178630828857,2.8155429363250732,0.3358930440186853,28.0,172.0
B,L,"[2, 1]",0.0,3.0,0.3970949649810791,2.0250320434570312,0.6274453506309423,28.0,173.0
Y,R,"[2, 2]",0.0,3.0,0.3925909996032715,1.9160470962524414,0.5270158934966156,28.0,174.0
,,"(3, 3)",,,,,,28.0,
B,L,"[3, 2]",1.0,1.0,0.30245018005371094,2.44651198387146,0.4235081729413861,,175.0
B,L,"[3, 1]",1.0,2.0,0.22420406341552734,1.730388879776001,0.5039806425525961,29.0,176.0
R,U,"[2, 1]",1.0,3.0,0.2621920108795166,1.8576080799102783,0.5947068456937378,29.0,177.0
Y,R,"[2, 2]",1.0,4.0,0.34787511825561523,1.7051610946655273,0.3669399343540491,29.0,178.0
R,U,"[1, 2]",1.0,5.0,0.3561699390411377,1.853672981262207,0.4870858344361568,29.0,179.0
Y,R,"[1, 3]",1.0,6.0,0.24712586402893066,1.6256730556488037,0.3795415846322922,29.0,180.0
,,"(3, 3)",,,,,,29.0,
B,L,"[3, 2]",1.0,1.0,0.6292531490325928,3.0339229106903076,0.3967231967231318,,181.0
B,L,"[3, 1]",-2.0,1.0,1.1637258529663086,2.912282943725586,0.7089939172559616,30.0,182.0
B,L,"[3, 0]",0.0,1.0,0.2999298572540283,1.5483040809631348,0.2579479557817787,30.0,183.0
R,U,"[2, 0]",0.0,1.0,0.4840230941772461,1.9512519836425781,0.4756179634353094,30.0,184.0
Y,R,"[2, 1]",1.0,2.0,0.33690810203552246,2.0273518562316895,0.6858925874524463,30.0,185.0
R,U,"[1, 1]",-1.0,1.0,0.24379897117614746,1.7402980327606201,0.47645935746005413,30.0,186.0
,,"(3, 3)",,,,,,30.0,
B,L,"[3, 2]",1.0,1.0,0.42091894149780273,2.660684823989868,0.5206760435322877,,187.0
R,U,"[2, 2]",1.0,2.0,0.2767760753631592,1.9272119998931885,0.6475554184008168,31.0,188.0
B,L,"[2, 1]",1.0,3.0,0.2925279140472412,2.014111042022705,0.7115045348115954,31.0,189.0
B,L,"[2, 0]",0.0,3.0,0.2646799087524414,1.565535068511963,0.31087851429256336,31.0,190.0
R,U,"[1, 0]",0.0,3.0,0.3730621337890625,2.1066482067108154,0.7338079282284868,31.0,191.0
Y,R,"[1, 1]",-1.0,2.0,0.27047204971313477,1.660146951675415,0.37765810736644645,31.0,192.0
,,"(3, 3)",,,,,,31.0,
B,L,"[3, 2]",1.0,1.0,0.8688969612121582,3.7450571060180664,0.48935569581970706,,193.0
B,L,"[3, 1]",1.0,2.0,0.28361010551452637,1.9291331768035889,0.635028225711914,32.0,194.0
R,U,"[2, 1]",1.0,3.0,0.32236814498901367,1.6938560009002686,0.3625275389802382,32.0,195.0
Y,R,"[2, 2]",1.0,4.0,0.4761087894439697,2.1311371326446533,0.6600498304665003,32.0,196.0
R,U,"[1, 2]",1.0,5.0,0.33888697624206543,1.9773149490356445,0.6374345193226555,32.0,197.0
Y,R,"[1, 3]",1.0,6.0,0.2885880470275879,1.9149529933929443,0.6191425648621058,32.0,198.0
,,"(3, 3)",,,,,,32.0,
B,L,"[3, 2]",1.0,1.0,0.45534801483154297,3.467578887939453,0.6536671684375611,,199.0
B,L,"[3, 1]",1.0,2.0,0.36435580253601074,1.9695119857788086,0.5729412717474429,33.0,200.0
R,U,"[2, 1]",-2.0,2.0,1.051698923110962,2.758462905883789,0.681449720288138,33.0,201.0
B,L,"[2, 0]",0.0,2.0,0.5453281402587891,1.9359970092773438,0.3844490897479707,33.0,202.0
R,U,"[1, 0]",-2.0,2.0,1.0108580589294434,2.728654146194458,0.6794853391831492,33.0,203.0
Y,R,"[1, 1]",-1.0,1.0,0.41370606422424316,1.9935269355773926,0.5565538979717612,33.0,204.0
,,"(3, 3)",,,,,,33.0,
B,L,"[3, 2]",1.0,1.0,0.4267568588256836,2.8775742053985596,0.2510650387011175,,205.0
B,L,"[3, 1]",1.0,2.0,0.25923800468444824,1.9284429550170898,0.6622907191867374,34.0,206.0
R,U,"[2, 1]",1.0,3.0,0.3237290382385254,2.016077995300293,0.69517331464572,34.0,207.0
Y,R,"[2, 2]",1.0,4.0,0.23511791229248047,1.7553699016571045,0.5173988877844817,34.0,208.0
R,U,"[1, 2]",1.0,5.0,0.24530696868896484,1.9484028816223145,0.6991191042810325,34.0,209.0
Y,R,"[1, 3]",1.0,6.0,0.23672103881835938,1.677116870880127,0.42654339240388406,34.0,210.0
,,"(3, 3)",,,,,,34.0,
B,L,"[3, 2]",1.0,1.0,0.38961291313171387,2.492561101913452,0.26948307489009693,,211.0
B,L,"[3, 1]",1.0,2.0,0.3490030765533447,2.052947998046875,0.705049345238088,35.0,212.0
R,U,"[2, 1]",1.0,3.0,0.25411105155944824,1.7746779918670654,0.5133213178042038,35.0,213.0
Y,R,"[2, 2]",1.0,4.0,0.27500391006469727,1.9168879985809326,0.6301213827404165,35.0,214.0
R,U,"[1, 2]",1.0,5.0,0.4122190475463867,1.9847309589385986,0.5650112714590855,35.0,215.0
Y,R,"[1, 3]",1.0,6.0,0.26584792137145996,1.7361938953399658,0.46787041532489954,35.0,216.0
,,"(3, 3)",,,,,,35.0,
G,D,"[4, 3]",-2.0,0.0,2.235146999359131,4.821438789367676,0.6892747541455574,,217.0
G,D,"[5, 3]",-1.0,-1.0,0.2700037956237793,1.6734659671783447,0.39632668620825445,36.0,218.0
R,U,"[4, 3]",0.0,-1.0,0.7018570899963379,2.275974988937378,0.555613797113107,36.0,219.0
Y,R,"[4, 4]",-1.0,-2.0,0.46621203422546387,2.0140328407287598,0.5362459502166047,36.0,220.0
Y,R,"[4, 5]",-1.0,-3.0,0.7695999145507812,2.078795909881592,0.29866765559356506,36.0,221.0
Y,R,"[4, 6]",0.0,-3.0,0.34624195098876953,1.740727186203003,0.3893719747441529,36.0,222.0
,,"(3, 3)",,,,,,36.0,
B,L,"[3, 2]",1.0,1.0,0.7343342304229736,3.302388906478882,0.7248877086166521,,223.0
Y,R,"[3, 3]",0.0,1.0,0.4111509323120117,2.0441877841949463,0.6357362675782628,37.0,224.0
G,D,"[4, 3]",-1.0,0.0,0.29529500007629395,1.7349929809570312,0.43758410235298145,37.0,225.0
R,U,"[3, 3]",0.0,0.0,0.5317897796630859,2.0940449237823486,0.5649703868750962,37.0,226.0
Y,R,"[3, 4]",-1.0,-1.0,0.30326390266418457,1.9265329837799072,0.6081855259078908,37.0,227.0
R,U,"[2, 4]",-1.0,-2.0,0.2463819980621338,1.8548409938812256,0.6129943474689818,37.0,228.0
,,"(3, 3)",,,,,,37.0,
B,L,"[3, 2]",1.0,1.0,0.5403261184692383,2.5782928466796875,0.25828191387571625,,229.0
B,L,"[3, 1]",1.0,2.0,0.2703080177307129,1.9656620025634766,0.6902442142267464,38.0,230.0
R,U,"[2, 1]",1.0,3.0,0.2936820983886719,1.8794078826904297,0.5865523565135509,38.0,231.0
Y,R,"[2, 2]",1.0,4.0,0.2292771339416504,1.9549999237060547,0.7246561393110353,38.0,232.0
R,U,"[1, 2]",1.0,5.0,0.20346713066101074,1.9453141689300537,0.736704505088521,38.0,233.0
Y,R,"[1, 3]",1.0,6.0,0.21360301971435547,1.6121690273284912,0.3992241613808295,38.0,234.0
,,"(3, 3)",,,,,,38.0,
B,L,"[3, 2]",1.0,1.0,0.3491659164428711,2.7173800468444824,0.4668425832161982,,235.0
B,L,"[3, 1]",1.0,2.0,0.25254201889038086,1.616145133972168,0.3497983974075175,39.0,236.0
R,U,"[2, 1]",1.0,3.0,0.4467449188232422,2.0635690689086914,0.6128827505938295,39.0,237.0
Y,R,"[2, 2]",1.0,4.0,0.2350327968597412,1.6161489486694336,0.3628251427958557,39.0,238.0
R,U,"[1, 2]",1.0,5.0,0.2811880111694336,1.575300931930542,0.30468857898342916,39.0,239.0
Y,R,"[1, 3]",1.0,6.0,0.2657809257507324,2.0210721492767334,0.742086319499341,39.0,240.0
,,"(3, 3)",,,,,,39.0,
B,L,"[3, 2]",1.0,1.0,0.37362003326416016,3.163264036178589,0.5887562762596261,,241.0
B,L,"[3, 1]",1.0,2.0,0.254025936126709,1.727226972579956,0.46611023078375186,40.0,242.0
R,U,"[2, 1]",1.0,3.0,0.2824580669403076,1.9296159744262695,0.645668320553579,40.0,243.0
Y,R,"[2, 2]",1.0,4.0,0.20692110061645508,1.4588110446929932,0.2546818402258579,40.0,244.0
R,U,"[1, 2]",1.0,5.0,0.3012728691101074,1.639125108718872,0.32726215911990736,40.0,245.0
Y,R,"[1, 3]",1.0,6.0,0.2909228801727295,1.942507028579712,0.6528164985863933,40.0,246.0
,,"(3, 3)",,,,,,40.0,
B,L,"[3, 2]",1.0,1.0,0.3572878837585449,2.3812460899353027,0.417580841550595,,247.0
B,L,"[3, 1]",1.0,2.0,0.24077796936035156,1.5129220485687256,0.26418815949301366,41.0,248.0
R,U,"[2, 1]",1.0,3.0,0.292402982711792,1.842519998550415,0.5397060310908939,41.0,249.0
Y,R,"[2, 2]",1.0,4.0,0.2168259620666504,1.5833477973937988,0.35665948533251435,41.0,250.0
R,U,"[1, 2]",1.0,5.0,0.32199692726135254,1.6636958122253418,0.336971128391977,41.0,251.0
Y,R,"[1, 3]",1.0,6.0,0.2550342082977295,1.9383139610290527,0.6748973804469991,41.0,252.0
,,"(3, 3)",,,,,,41.0,
B,L,"[3, 2]",1.0,1.0,0.32347798347473145,2.7511351108551025,0.45979211339661713,,253.0
B,L,"[3, 1]",1.0,2.0,0.2535719871520996,1.9253270626068115,0.6847518109716453,42.0,254.0
R,U,"[2, 1]",1.0,3.0,0.3383190631866455,1.733963966369629,0.38579761168637106,42.0,255.0
Y,R,"[2, 2]",1.0,4.0,0.25920891761779785,1.96986985206604,0.7054465089554546,42.0,256.0
R,U,"[1, 2]",1.0,5.0,0.2977299690246582,1.9758028984069824,0.6813587747692201,42.0,257.0
Y,R,"[1, 3]",1.0,6.0,0.2693970203399658,1.7973761558532715,0.5122401727824666,42.0,258.0
,,"(3, 3)",,,,,,42.0,
B,L,"[3, 2]",-2.0,0.0,1.653691053390503,3.8308310508728027,0.4600689327019988,,259.0
B,L,"[3, 1]",1.0,1.0,0.3578310012817383,1.8383550643920898,0.4817532229580375,43.0,260.0
R,U,"[2, 1]",1.0,2.0,0.24572992324829102,1.6636910438537598,0.41189334904343905,43.0,261.0
Y,R,"[2, 2]",1.0,3.0,0.2618730068206787,1.6199688911437988,0.3654256132257609,43.0,262.0
R,U,"[1, 2]",1.0,4.0,0.24661493301391602,1.8538150787353516,0.6022408224358857,43.0,263.0
Y,R,"[1, 3]",1.0,5.0,0.20566606521606445,1.851257085800171,0.6368562676788048,43.0,264.0
,,"(3, 3)",,,,,,43.0,
B,L,"[3, 2]",1.0,1.0,0.6984000205993652,5.052311182022095,0.3559993585462125,,265.0
B,L,"[3, 1]",1.0,2.0,0.38507914543151855,1.7898509502410889,0.41263740510388597,44.0,266.0
R,U,"[2, 1]",1.0,3.0,0.32959699630737305,1.742704153060913,0.4220233976163505,44.0,267.0
Y,R,"[2, 2]",1.0,4.0,0.2929399013519287,2.0057411193847656,0.7106567941409049,44.0,268.0
R,U,"[1, 2]",1.0,5.0,0.22394394874572754,1.6344249248504639,0.4122123196541349,44.0,269.0
Y,R,"[1, 3]",1.0,6.0,0.28537702560424805,1.8732330799102783,0.5853696875112329,44.0,270.0
,,"(3, 3)",,,,,,44.0,
B,L,"[3, 2]",1.0,1.0,0.3951699733734131,5.14303994178772,0.7288639033163081,,271.0
B,L,"[3, 1]",1.0,2.0,0.1981658935546875,1.5195369720458984,0.33161994519651905,45.0,272.0
R,U,"[2, 1]",1.0,3.0,0.2357490062713623,1.9871900081634521,0.7350602674757839,45.0,273.0
Y,R,"[2, 2]",1.0,4.0,0.21447205543518066,1.8700261116027832,0.6552937751353576,45.0,274.0
R,U,"[1, 2]",1.0,5.0,0.22098088264465332,1.5644779205322266,0.33692691272384323,45.0,275.0
Y,R,"[1, 3]",1.0,6.0,0.2692220211029053,1.6698870658874512,0.3897765820004571,45.0,276.0
,,"(3, 3)",,,,,,45.0,
B,L,"[3, 2]",1.0,1.0,0.6383562088012695,2.8213400840759277,0.3614584086463307,,277.0
B,L,"[3, 1]",1.0,2.0,0.3090510368347168,1.7137138843536377,0.40834698120819607,46.0,278.0
R,U,"[2, 1]",1.0,3.0,0.29055190086364746,1.6718249320983887,0.38015672959401825,46.0,279.0
Y,R,"[2, 2]",1.0,4.0,0.1937570571899414,1.5310239791870117,0.3280066009652857,46.0,280.0
R,U,"[1, 2]",1.0,5.0,0.305649995803833,1.8379850387573242,0.5326216774704067,46.0,281.0
Y,R,"[1, 3]",1.0,6.0,0.19074392318725586,1.5034599304199219,0.3028367545700645,46.0,282.0
,,"(3, 3)",,,,,,46.0,
B,L,"[3, 2]",1.0,1.0,0.6891870498657227,2.9993250370025635,0.6851767092595618,,283.0
B,L,"[3, 1]",1.0,2.0,0.22681593894958496,1.660588026046753,0.4294317803126716,47.0,284.0
R,U,"[2, 1]",1.0,3.0,0.32189393043518066,1.8412199020385742,0.5206437179254961,47.0,285.0
Y,R,"[2, 2]",1.0,4.0,0.21581602096557617,1.6652390956878662,0.45252445988025497,47.0,286.0
R,U,"[1, 2]",1.0,5.0,0.28645801544189453,1.7691049575805664,0.47163852857147653,47.0,287.0
Y,R,"[1, 3]",-1.0,5.0,0.09486794471740723,5.857288837432861,0.6121942189523495,47.0,288.0
,,"(3, 3)",,,,,,47.0,
B,L,"[3, 2]",1.0,1.0,0.60300612449646,3.2543649673461914,0.716844967629568,,289.0
B,L,"[3, 1]",1.0,2.0,0.26752495765686035,1.9040939807891846,0.6207134861728822,48.0,290.0
R,U,"[2, 1]",1.0,3.0,0.41579198837280273,2.003664970397949,0.5742928912737723,48.0,291.0
Y,R,"[2, 2]",1.0,4.0,0.3735661506652832,1.7525629997253418,0.37731069586820215,48.0,292.0
R,U,"[1, 2]",1.0,5.0,0.6045770645141602,2.1496598720550537,0.5436235485187113,48.0,293.0
Y,R,"[1, 3]",1.0,6.0,0.3475830554962158,2.0829057693481445,0.7263340073655726,48.0,294.0
,,"(3, 3)",,,,,,48.0,
B,L,"[3, 2]",1.0,1.0,0.414564847946167,3.2065060138702393,0.7494987489423163,,295.0
B,L,"[3, 1]",1.0,2.0,0.2807581424713135,1.5820510387420654,0.298676739187351,49.0,296.0
R,U,"[2, 1]",1.0,3.0,0.5796599388122559,1.8617331981658936,0.27709599093616644,49.0,297.0
Y,R,"[2, 2]",1.0,4.0,0.33066892623901367,1.6687569618225098,0.3458064760356063,49.0,298.0
R,U,"[1, 2]",1.0,5.0,0.7429461479187012,2.0370028018951416,0.299671763143535,49.0,299.0
Y,R,"[1, 3]",1.0,6.0,0.33500003814697266,2.040649890899658,0.6897640784761908,49.0,300.0
,,"(3, 3)",,,,,,49.0,
B,L,"[3, 2]",-2.0,0.0,1.0240190029144287,3.4462339878082275,0.3197595563942794,,301.0
B,L,"[3, 1]",-2.0,0.0,1.3658959865570068,2.6894419193267822,0.2927082274274242,50.0,302.0
Y,R,"[3, 2]",0.0,0.0,0.7085518836975098,2.4292221069335938,0.7216887362262443,50.0,303.0
Y,R,"[3, 3]",0.0,0.0,0.2655770778656006,1.9977331161499023,0.7360086252651128,50.0,304.0
Y,R,"[3, 4]",-1.0,-1.0,0.29135894775390625,1.676259994506836,0.37928878509255504,50.0,305.0
Y,R,"[3, 5]",-1.0,-2.0,0.5108509063720703,2.24086594581604,0.7364497401431199,50.0,306.0
,,"(3, 3)",,,,,,50.0,
B,L,"[3, 2]",1.0,1.0,0.5180721282958984,2.4439280033111572,0.49739586605397773,,307.0
B,L,"[3, 1]",1.0,2.0,0.23693609237670898,1.6008479595184326,0.3484278825974183,51.0,308.0
R,U,"[2, 1]",1.0,3.0,0.45532703399658203,1.8261139392852783,0.35776743894787233,51.0,309.0
Y,R,"[2, 2]",1.0,4.0,0.23276281356811523,1.5927870273590088,0.3506112254758004,51.0,310.0
R,U,"[1, 2]",1.0,5.0,0.25258493423461914,1.8965051174163818,0.630307252558155,51.0,311.0
Y,R,"[1, 3]",1.0,6.0,0.2774949073791504,2.034708023071289,0.74819260474596,51.0,312.0
,,"(3, 3)",,,,,,51.0,
B,L,"[3, 2]",1.0,1.0,0.5927720069885254,3.689399003982544,0.32126360843612434,,313.0
B,L,"[3, 1]",1.0,2.0,0.7159719467163086,2.138469934463501,0.4097142124842406,52.0,314.0
R,U,"[2, 1]",1.0,3.0,0.7387018203735352,2.1514790058135986,0.4112570451933675,52.0,315.0
Y,R,"[2, 2]",1.0,4.0,0.4669201374053955,1.9758579730987549,0.5037525990549437,52.0,316.0
R,U,"[1, 2]",1.0,5.0,0.5357959270477295,1.9271149635314941,0.38101610813288755,52.0,317.0
Y,R,"[1, 3]",1.0,6.0,0.6177949905395508,2.257858991622925,0.6387800342573698,52.0,318.0
,,"(3, 3)",,,,,,52.0,
B,L,"[3, 2]",1.0,1.0,0.7331991195678711,3.198509931564331,0.5540998601059011,,319.0
B,L,"[3, 1]",1.0,2.0,0.44547200202941895,2.011662006378174,0.565682868777686,53.0,320.0
R,U,"[2, 1]",1.0,3.0,0.5088770389556885,1.8314440250396729,0.31397513416697204,53.0,321.0
Y,R,"[2, 2]",1.0,4.0,0.35062289237976074,1.7347588539123535,0.3654859827173982,53.0,322.0
R,U,"[1, 2]",1.0,5.0,0.44632792472839355,2.1951379776000977,0.7434813241828679,53.0,323.0
Y,R,"[1, 3]",1.0,6.0,0.32819390296936035,1.7977972030639648,0.4750266468373028,53.0,324.0
,,"(3, 3)",,,,,,53.0,
B,L,"[3, 2]",1.0,1.0,0.7046999931335449,2.700131893157959,0.32533979031899884,,325.0
B,L,"[3, 1]",1.0,2.0,0.45209383964538574,2.1020009517669678,0.6436747666730664,54.0,326.0
R,U,"[2, 1]",1.0,3.0,0.3433990478515625,1.6943211555480957,0.35501612137620336,54.0,327.0
Y,R,"[2, 2]",1.0,4.0,0.38334107398986816,1.8751699924468994,0.48012207197146134,54.0,328.0
R,U,"[1, 2]",1.0,5.0,0.4620959758758545,1.961921215057373,0.4919900483080665,54.0,329.0
Y,R,"[1, 3]",1.0,6.0,0.42043304443359375,1.9035859107971191,0.49564137778479317,54.0,330.0
,,"(3, 3)",,,,,,54.0,
B,L,"[3, 2]",1.0,1.0,0.7345330715179443,3.0256710052490234,0.40492205651655633,,331.0
B,L,"[3, 1]",1.0,2.0,0.40790390968322754,1.8458549976348877,0.4340006637090395,55.0,332.0
R,U,"[2, 1]",1.0,3.0,0.34698486328125,2.0691680908203125,0.7196205271012501,55.0,333.0
Y,R,"[2, 2]",1.0,4.0,0.3483901023864746,1.6718401908874512,0.3251114907513214,55.0,334.0
R,U,"[1, 2]",1.0,5.0,0.44789695739746094,2.0398049354553223,0.5983497498562218,55.0,335.0
Y,R,"[1, 3]",1.0,6.0,0.3018519878387451,1.6835041046142578,0.3651463447925218,55.0,336.0
,,"(3, 3)",,,,,,55.0,
B,L,"[3, 2]",1.0,1.0,0.7611160278320312,3.489772081375122,0.571464734112519,,337.0
B,L,"[3, 1]",1.0,2.0,0.4803609848022461,2.08388614654541,0.6053226513017163,56.0,338.0
R,U,"[2, 1]",1.0,3.0,0.22700095176696777,1.6973860263824463,0.46954852809811204,56.0,339.0
Y,R,"[2, 2]",1.0,4.0,0.2811768054962158,1.9231181144714355,0.6424628477478987,56.0,340.0
R,U,"[1, 2]",1.0,5.0,0.2667229175567627,1.8990919589996338,0.6250244122076243,56.0,341.0
Y,R,"[1, 3]",1.0,6.0,0.22276806831359863,1.509308099746704,0.28475361083843465,56.0,342.0
,,"(3, 3)",,,,,,56.0,
B,L,"[3, 2]",1.0,1.0,0.810513973236084,2.896228075027466,0.41413476815280625,,343.0
B,L,"[3, 1]",1.0,2.0,0.33015918731689453,1.830815076828003,0.4948909888919298,57.0,344.0
R,U,"[2, 1]",1.0,3.0,0.29062795639038086,2.0160579681396484,0.727567293091063,57.0,345.0
Y,R,"[2, 2]",1.0,4.0,0.10602307319641113,1.8190608024597168,0.7131575473758439,57.0,346.0
R,U,"[1, 2]",1.0,5.0,0.2626171112060547,1.905707836151123,0.6356904332864437,57.0,347.0
Y,R,"[1, 3]",1.0,6.0,0.25084900856018066,1.7796659469604492,0.5155447664002784,57.0,348.0
,,"(3, 3)",,,,,,57.0,
B,L,"[3, 2]",1.0,1.0,0.39214301109313965,2.6904871463775635,0.622561977121217,,349.0
B,L,"[3, 1]",1.0,2.0,0.30321812629699707,1.9311280250549316,0.6203640005521822,58.0,350.0
R,U,"[2, 1]",1.0,3.0,0.23508477210998535,1.9151241779327393,0.6687669968505875,58.0,351.0
Y,R,"[2, 2]",1.0,4.0,0.20436811447143555,1.6443049907684326,0.43004508733529856,58.0,352.0
R,U,"[1, 2]",1.0,5.0,0.24945282936096191,1.663780927658081,0.37717039560769355,58.0,353.0
Y,R,"[1, 3]",1.0,6.0,0.229295015335083,1.9186570644378662,0.6956849010030512,58.0,354.0
,,"(3, 3)",,,,,,58.0,
B,L,"[3, 2]",1.0,1.0,0.6659328937530518,2.9265689849853516,0.4559654990367514,,355.0
B,L,"[3, 1]",1.0,2.0,0.25450801849365234,1.5447239875793457,0.283999200023785,59.0,356.0
R,U,"[2, 1]",1.0,3.0,0.2805778980255127,1.9344851970672607,0.6516689435825767,59.0,357.0
Y,R,"[2, 2]",1.0,4.0,0.38342785835266113,1.8318040370941162,0.4501894751432945,59.0,358.0
R,U,"[1, 2]",1.0,5.0,0.296065092086792,2.0349130630493164,0.7349505370870233,59.0,359.0
Y,R,"[1, 3]",1.0,6.0,0.19082999229431152,1.6736881732940674,0.47558513193140683,59.0,360.0
,,"(3, 3)",,,,,,59.0,
B,L,"[3, 2]",1.0,1.0,0.36401796340942383,2.453122854232788,0.4622040147876287,,361.0
B,L,"[3, 1]",1.0,2.0,0.31323814392089844,1.8280179500579834,0.5234787048686216,60.0,362.0
R,U,"[2, 1]",1.0,3.0,0.5190639495849609,2.013167142868042,0.48671426720076055,60.0,363.0
Y,R,"[2, 2]",1.0,4.0,0.2305469512939453,1.5729269981384277,0.34310977551536,60.0,364.0
R,U,"[1, 2]",1.0,5.0,0.3518850803375244,1.789236068725586,0.4323324157872898,60.0,365.0
Y,R,"[1, 3]",1.0,6.0,0.3778538703918457,1.9280850887298584,0.543605004204079,60.0,366.0
,,"(3, 3)",,,,,,60.0,
B,L,"[3, 2]",1.0,1.0,0.445310115814209,3.393950939178467,0.3211610808770926,,367.0
B,L,"[3, 1]",1.0,2.0,0.31948399543762207,1.645339012145996,0.333123917932271,61.0,368.0
R,U,"[2, 1]",1.0,3.0,0.30576395988464355,1.6210300922393799,0.30428505038963827,61.0,369.0
Y,R,"[2, 2]",1.0,4.0,0.23791909217834473,1.8389229774475098,0.609428984679786,61.0,370.0
B,L,"[2, 1]",0.0,4.0,0.28850793838500977,1.8117878437042236,0.5215390801270868,61.0,371.0
Y,R,"[2, 2]",0.0,4.0,0.21279501914978027,1.4910662174224854,0.27949947549931836,61.0,372.0
,,"(3, 3)",,,,,,61.0,
B,L,"[3, 2]",1.0,1.0,0.33657217025756836,2.2162399291992188,0.362326719030043,,373.0
B,L,"[3, 1]",1.0,2.0,0.98124098777771,2.6508891582489014,0.6793727573525281,62.0,374.0
R,U,"[2, 1]",1.0,3.0,0.3327639102935791,1.7718548774719238,0.4183752321880267,62.0,375.0
Y,R,"[2, 2]",1.0,4.0,0.2109699249267578,1.7174899578094482,0.5024688822452013,62.0,376.0
R,U,"[1, 2]",1.0,5.0,0.2823319435119629,1.6931700706481934,0.3957987727961587,62.0,377.0
Y,R,"[1, 3]",1.0,6.0,0.2950880527496338,1.9628911018371582,0.6752041799053978,62.0,378.0
,,"(3, 3)",,,,,,62.0,
B,L,"[3, 2]",1.0,1.0,0.5270957946777344,3.83092999458313,0.7228642075887403,,379.0
B,L,"[3, 1]",1.0,2.0,0.41621994972229004,2.054094076156616,0.6436490396769379,63.0,380.0
R,U,"[2, 1]",1.0,3.0,0.33007097244262695,1.6276979446411133,0.305087447562482,63.0,381.0
Y,R,"[2, 2]",1.0,4.0,0.30996012687683105,1.899501085281372,0.587621306157248,63.0,382.0
R,U,"[1, 2]",1.0,5.0,0.24550795555114746,1.7838990688323975,0.5383233665256651,63.0,383.0
Y,R,"[1, 3]",1.0,6.0,0.2107381820678711,1.6911721229553223,0.4794135898769799,63.0,384.0
,,"(3, 3)",,,,,,63.0,
B,L,"[3, 2]",1.0,1.0,0.339277982711792,3.297683000564575,0.7437315604640398,,385.0
B,L,"[3, 1]",1.0,2.0,0.326524019241333,2.038003921508789,0.7150975361596827,64.0,386.0
R,U,"[2, 1]",1.0,3.0,0.3095278739929199,1.77121901512146,0.45319491172698695,64.0,387.0
Y,R,"[2, 2]",1.0,4.0,0.2209160327911377,1.7664260864257812,0.5361356215325874,64.0,388.0
R,U,"[1, 2]",1.0,5.0,0.398327112197876,2.063992977142334,0.650200979940553,64.0,389.0
Y,R,"[1, 3]",1.0,6.0,0.26290392875671387,1.6384141445159912,0.37221800793521953,64.0,390.0
,,"(3, 3)",,,,,,64.0,
B,L,"[3, 2]",1.0,1.0,0.382814884185791,2.999537944793701,0.2719586859141308,,391.0
B,L,"[3, 1]",1.0,2.0,0.39487195014953613,1.8956711292266846,0.500673272748245,65.0,392.0
R,U,"[2, 1]",1.0,3.0,0.29667115211486816,1.7256419658660889,0.42637743707251546,65.0,393.0
Y,R,"[2, 2]",1.0,4.0,0.24024295806884766,1.9383368492126465,0.6978528804893778,65.0,394.0
R,U,"[1, 2]",1.0,5.0,0.26536107063293457,1.647860050201416,0.36272912433645754,65.0,395.0
Y,R,"[1, 3]",1.0,6.0,0.21298885345458984,1.8149709701538086,0.6107782400418427,65.0,396.0
,,"(3, 3)",,,,,,65.0,
B,L,"[3, 2]",1.0,1.0,0.3434591293334961,2.8442471027374268,0.5384221284289996,,397.0
B,L,"[3, 1]",1.0,2.0,0.2142329216003418,1.8458051681518555,0.6342245141852114,66.0,398.0
R,U,"[2, 1]",1.0,3.0,0.2634460926055908,1.5718879699707031,0.3064295689691307,66.0,399.0
Y,R,"[2, 2]",1.0,4.0,0.5697979927062988,2.2867379188537598,0.7094122585884535,66.0,400.0
B,L,"[2, 1]",0.0,4.0,0.3875579833984375,1.774916172027588,0.3847996101581373,66.0,401.0
B,L,"[2, 0]",-2.0,4.0,2.1142959594726562,3.6176090240478516,0.4690209014355072,66.0,402.0
,,"(3, 3)",,,,,,66.0,
B,L,"[3, 2]",-1.0,-1.0,0.3255279064178467,3.0325639247894287,0.3519178390663714,,403.0
Y,R,"[3, 3]",-2.0,-3.0,0.7925240993499756,2.3936328887939453,0.595299582315284,67.0,404.0
Y,R,"[3, 4]",-1.0,-4.0,0.2051830291748047,1.880284070968628,0.6755297824120531,67.0,405.0
Y,R,"[3, 5]",-1.0,-5.0,0.26497912406921387,1.9550178050994873,0.6972396592801536,67.0,406.0
Y,R,"[3, 6]",0.0,-5.0,0.24137187004089355,1.6165030002593994,0.36399445718694995,67.0,407.0
Y,R,"[3, 6]",0.0,-5.0,0.4326319694519043,2.0260250568389893,0.5898288777452725,67.0,408.0
,,"(3, 3)",,,,,,67.0,
B,L,"[3, 2]",-1.0,-1.0,0.3671579360961914,3.8645660877227783,0.5877648883613231,,409.0
B,L,"[3, 1]",1.0,0.0,0.36168789863586426,1.884855031967163,0.5060118398895114,68.0,410.0
R,U,"[2, 1]",-1.0,-1.0,0.3673250675201416,1.8665499687194824,0.48931262891143507,68.0,411.0
Y,R,"[2, 2]",-1.0,-2.0,0.37674689292907715,1.7297909259796143,0.3527375990282201,68.0,412.0
B,L,"[2, 1]",-1.0,-3.0,0.44659996032714844,2.137087821960449,0.6894128143074717,68.0,413.0
B,L,"[2, 0]",0.0,-3.0,0.12983918190002441,1.7199108600616455,0.5927753878332306,68.0,414.0
,,"(3, 3)",,,,,,68.0,
B,L,"[3, 2]",-1.0,-1.0,0.3008451461791992,2.415365219116211,0.2752215505540906,,415.0
B,L,"[3, 1]",-2.0,-1.0,1.0210480690002441,2.5594918727874756,0.5177853994471201,69.0,416.0
B,L,"[3, 0]",0.0,-1.0,0.12355208396911621,1.4335289001464844,0.301595781005152,69.0,417.0
R,U,"[2, 0]",0.0,-1.0,0.265333890914917,1.636909008026123,0.37159834349452936,69.0,418.0
Y,R,"[2, 1]",-1.0,-2.0,0.2161409854888916,1.5340609550476074,0.3059735004539436,69.0,419.0
R,U,"[1, 1]",-1.0,-3.0,0.6844501495361328,2.2892301082611084,0.5947305930091733,69.0,420.0
,,"(3, 3)",,,,,,69.0,
G,D,"[4, 3]",1.0,1.0,0.7270550727844238,3.227729082107544,0.406198531366221,,421.0
G,D,"[5, 3]",1.0,2.0,0.29310011863708496,1.8093059062957764,0.5154385784534554,70.0,422.0
G,D,"[6, 3]",0.0,2.0,0.31650209426879883,1.9322738647460938,0.6143730134353708,70.0,423.0
R,U,"[5, 3]",1.0,3.0,0.27922606468200684,1.892421007156372,0.6067129607918555,70.0,424.0
Y,R,"[5, 4]",-1.0,2.0,0.3839278221130371,1.737083911895752,0.3441629045384123,70.0,425.0
B,L,"[5, 3]",1.0,3.0,0.32575392723083496,1.881330966949463,0.5586610128586373,70.0,426.0
,,"(3, 3)",,,,,,70.0,
G,D,"[4, 3]",1.0,1.0,0.5931198596954346,3.045884132385254,0.6047381316445908,,427.0
G,D,"[5, 3]",1.0,2.0,0.3013768196105957,1.971992015838623,0.6597803966604294,71.0,428.0
B,L,"[5, 2]",1.0,3.0,0.4308278560638428,2.036968946456909,0.6134459034020279,71.0,429.0
B,L,"[5, 1]",-1.0,2.0,0.2703440189361572,1.9260518550872803,0.639832298381009,71.0,430.0
B,L,"[5, 0]",0.0,2.0,0.5972390174865723,1.9316561222076416,0.3384589851085976,71.0,431.0
B,L,"[5, 0]",0.0,2.0,0.31909990310668945,1.622122049331665,0.3104924614443861,71.0,432.0
,,"(3, 3)",,,,,,71.0,
G,D,"[4, 3]",1.0,1.0,0.3767108917236328,3.2386929988861084,0.41567830138657613,,433.0
G,D,"[5, 3]",1.0,2.0,0.25885987281799316,1.575740098953247,0.30821527126639864,72.0,434.0
Y,R,"[5, 4]",-1.0,1.0,0.28394579887390137,1.7682619094848633,0.4763887617292152,72.0,435.0
B,L,"[5, 3]",1.0,2.0,0.2333381175994873,1.9082520008087158,0.6676462222071302,72.0,436.0
Y,R,"[5, 4]",-1.0,1.0,0.5637447834014893,2.2090020179748535,0.6267494542836388,72.0,437.0
B,L,"[5, 3]",1.0,2.0,0.23680591583251953,1.686462163925171,0.4468136516108961,72.0,438.0
,,"(3, 3)",,,,,,72.0,
G,D,"[4, 3]",1.0,1.0,0.38201403617858887,2.9694979190826416,0.6328821283350139,,439.0
G,D,"[5, 3]",1.0,2.0,0.3314530849456787,1.761490821838379,0.42800428487406583,73.0,440.0
R,U,"[4, 3]",1.0,3.0,0.8686659336090088,2.52878999710083,0.6564536260215956,73.0,441.0
B,L,"[4, 2]",1.0,4.0,0.24321889877319336,1.6999340057373047,0.4566175325193641,73.0,442.0
R,U,"[3, 2]",-1.0,3.0,0.25237584114074707,1.875087022781372,0.6150353315757042,73.0,443.0
B,L,"[3, 1]",1.0,4.0,0.21585798263549805,1.874614953994751,0.639560192241926,73.0,444.0
,,"(3, 3)",,,,,,73.0,
G,D,"[4, 3]",1.0,1.0,0.24421310424804688,2.3538548946380615,0.4436465767669672,,445.0
G,D,"[5, 3]",1.0,2.0,0.25146913528442383,1.9964628219604492,0.7399262134455471,74.0,446.0
R,U,"[4, 3]",1.0,3.0,0.2497260570526123,1.605848789215088,0.3460850033347556,74.0,447.0
B,L,"[4, 2]",1.0,4.0,0.28050684928894043,1.974534034729004,0.703632571430673,74.0,448.0
Y,R,"[4, 3]",1.0,5.0,0.2202281951904297,1.7775309085845947,0.5481006787133396,74.0,449.0
B,L,"[4, 2]",1.0,6.0,0.21095514297485352,1.6339399814605713,0.41549511921625815,74.0,450.0
,,"(3, 3)",,,,,,74.0,
G,D,"[4, 3]",1.0,1.0,0.26869797706604004,2.5552821159362793,0.5872313430920163,,451.0
G,D,"[5, 3]",1.0,2.0,0.20773100852966309,1.6583869457244873,0.44573225719313603,75.0,452.0
R,U,"[4, 3]",1.0,3.0,0.3017001152038574,1.7191698551177979,0.4150037881730186,75.0,453.0
B,L,"[4, 2]",1.0,4.0,0.2326970100402832,1.8415699005126953,0.5897871238670802,75.0,454.0
Y,R,"[4, 3]",1.0,5.0,0.2024989128112793,1.766629934310913,0.5564825663934825,75.0,455.0
G,D,"[5, 3]",1.0,6.0,0.2180027961730957,1.9700140953063965,0.7429190362600115,75.0,456.0
,,"(3, 3)",,,,,,75.0,
G,D,"[4, 3]",1.0,1.0,0.35262417793273926,3.171797037124634,0.7148236739413871,,457.0
G,D,"[5, 3]",1.0,2.0,0.24092507362365723,1.9590940475463867,0.7073592933959196,76.0,458.0
R,U,"[4, 3]",1.0,3.0,0.2010500431060791,1.92085599899292,0.711584850858592,76.0,459.0
B,L,"[4, 2]",1.0,4.0,0.16034412384033203,1.757460117340088,0.6025559645524906,76.0,460.0
Y,R,"[4, 3]",1.0,5.0,0.21467304229736328,1.4697010517120361,0.2558992033390187,76.0,461.0
G,D,"[5, 3]",1.0,6.0,0.2131509780883789,1.789236068725586,0.5781574282575408,76.0,462.0
,,"(3, 3)",,,,,,76.0,
G,D,"[4, 3]",1.0,1.0,0.24368596076965332,2.6560959815979004,0.6508427167674768,,463.0
G,D,"[5, 3]",1.0,2.0,0.1991889476776123,1.9317398071289062,0.7158593080741371,77.0,464.0
R,U,"[4, 3]",1.0,3.0,0.21584105491638184,1.507861852645874,0.29091058959474764,77.0,465.0
B,L,"[4, 2]",1.0,4.0,0.2729499340057373,1.557520866394043,0.28177561726589545,77.0,466.0
Y,R,"[4, 3]",1.0,5.0,0.22057700157165527,1.7130341529846191,0.47808566334174946,77.0,467.0
G,D,"[5, 3]",1.0,6.0,0.2475581169128418,1.5131340026855469,0.27453546165268616,77.0,468.0
,,"(3, 3)",,,,,,77.0,
G,D,"[4, 3]",1.0,1.0,0.36260390281677246,2.4766550064086914,0.3847545495753441,,469.0
G,D,"[5, 3]",1.0,2.0,0.2965118885040283,1.8016841411590576,0.5029712759351588,78.0,470.0
R,U,"[4, 3]",1.0,3.0,0.23578906059265137,1.5391161441802979,0.2922548923411203,78.0,471.0
B,L,"[4, 2]",1.0,4.0,0.4593491554260254,2.01275897026062,0.5547600781730953,78.0,472.0
Y,R,"[4, 3]",1.0,5.0,0.23291587829589844,1.4953081607818604,0.2668134302528151,78.0,473.0
G,D,"[5, 3]",1.0,6.0,0.38672494888305664,1.8312101364135742,0.4313316339355532,78.0,474.0
,,"(3, 3)",,,,,,78.0,
G,D,"[4, 3]",1.0,1.0,0.3435990810394287,2.6011240482330322,0.7159420189958507,,475.0
G,D,"[5, 3]",1.0,2.0,0.6835949420928955,2.040018081665039,0.3396623682374387,79.0,476.0
R,U,"[4, 3]",1.0,3.0,0.277324914932251,1.781224012374878,0.5037904635478598,79.0,477.0
B,L,"[4, 2]",1.0,4.0,0.24021315574645996,1.73905611038208,0.492839453571388,79.0,478.0
Y,R,"[4, 3]",1.0,5.0,0.217850923538208,1.5805559158325195,0.356964639648373,79.0,479.0
G,D,"[5, 3]",1.0,6.0,0.2018578052520752,1.729179859161377,0.51946176377847,79.0,480.0
,,"(3, 3)",,,,,,79.0,
G,D,"[4, 3]",1.0,1.0,0.304473876953125,2.578641891479492,0.6312506738417443,,481.0
G,D,"[5, 3]",1.0,2.0,0.2049579620361328,1.878758192062378,0.6765336687008543,80.0,482.0
R,U,"[4, 3]",1.0,3.0,0.20647001266479492,1.6536500453948975,0.44714258650202254,80.0,483.0
B,L,"[4, 2]",1.0,4.0,0.1807870864868164,1.8742201328277588,0.6879684960239447,80.0,484.0
Y,R,"[4, 3]",1.0,5.0,0.22920584678649902,1.7919049263000488,0.5632424033800241,80.0,485.0
G,D,"[5, 3]",1.0,6.0,0.18923711776733398,1.892867088317871,0.6892644483623904,80.0,486.0
,,"(3, 3)",,,,,,80.0,
B,L,"[3, 2]",-1.0,-1.0,0.2640819549560547,2.691288948059082,0.6308305185853972,,487.0
G,D,"[4, 2]",1.0,0.0,0.22784209251403809,1.6982479095458984,0.4626686787712501,81.0,488.0
R,U,"[3, 2]",-1.0,-1.0,0.23274588584899902,1.6860051155090332,0.4486603260043601,81.0,489.0
B,L,"[3, 1]",1.0,0.0,0.29715514183044434,2.0577991008758545,0.7395100736051894,81.0,490.0
Y,R,"[3, 2]",-1.0,-1.0,0.21492385864257812,1.755565881729126,0.5286141126779235,81.0,491.0
G,D,"[4, 2]",1.0,0.0,0.20390796661376953,1.7124438285827637,0.5075563674049359,81.0,492.0
,,"(3, 3)",,,,,,81.0,
G,D,"[4, 3]",1.0,1.0,0.34653401374816895,2.1972169876098633,0.3218730828469442,,493.0
G,D,"[5, 3]",1.0,2.0,0.27253293991088867,1.564168930053711,0.2859722107283291,82.0,494.0
R,U,"[4, 3]",1.0,3.0,0.2667579650878906,1.8432741165161133,0.5624569285033497,82.0,495.0
B,L,"[4, 2]",1.0,4.0,0.21549510955810547,1.806265115737915,0.5853348964950492,82.0,496.0
Y,R,"[4, 3]",1.0,5.0,0.20791196823120117,1.5269050598144531,0.3125938865179022,82.0,497.0
G,D,"[5, 3]",1.0,6.0,0.27443504333496094,1.7670090198516846,0.49590092246317014,82.0,498.0
,,"(3, 3)",,,,,,82.0,
G,D,"[4, 3]",1.0,1.0,0.4311189651489258,2.3306760787963867,0.4436867229502716,,499.0
G,D,"[5, 3]",1.0,2.0,0.282336950302124,1.8490140438079834,0.5757009951423298,83.0,500.0
R,U,"[4, 3]",1.0,3.0,0.27367281913757324,1.648705005645752,0.3747682421712294,83.0,501.0
B,L,"[4, 2]",1.0,4.0,0.3035449981689453,1.8295910358428955,0.5208813522218404,83.0,502.0
Y,R,"[4, 3]",1.0,5.0,0.25913286209106445,1.6901230812072754,0.42770048402895067,83.0,503.0
G,D,"[5, 3]",1.0,6.0,0.2082209587097168,1.706528902053833,0.5008287541819272,83.0,504.0
,,"(3, 3)",,,,,,83.0,
G,D,"[4, 3]",1.0,1.0,0.42195796966552734,2.6633028984069824,0.33097939449761493,,505.0
G,D,"[5, 3]",1.0,2.0,0.21079087257385254,1.9097859859466553,0.6904322475303858,84.0,506.0
R,U,"[4, 3]",1.0,3.0,0.13389897346496582,1.8761730194091797,0.733204998999981,84.0,507.0
B,L,"[4, 2]",1.0,4.0,0.2165670394897461,1.6440861225128174,0.41108416118142943,84.0,508.0
Y,R,"[4, 3]",1.0,5.0,0.26627588272094727,1.8116300106048584,0.5391708577037205,84.0,509.0
G,D,"[5, 3]",1.0,6.0,0.19960498809814453,1.5107100009918213,0.30015378816711313,84.0,510.0
,,"(3, 3)",,,,,,84.0,
G,D,"[4, 3]",1.0,1.0,0.4487600326538086,2.7725989818573,0.5394862844520312,,511.0
G,D,"[5, 3]",1.0,2.0,0.21641993522644043,1.5848338603973389,0.37435301062063253,85.0,512.0
R,U,"[4, 3]",1.0,3.0,0.2322101593017578,1.843700885772705,0.6012117857942975,85.0,513.0
B,L,"[4, 2]",1.0,4.0,0.24935197830200195,1.600281000137329,0.33500800934128155,85.0,514.0
Y,R,"[4, 3]",1.0,5.0,0.2234048843383789,1.929260015487671,0.6972860667850701,85.0,515.0
G,D,"[5, 3]",1.0,6.0,0.2531619071960449,1.648231029510498,0.3793163660114528,85.0,516.0
,,"(3, 3)",,,,,,85.0,
G,D,"[4, 3]",1.0,1.0,0.41309094429016113,2.9778621196746826,0.6401346651320008,,517.0
G,D,"[5, 3]",1.0,2.0,0.19471096992492676,1.6870031356811523,0.49407554025835615,86.0,518.0
R,U,"[4, 3]",1.0,3.0,0.2357180118560791,1.9429240226745605,0.7033220809333145,86.0,519.0
B,L,"[4, 2]",1.0,4.0,0.1833951473236084,1.6446239948272705,0.44843702138824076,86.0,520.0
Y,R,"[4, 3]",1.0,5.0,0.22954702377319336,1.9821970462799072,0.7470426141777242,86.0,521.0
G,D,"[5, 3]",1.0,6.0,0.21121788024902344,1.5681400299072266,0.3488940560683397,86.0,522.0
,,"(3, 3)",,,,,,86.0,
G,D,"[4, 3]",1.0,1.0,0.35019993782043457,3.005603075027466,0.6210134301937846,,523.0
G,D,"[5, 3]",1.0,2.0,0.22448086738586426,1.972599983215332,0.7434119078284961,87.0,524.0
R,U,"[4, 3]",1.0,3.0,0.20000696182250977,1.8113281726837158,0.6048650545188725,87.0,525.0
B,L,"[4, 2]",1.0,4.0,0.21240782737731934,1.756648063659668,0.5449440240736856,87.0,526.0
Y,R,"[4, 3]",1.0,5.0,0.2180039882659912,1.9498100280761719,0.7279098344672343,87.0,527.0
G,D,"[5, 3]",1.0,6.0,0.18251490592956543,1.5369980335235596,0.3654547566516559,87.0,528.0
,,"(3, 3)",,,,,,87.0,
G,D,"[4, 3]",1.0,1.0,0.48659515380859375,2.336942195892334,0.36886644693252507,,529.0
G,D,"[5, 3]",1.0,2.0,0.38230299949645996,2.107135057449341,0.7090875380420318,88.0,530.0
R,U,"[4, 3]",1.0,3.0,0.2434530258178711,1.7797250747680664,0.5392027253775116,88.0,531.0
B,L,"[4, 2]",1.0,4.0,0.22132110595703125,1.6523480415344238,0.42485581461883565,88.0,532.0
Y,R,"[4, 3]",1.0,5.0,0.22832083702087402,1.5290210247039795,0.30405743799453916,88.0,533.0
G,D,"[5, 3]",1.0,6.0,0.30129122734069824,2.0294880867004395,0.7164669062161086,88.0,534.0
,,"(3, 3)",,,,,,88.0,
B,L,"[3, 2]",-1.0,-1.0,0.4750361442565918,2.6286420822143555,0.6786320095790774,,535.0
G,D,"[4, 2]",1.0,0.0,0.21512794494628906,1.9534640312194824,0.7485518308722932,89.0,536.0
R,U,"[3, 2]",-1.0,-1.0,0.19741320610046387,1.59385085105896,0.37632937887815243,89.0,537.0
B,L,"[3, 1]",1.0,0.0,0.35628581047058105,2.0467610359191895,0.6893574081447597,89.0,538.0
G,D,"[4, 1]",-2.0,0.0,1.146285057067871,2.540956974029541,0.3643222420098226,89.0,539.0
G,D,"[5, 1]",-1.0,-1.0,0.2165050506591797,1.81685209274292,0.5973759201731172,89.0,540.0
,,"(3, 3)",,,,,,89.0,
G,D,"[4, 3]",1.0,1.0,0.32465505599975586,2.4749810695648193,0.28939521997339235,,541.0
G,D,"[5, 3]",1.0,2.0,0.3242790699005127,1.7993981838226318,0.47194211722444035,90.0,542.0
R,U,"[4, 3]",1.0,3.0,0.24528193473815918,1.7433979511260986,0.4985418096099785,90.0,543.0
B,L,"[4, 2]",1.0,4.0,0.2291710376739502,1.6650519371032715,0.43033518865373804,90.0,544.0
Y,R,"[4, 3]",1.0,5.0,0.20883798599243164,1.79522705078125,0.5921626238476556,90.0,545.0
G,D,"[5, 3]",1.0,6.0,0.2055950164794922,1.641592025756836,0.43395249651688533,90.0,546.0
,,"(3, 3)",,,,,,90.0,
G,D,"[4, 3]",1.0,1.0,0.3099539279937744,2.170380115509033,0.28774802702787483,,547.0
G,D,"[5, 3]",1.0,2.0,0.5648300647735596,1.85361909866333,0.274973454962495,91.0,548.0
R,U,"[4, 3]",1.0,3.0,0.3549680709838867,1.6881721019744873,0.32968742891706465,91.0,549.0
B,L,"[4, 2]",1.0,4.0,0.23905515670776367,1.7504770755767822,0.4966672906001035,91.0,550.0
Y,R,"[4, 3]",1.0,5.0,0.22014904022216797,1.8830251693725586,0.6462765077234123,91.0,551.0
G,D,"[5, 3]",1.0,6.0,0.18365192413330078,1.8525669574737549,0.6487954223619568,91.0,552.0
,,"(3, 3)",,,,,,91.0,
B,L,"[3, 2]",-1.0,-1.0,0.3150649070739746,2.4864301681518555,0.5352779490859814,,553.0
G,D,"[4, 2]",1.0,0.0,0.24966192245483398,1.9649760723114014,0.7002686268170127,92.0,554.0
R,U,"[3, 2]",-1.0,0.0,0.06628012657165527,5.628941059112549,0.41288033005146335,92.0,555.0
R,U,"[2, 2]",-1.0,-1.0,0.33098816871643066,2.075579881668091,0.7215477868815334,92.0,556.0
B,L,"[2, 1]",-1.0,-2.0,0.4664769172668457,1.8227639198303223,0.3446450712846656,92.0,557.0
Y,R,"[2, 2]",-1.0,-3.0,0.724571943283081,2.244006872177124,0.5219155336050724,92.0,558.0
,,"(3, 3)",,,,,,92.0,
G,D,"[4, 3]",-2.0,0.0,1.063627004623413,3.56086802482605,0.5828859263106927,,559.0
G,D,"[5, 3]",1.0,1.0,0.37314820289611816,1.9340739250183105,0.5501985206286073,93.0,560.0
R,U,"[4, 3]",1.0,2.0,0.3188040256500244,1.9298391342163086,0.5967056740332797,93.0,561.0
B,L,"[4, 2]",1.0,3.0,0.4176509380340576,2.0108680725097656,0.5742585391392725,93.0,562.0
Y,R,"[4, 3]",1.0,4.0,0.20967984199523926,1.56227707862854,0.35346915382580063,93.0,563.0
G,D,"[5, 3]",1.0,5.0,0.4459960460662842,2.0159411430358887,0.5692026592053163,93.0,564.0
,,"(3, 3)",,,,,,93.0,
G,D,"[4, 3]",1.0,1.0,0.326030969619751,2.32554292678833,0.27836142250064244,,565.0
G,D,"[5, 3]",1.0,2.0,0.332827091217041,1.726599931716919,0.38837815264617515,94.0,566.0
R,U,"[4, 3]",1.0,3.0,0.23353791236877441,1.7630908489227295,0.5179898750842309,94.0,567.0
B,L,"[4, 2]",1.0,4.0,0.2933671474456787,1.9232268333435059,0.6244787261914231,94.0,568.0
Y,R,"[4, 3]",1.0,5.0,0.21928691864013672,1.566514015197754,0.3413568902547747,94.0,569.0
G,D,"[5, 3]",1.0,6.0,0.26885008811950684,1.8352019786834717,0.5596066741334078,94.0,570.0
,,"(3, 3)",,,,,,94.0,
G,D,"[4, 3]",1.0,1.0,0.3030660152435303,2.554516077041626,0.5475577471833539,,571.0
G,D,"[5, 3]",1.0,2.0,0.19492220878601074,1.5165770053863525,0.3143985835291923,95.0,572.0
R,U,"[4, 3]",1.0,3.0,0.2962629795074463,1.9655990600585938,0.663048392447218,95.0,573.0
B,L,"[4, 2]",1.0,4.0,0.1996598243713379,1.9241790771484375,0.7038131306235924,95.0,574.0
Y,R,"[4, 3]",1.0,5.0,0.2050950527191162,1.5662331581115723,0.3535910165109543,95.0,575.0
G,D,"[5, 3]",1.0,6.0,0.25539088249206543,1.819998025894165,0.5569218211571306,95.0,576.0
,,"(3, 3)",,,,,,95.0,
G,D,"[4, 3]",1.0,1.0,0.30351686477661133,2.5503621101379395,0.5239963279634514,,577.0
G,D,"[5, 3]",1.0,2.0,0.2830181121826172,2.018224000930786,0.7253435069312579,96.0,578.0
R,U,"[4, 3]",1.0,3.0,0.2574460506439209,1.832839012145996,0.5749995830889346,96.0,579.0
B,L,"[4, 2]",1.0,4.0,0.21538901329040527,1.64631986618042,0.4381908118066841,96.0,580.0
Y,R,"[4, 3]",1.0,5.0,0.2361609935760498,1.644568920135498,0.3994450770302511,96.0,581.0
G,D,"[5, 3]",1.0,6.0,0.2540860176086426,1.811636209487915,0.544313953790428,96.0,582.0
,,"(3, 3)",,,,,,96.0,
G,D,"[4, 3]",1.0,1.0,0.5848138332366943,2.532737970352173,0.34406761478449793,,583.0
G,D,"[5, 3]",1.0,2.0,0.44098401069641113,1.9256291389465332,0.4861786976300168,97.0,584.0
R,U,"[4, 3]",1.0,3.0,0.25067710876464844,1.8212621212005615,0.5573722364327625,97.0,585.0
B,L,"[4, 2]",1.0,4.0,0.2530341148376465,1.5137629508972168,0.25471744097654864,97.0,586.0
Y,R,"[4, 3]",1.0,5.0,0.40341806411743164,1.8882639408111572,0.47650624185478135,97.0,587.0
G,D,"[5, 3]",1.0,6.0,0.27915382385253906,1.8109230995178223,0.536948314693003,97.0,588.0
,,"(3, 3)",,,,,,97.0,
G,D,"[4, 3]",1.0,1.0,0.7049779891967773,2.7645459175109863,0.4350264622522045,,589.0
G,D,"[5, 3]",1.0,2.0,0.36701011657714844,1.931506872177124,0.5498280852514479,98.0,590.0
R,U,"[4, 3]",1.0,3.0,0.23558497428894043,1.8921809196472168,0.6418676888899671,98.0,591.0
B,L,"[4, 2]",1.0,4.0,0.21568703651428223,1.5761699676513672,0.36851711888554234,98.0,592.0
G,D,"[5, 2]",1.0,5.0,0.3321349620819092,1.6189568042755127,0.28749058272400285,98.0,593.0
R,U,"[4, 2]",1.0,6.0,0.565727949142456,2.214613914489746,0.6350939216192089,98.0,594.0
,,"(3, 3)",,,,,,98.0,
G,D,"[4, 3]",1.0,1.0,0.40369701385498047,2.7098500728607178,0.5450251417053775,,595.0
G,D,"[5, 3]",1.0,2.0,0.16115498542785645,1.530493974685669,0.3757965874456697,99.0,596.0
R,U,"[4, 3]",1.0,3.0,0.2848320007324219,1.8186938762664795,0.5276594510922903,99.0,597.0
B,L,"[4, 2]",1.0,4.0,0.2062530517578125,1.4716689586639404,0.2663246575038312,99.0,598.0
Y,R,"[4, 3]",1.0,5.0,0.3893301486968994,1.795907974243164,0.39543465344773865,99.0,599.0
G,D,"[5, 3]",1.0,6.0,0.24269819259643555,1.5668761730194092,0.32909052765767827,99.0,600.0
,,"(3, 3)",,,,,,99.0,
G,D,"[4, 3]",1.0,1.0,0.3885631561279297,2.9252769947052,0.604271690322452,,601.0
G,D,"[5, 3]",1.0,2.0,0.24666213989257812,1.8732872009277344,0.6273264550697405,100.0,602.0
R,U,"[4, 3]",-1.0,2.0,0.06153392791748047,5.495000839233398,0.28949080866524984,100.0,603.0
G,D,"[5, 3]",-2.0,2.0,1.4245738983154297,2.763032913208008,0.3023938766136553,100.0,604.0
R,U,"[4, 3]",-2.0,2.0,1.5852429866790771,3.3131442070007324,0.6987011343241569,100.0,605.0
R,U,"[3, 3]",-2.0,0.0,0.9782979488372803,2.6028380393981934,0.6016150810612628,100.0,606.0
,,"(3, 3)",,,,,,100.0,
G,D,"[4, 3]",1.0,1.0,0.297684907913208,2.49878191947937,0.48399443565472194,,607.0
G,D,"[5, 3]",1.0,2.0,0.2373049259185791,1.8248858451843262,0.5753437679778661,101.0,608.0
R,U,"[4, 3]",1.0,3.0,0.21984601020812988,1.5685720443725586,0.3443000064099434,101.0,609.0
B,L,"[4, 2]",1.0,4.0,0.28920507431030273,1.6457459926605225,0.3567204486193689,101.0,610.0
Y,R,"[4, 3]",1.0,5.0,0.23823213577270508,1.598996877670288,0.3556677639606194,101.0,611.0
G,D,"[5, 3]",1.0,6.0,0.2143571376800537,1.9430530071258545,0.7318309530620454,101.0,612.0
,,"(3, 3)",,,,,,101.0,
G,D,"[4, 3]",1.0,1.0,0.29212093353271484,2.5197019577026367,0.585069736270506,,613.0
G,D,"[5, 3]",1.0,2.0,0.14783596992492676,1.7772738933563232,0.6289870655390652,102.0,614.0
R,U,"[4, 3]",1.0,3.0,0.21514105796813965,1.5505421161651611,0.3464030948312242,102.0,615.0
B,L,"[4, 2]",1.0,4.0,0.24148917198181152,1.778357982635498,0.5245761706819344,102.0,616.0
Y,R,"[4, 3]",1.0,5.0,0.14218997955322266,1.463165044784546,0.321466400057571,102.0,617.0
G,D,"[5, 3]",1.0,6.0,0.20644402503967285,1.4698359966278076,0.2579591668547493,102.0,618.0
,,"(3, 3)",,,,,,102.0,
G,D,"[4, 3]",-2.0,0.0,1.4015960693359375,3.2883410453796387,0.27990416538873714,,619.0
G,D,"[5, 3]",1.0,1.0,0.23839688301086426,1.4876861572265625,0.25091826317345933,103.0,620.0
R,U,"[4, 3]",1.0,2.0,0.32973599433898926,1.6907758712768555,0.35802977001652736,103.0,621.0
B,L,"[4, 2]",1.0,3.0,0.22034192085266113,1.5468318462371826,0.33835117475583104,103.0,622.0
Y,R,"[4, 3]",1.0,4.0,0.20135807991027832,1.9062449932098389,0.6942974167311866,103.0,623.0
G,D,"[5, 3]",-1.0,4.0,0.0554652214050293,5.574927091598511,0.4028386221269921,103.0,624.0
,,"(3, 3)",,,,,,103.0,
G,D,"[4, 3]",1.0,1.0,0.3751559257507324,2.545989990234375,0.3324617873135754,,625.0
G,D,"[5, 3]",1.0,2.0,0.1563718318939209,1.4403481483459473,0.2727593349134027,104.0,626.0
R,U,"[4, 3]",1.0,3.0,0.24729704856872559,1.5283799171447754,0.2844805517930239,104.0,627.0
B,L,"[4, 2]",1.0,4.0,0.2176649570465088,1.6431350708007812,0.4107181466508556,104.0,628.0
Y,R,"[4, 3]",1.0,5.0,0.5124759674072266,1.9977080821990967,0.49183527944491157,104.0,629.0
G,D,"[5, 3]",-1.0,5.0,0.01676797866821289,5.664380073547363,0.5228291033691852,104.0,630.0
,,"(3, 3)",,,,,,104.0,
G,D,"[4, 3]",1.0,1.0,0.8943459987640381,3.257493019104004,0.5637701648978888,,631.0
G,D,"[5, 3]",1.0,2.0,0.283505916595459,1.6108729839324951,0.30830603499249737,105.0,632.0
R,U,"[4, 3]",1.0,3.0,0.4748408794403076,2.007736921310425,0.5490229533744607,105.0,633.0
B,L,"[4, 2]",1.0,4.0,0.34186601638793945,1.6476919651031494,0.29699496329689273,105.0,634.0
Y,R,"[4, 3]",1.0,5.0,0.41903114318847656,2.046499013900757,0.6098946036243513,105.0,635.0
G,D,"[5, 3]",1.0,6.0,0.3476078510284424,1.9116590023040771,0.5549500118365892,105.0,636.0
,,"(3, 3)",,,,,,105.0,
G,D,"[4, 3]",-2.0,0.0,1.1746299266815186,3.3094470500946045,0.3482706520497965,,637.0
G,D,"[5, 3]",1.0,1.0,0.3196091651916504,1.86238694190979,0.5269259198705034,106.0,638.0
R,U,"[4, 3]",1.0,2.0,0.2365119457244873,1.630251169204712,0.3906693430706871,106.0,639.0
B,L,"[4, 2]",1.0,3.0,0.25621795654296875,1.8092679977416992,0.5497097332311864,106.0,640.0
Y,R,"[4, 3]",1.0,4.0,0.22852802276611328,1.7416398525238037,0.5081827451787022,106.0,641.0
G,D,"[5, 3]",1.0,5.0,0.2543768882751465,1.5673370361328125,0.3090625298731966,106.0,642.0
,,"(3, 3)",,,,,,106.0,
G,D,"[4, 3]",1.0,1.0,0.4282360076904297,2.475250005722046,0.45098137803542054,,643.0
G,D,"[5, 3]",1.0,2.0,0.28648805618286133,1.7609460353851318,0.4785623651113935,107.0,644.0
R,U,"[4, 3]",1.0,3.0,0.2745499610900879,1.8172450065612793,0.5457694780978328,107.0,645.0
B,L,"[4, 2]",1.0,4.0,0.25713181495666504,1.6423931121826172,0.4046920689391202,107.0,646.0
Y,R,"[4, 3]",1.0,5.0,0.339000940322876,1.5810880661010742,0.2529426577069627,107.0,647.0
G,D,"[5, 3]",1.0,6.0,0.37888002395629883,1.7443220615386963,0.36362603788481646,107.0,648.0
,,"(3, 3)",,,,,,107.0,
G,D,"[4, 3]",1.0,1.0,0.4468989372253418,2.598849058151245,0.49596601182540506,,649.0
G,D,"[5, 3]",1.0,2.0,0.3415849208831787,1.7474091053009033,0.4100882117514668,108.0,650.0
R,U,"[4, 3]",1.0,3.0,0.26503705978393555,1.6424100399017334,0.38587952023268784,108.0,651.0
B,L,"[4, 2]",1.0,4.0,0.255781888961792,1.5323891639709473,0.26827663655435224,108.0,652.0
Y,R,"[4, 3]",1.0,5.0,0.2804069519042969,1.8629181385040283,0.5810600308987938,108.0,653.0
G,D,"[5, 3]",1.0,6.0,0.21474289894104004,1.6247339248657227,0.40593072155026383,108.0,654.0
,,"(3, 3)",,,,,,108.0,
G,D,"[4, 3]",1.0,1.0,0.8497700691223145,3.0584681034088135,0.5643863300263611,,655.0
G,D,"[5, 3]",1.0,2.0,0.24675512313842773,1.954237937927246,0.7016970569162496,109.0,656.0
R,U,"[4, 3]",1.0,3.0,0.21784281730651855,1.53029203414917,0.29910170421441135,109.0,657.0
B,L,"[4, 2]",1.0,4.0,0.5815951824188232,2.3094208240509033,0.7247906108574131,109.0,658.0
Y,R,"[4, 3]",1.0,5.0,0.19663190841674805,1.7231218814849854,0.5314034153388258,109.0,659.0
G,D,"[5, 3]",1.0,6.0,0.22734498977661133,1.586195945739746,0.351162301586367,109.0,660.0
,,"(3, 3)",,,,,,109.0,
G,D,"[4, 3]",1.0,1.0,0.5846350193023682,2.3267321586608887,0.2613934859280879,,661.0
G,D,"[5, 3]",1.0,2.0,0.3613290786743164,1.866832971572876,0.5113622982286078,110.0,662.0
R,U,"[4, 3]",1.0,3.0,0.24471783638000488,1.637773036956787,0.3992860613010414,110.0,663.0
B,L,"[4, 2]",1.0,4.0,0.2717461585998535,1.8856151103973389,0.6014240429413964,110.0,664.0
Y,R,"[4, 3]",1.0,5.0,0.22055888175964355,1.7575640678405762,0.5258214425147978,110.0,665.0
G,D,"[5, 3]",1.0,6.0,0.21448397636413574,1.7837049961090088,0.5760706886756917,110.0,666.0
,,"(3, 3)",,,,,,110.0,
G,D,"[4, 3]",1.0,1.0,0.5583219528198242,2.548713207244873,0.5914466693876648,,667.0
G,D,"[5, 3]",1.0,2.0,0.20472097396850586,1.685978889465332,0.47767815563993454,111.0,668.0
R,U,"[4, 3]",1.0,3.0,0.20804595947265625,1.8073790073394775,0.6015770391592643,111.0,669.0
B,L,"[4, 2]",1.0,4.0,0.1776900291442871,1.868311882019043,0.6864402385645918,111.0,670.0
Y,R,"[4, 3]",1.0,5.0,0.21780085563659668,1.8179099559783936,0.5878296391338362,111.0,671.0
G,D,"[5, 3]",1.0,6.0,0.2326970100402832,1.8771989345550537,0.6318241680161718,111.0,672.0
,,"(3, 3)",,,,,,111.0,
G,D,"[4, 3]",1.0,1.0,0.4892899990081787,2.5572938919067383,0.3393543698773368,,673.0
G,D,"[5, 3]",1.0,2.0,0.3092019557952881,1.6265389919281006,0.3159078597287182,112.0,674.0
R,U,"[4, 3]",1.0,3.0,0.30878615379333496,2.067018985748291,0.7490907917528349,112.0,675.0
B,L,"[4, 2]",1.0,4.0,0.16815996170043945,1.4963171482086182,0.31262488764087953,112.0,676.0
Y,R,"[4, 3]",1.0,5.0,0.3139171600341797,1.8894069194793701,0.5851188245670893,112.0,677.0
G,D,"[5, 3]",1.0,6.0,0.23122215270996094,1.757951021194458,0.5264176589739549,112.0,678.0
,,"(3, 3)",,,,,,112.0,
G,D,"[4, 3]",1.0,1.0,0.48476219177246094,2.2471630573272705,0.3074000140229768,,679.0
G,D,"[5, 3]",1.0,2.0,0.3920760154724121,1.8281409740447998,0.43522486965505,113.0,680.0
R,U,"[4, 3]",1.0,3.0,0.21887493133544922,1.666003942489624,0.45124519516870865,113.0,681.0
B,L,"[4, 2]",1.0,4.0,0.20127582550048828,1.6488831043243408,0.4334862362970024,113.0,682.0
Y,R,"[4, 3]",1.0,5.0,0.28928089141845703,1.8325321674346924,0.5328621150852144,113.0,683.0
G,D,"[5, 3]",1.0,6.0,0.21893811225891113,1.662872076034546,0.44563968283861,113.0,684.0
,,"(3, 3)",,,,,,113.0,
G,D,"[4, 3]",1.0,1.0,0.4447500705718994,2.256816864013672,0.25268107050894034,,685.0
G,D,"[5, 3]",1.0,2.0,0.34560513496398926,1.9872689247131348,0.6395843962322618,114.0,686.0
R,U,"[4, 3]",1.0,3.0,0.18335795402526855,1.8209571838378906,0.6271210796213788,114.0,687.0
B,L,"[4, 2]",1.0,4.0,0.19356799125671387,1.7015399932861328,0.5121938537153921,114.0,688.0
Y,R,"[4, 3]",1.0,5.0,0.2477419376373291,1.8961780071258545,0.6583529745924336,114.0,689.0
G,D,"[5, 3]",1.0,6.0,0.23180794715881348,1.6547000408172607,0.3966711386900147,114.0,690.0
,,"(3, 3)",,,,,,114.0,
G,D,"[4, 3]",1.0,1.0,0.5370380878448486,2.4407269954681396,0.3541065025167597,,691.0
G,D,"[5, 3]",1.0,2.0,0.3139371871948242,1.9267809391021729,0.614252253686008,115.0,692.0
R,U,"[4, 3]",1.0,3.0,0.2035970687866211,1.9270260334014893,0.7076559052489444,115.0,693.0
B,L,"[4, 2]",1.0,4.0,0.20405292510986328,1.4724459648132324,0.26388371160052054,115.0,694.0
Y,R,"[4, 3]",1.0,5.0,0.3538858890533447,2.040369987487793,0.6705111816119018,115.0,695.0
G,D,"[5, 3]",1.0,6.0,0.22384214401245117,1.9600930213928223,0.7305738975128504,115.0,696.0
,,"(3, 3)",,,,,,115.0,
G,D,"[4, 3]",1.0,1.0,0.40839505195617676,2.666100025177002,0.43054517143452004,,697.0
G,D,"[5, 3]",1.0,2.0,0.27312397956848145,1.541801929473877,0.2557270354989727,116.0,698.0
R,U,"[4, 3]",1.0,3.0,0.35556507110595703,1.9821150302886963,0.6207718018487491,116.0,699.0
B,L,"[4, 2]",1.0,4.0,0.1716620922088623,1.4635989665985107,0.28462210033772667,116.0,700.0
Y,R,"[4, 3]",1.0,5.0,0.3100249767303467,2.0050899982452393,0.6895400205138612,116.0,701.0
G,D,"[5, 3]",1.0,6.0,0.22808599472045898,1.7995200157165527,0.5725669109827698,116.0,702.0
,,"(3, 3)",,,,,,116.0,
G,D,"[4, 3]",1.0,1.0,0.46477603912353516,2.4765400886535645,0.5492190137286708,,703.0
G,D,"[5, 3]",1.0,2.0,0.24683809280395508,1.6125738620758057,0.3618663307656332,117.0,704.0
R,U,"[4, 3]",1.0,3.0,0.35698580741882324,2.0884578227996826,0.7333532887989214,117.0,705.0
B,L,"[4, 2]",1.0,4.0,0.1760249137878418,1.831855058670044,0.6486544777282872,117.0,706.0
Y,R,"[4, 3]",1.0,5.0,0.24190807342529297,1.5020420551300049,0.25110724072778196,117.0,707.0
G,D,"[5, 3]",1.0,6.0,0.4581179618835449,2.152898073196411,0.6869184333787324,117.0,708.0
,,"(3, 3)",,,,,,117.0,
G,D,"[4, 3]",1.0,1.0,0.4448230266571045,2.326467990875244,0.29715189387508023,,709.0
G,D,"[5, 3]",1.0,2.0,0.3846580982208252,1.6545331478118896,0.2517751759015714,118.0,710.0
R,U,"[4, 3]",1.0,3.0,0.3200042247772217,1.9740231037139893,0.6420546276273216,118.0,711.0
B,L,"[4, 2]",1.0,4.0,0.23903918266296387,1.8121631145477295,0.571105582394688,118.0,712.0
Y,R,"[4, 3]",1.0,5.0,0.2416210174560547,1.617945909500122,0.37263601857187567,118.0,713.0
G,D,"[5, 3]",1.0,6.0,0.29489588737487793,1.869239091873169,0.574821912429534,118.0,714.0
,,"(3, 3)",,,,,,118.0,
G,D,"[4, 3]",1.0,1.0,0.4564220905303955,2.3457469940185547,0.3044029080745164,,715.0
G,D,"[5, 3]",1.0,2.0,0.3892941474914551,2.0387659072875977,0.6426528605238974,119.0,716.0
R,U,"[4, 3]",1.0,3.0,0.5050981044769287,1.9157178401947021,0.40875665554606094,119.0,717.0
B,L,"[4, 2]",1.0,4.0,0.342602014541626,1.8116669654846191,0.47020141146934824,119.0,718.0
Y,R,"[4, 3]",1.0,5.0,0.324862003326416,1.7904679775238037,0.4608291538614103,119.0,719.0
G,D,"[5, 3]",1.0,6.0,0.31574106216430664,1.9677929878234863,0.6451278310923173,119.0,720.0
,,"(3, 3)",,,,,,119.0,
G,D,"[4, 3]",1.0,1.0,0.4839138984680176,4.016728162765503,0.3622437684709421,,721.0
G,D,"[5, 3]",1.0,2.0,0.36458516120910645,2.074295997619629,0.702871548854259,120.0,722.0
R,U,"[4, 3]",1.0,3.0,0.26363205909729004,1.7829489707946777,0.5195281871073064,120.0,723.0
B,L,"[4, 2]",1.0,4.0,0.28386712074279785,1.787153959274292,0.4899153708761449,120.0,724.0
Y,R,"[4, 3]",1.0,5.0,0.2571239471435547,1.8211801052093506,0.5610460697327802,120.0,725.0
G,D,"[5, 3]",-1.0,5.0,0.0163419246673584,5.835651874542236,0.6966680722574179,120.0,726.0
,,"(3, 3)",,,,,,120.0,
G,D,"[4, 3]",1.0,1.0,0.3676919937133789,3.5214290618896484,0.38509866096108175,,727.0
G,D,"[5, 3]",1.0,2.0,0.3039989471435547,1.9443979263305664,0.6291707244183549,121.0,728.0
R,U,"[4, 3]",1.0,3.0,0.2586948871612549,1.8317079544067383,0.5611376191935591,121.0,729.0
B,L,"[4, 2]",1.0,4.0,0.21430492401123047,1.5018370151519775,0.2967244920907742,121.0,730.0
Y,R,"[4, 3]",1.0,5.0,0.3708231449127197,1.7055530548095703,0.31880575123665283,121.0,731.0
G,D,"[5, 3]",1.0,6.0,0.31258511543273926,1.89227294921875,0.5774556669777129,121.0,732.0
,,"(3, 3)",,,,,,121.0,
G,D,"[4, 3]",1.0,1.0,0.66451096534729,2.834320068359375,0.6617649009637495,,733.0
G,D,"[5, 3]",1.0,2.0,0.24420881271362305,1.5407319068908691,0.3029349780703526,122.0,734.0
B,L,"[5, 2]",1.0,3.0,0.35529494285583496,1.6315269470214844,0.2678434426266238,122.0,735.0
Y,R,"[5, 3]",-2.0,3.0,1.5559310913085938,3.159680128097534,0.5606998489750481,122.0,736.0
G,D,"[6, 3]",0.0,3.0,0.6880981922149658,2.2410528659820557,0.5516790795953774,122.0,737.0
G,D,"[6, 3]",0.0,3.0,0.6730239391326904,2.041440963745117,0.360112553331809,122.0,738.0
,,"(3, 3)",,,,,,122.0,
G,D,"[4, 3]",1.0,1.0,0.30210089683532715,2.5528781414031982,0.4629435975354264,,739.0
G,D,"[5, 3]",1.0,2.0,0.2721750736236572,1.8393490314483643,0.5521679931640906,123.0,740.0
R,U,"[4, 3]",1.0,3.0,0.2599761486053467,1.7202520370483398,0.4558731547730597,123.0,741.0
B,L,"[4, 2]",1.0,4.0,0.21028590202331543,1.517106056213379,0.30653035611533097,123.0,742.0
Y,R,"[4, 3]",1.0,5.0,0.34566807746887207,1.9797592163085938,0.6360274728007984,123.0,743.0
G,D,"[5, 3]",1.0,6.0,0.22738099098205566,1.7619729042053223,0.5314304064771872,123.0,744.0
,,"(3, 3)",,,,,,123.0,
G,D,"[4, 3]",1.0,1.0,0.339353084564209,2.2177557945251465,0.29939586204203733,,745.0
G,D,"[5, 3]",1.0,2.0,0.27124500274658203,1.5486268997192383,0.26476466404454635,124.0,746.0
R,U,"[4, 3]",1.0,3.0,0.41418910026550293,1.9216508865356445,0.5028342457397068,124.0,747.0
B,L,"[4, 2]",1.0,4.0,0.2157731056213379,1.9021501541137695,0.6881697239592742,124.0,748.0
Y,R,"[4, 3]",1.0,5.0,0.2978248596191406,1.776611089706421,0.4817351018423688,124.0,749.0
G,D,"[5, 3]",1.0,6.0,0.4147012233734131,2.157982110977173,0.7395484484637456,124.0,750.0
,,"(3, 3)",,,,,,124.0,
G,D,"[4, 3]",1.0,1.0,0.4304511547088623,2.5715279579162598,0.5943921004950098,,751.0
G,D,"[5, 3]",1.0,2.0,0.24093103408813477,1.7416939735412598,0.5029812602555042,125.0,752.0
R,U,"[4, 3]",1.0,3.0,0.3119509220123291,1.6656410694122314,0.3520768829007553,125.0,753.0
B,L,"[4, 2]",1.0,4.0,0.4443700313568115,1.9444749355316162,0.4964836386360562,125.0,754.0
Y,R,"[4, 3]",1.0,5.0,0.2643709182739258,1.5404939651489258,0.2705748738421099,125.0,755.0
B,L,"[4, 2]",1.0,6.0,0.32114410400390625,1.679051160812378,0.34951685795073684,125.0,756.0
,,"(3, 3)",,,,,,125.0,
G,D,"[4, 3]",1.0,1.0,0.4194459915161133,2.6091229915618896,0.37541129260144207,,757.0
G,D,"[5, 3]",1.0,2.0,0.37088799476623535,1.6435251235961914,0.2689438333414783,126.0,758.0
R,U,"[4, 3]",1.0,3.0,0.32598185539245605,1.9246060848236084,0.5933976007471506,126.0,759.0
B,L,"[4, 2]",1.0,4.0,0.21834397315979004,1.8659789562225342,0.6427054114082643,126.0,760.0
Y,R,"[4, 3]",1.0,5.0,0.2568070888519287,1.7388389110565186,0.48162170050536107,126.0,761.0
Y,R,"[4, 4]",-1.0,4.0,0.2968311309814453,1.7384190559387207,0.42014312085360195,126.0,762.0
,,"(3, 3)",,,,,,126.0,
G,D,"[4, 3]",1.0,1.0,0.3171529769897461,2.182559013366699,0.38621106161486113,,763.0
G,D,"[5, 3]",1.0,2.0,0.31435418128967285,1.8030390739440918,0.48911968324530225,127.0,764.0
R,U,"[4, 3]",1.0,3.0,0.2303781509399414,1.8142809867858887,0.586595599781603,127.0,765.0
B,L,"[4, 2]",1.0,4.0,0.22405695915222168,1.705613136291504,0.4757114192271755,127.0,766.0
Y,R,"[4, 3]",1.0,5.0,0.25399208068847656,1.5758440494537354,0.31847789267042204,127.0,767.0
R,U,"[3, 3]",-2.0,3.0,0.29659199714660645,1.8039231300354004,0.4888145690209114,127.0,768.0
,,"(3, 3)",,,,,,127.0,
G,D,"[4, 3]",1.0,1.0,0.31186795234680176,2.247023105621338,0.5193047466710687,,769.0
G,D,"[5, 3]",1.0,2.0,0.2326500415802002,1.6201281547546387,0.37296529234933223,128.0,770.0
R,U,"[4, 3]",1.0,3.0,0.2783219814300537,1.8595139980316162,0.5821837543050494,128.0,771.0
B,L,"[4, 2]",1.0,4.0,0.18751311302185059,1.4601430892944336,0.2593095239667838,128.0,772.0
Y,R,"[4, 3]",1.0,5.0,0.3514890670776367,2.0583391189575195,0.7005253416325714,128.0,773.0
B,L,"[4, 2]",1.0,6.0,0.20589709281921387,1.9477529525756836,0.7317377146716264,128.0,774.0
,,"(3, 3)",,,,,,128.0,
G,D,"[4, 3]",1.0,1.0,0.5232679843902588,2.352789878845215,0.2519207345430169,,775.0
R,U,"[3, 3]",-2.0,-1.0,0.6700661182403564,2.320513963699341,0.6384924466212991,129.0,776.0
R,U,"[2, 3]",-1.0,-2.0,0.8964061737060547,2.5436370372772217,0.6321058549294014,129.0,777.0
B,L,"[2, 2]",-1.0,-3.0,0.21051716804504395,1.899688959121704,0.6817437581167374,129.0,778.0
Y,R,"[2, 3]",-1.0,-4.0,0.2308509349822998,1.6519298553466797,0.4174259563787033,129.0,779.0
Y,R,"[2, 4]",-1.0,-5.0,0.5478849411010742,2.150157928466797,0.6005920070968376,129.0,780.0
,,"(3, 3)",,,,,,129.0,
G,D,"[4, 3]",1.0,1.0,0.4421398639678955,2.1262550354003906,0.3274929737642121,,781.0
G,D,"[5, 3]",1.0,2.0,0.26812100410461426,1.8180041313171387,0.5451439854840917,130.0,782.0
R,U,"[4, 3]",1.0,3.0,0.21445512771606445,1.8198060989379883,0.6148067290281571,130.0,783.0
B,L,"[4, 2]",1.0,4.0,0.2197408676147461,1.6406300067901611,0.40567539393695085,130.0,784.0
Y,R,"[4, 3]",1.0,5.0,0.27205395698547363,2.024894952774048,0.7469308264867938,130.0,785.0
Y,R,"[4, 4]",-2.0,5.0,1.378798007965088,2.7242679595947266,0.30501797335632663,130.0,786.0
,,"(3, 3)",,,,,,130.0,
G,D,"[4, 3]",1.0,1.0,0.4850449562072754,2.6815531253814697,0.6528945937056779,,787.0
R,U,"[3, 3]",-2.0,-1.0,0.2958638668060303,2.0108749866485596,0.6971213625760395,131.0,788.0
R,U,"[2, 3]",-1.0,-2.0,0.19942903518676758,1.7354040145874023,0.5161533758078347,131.0,789.0
B,L,"[2, 2]",-1.0,-3.0,0.21103405952453613,1.5784120559692383,0.36136780735601026,131.0,790.0
G,D,"[3, 2]",-1.0,-4.0,0.23651599884033203,1.7388701438903809,0.5001374592877259,131.0,791.0
G,D,"[4, 2]",1.0,-3.0,0.2056119441986084,1.6918749809265137,0.4752369086409237,131.0,792.0
,,"(3, 3)",,,,,,131.0,
G,D,"[4, 3]",1.0,1.0,0.35384202003479004,2.2888741493225098,0.3642954885843483,,793.0
G,D,"[5, 3]",1.0,2.0,0.34915685653686523,1.7324659824371338,0.3802363433854163,132.0,794.0
R,U,"[4, 3]",1.0,3.0,0.281980037689209,1.6549689769744873,0.3684600313199845,132.0,795.0
B,L,"[4, 2]",1.0,4.0,0.264178991317749,1.6874711513519287,0.4224811006759056,132.0,796.0
Y,R,"[4, 3]",1.0,5.0,0.3458869457244873,1.6528358459472656,0.3089479905394304,132.0,797.0
B,L,"[4, 2]",1.0,6.0,0.34981799125671387,1.7647418975830078,0.40698476441595227,132.0,798.0
,,"(3, 3)",,,,,,132.0,
G,D,"[4, 3]",1.0,1.0,0.31810903549194336,2.557938814163208,0.5481040252201123,,799.0
G,D,"[5, 3]",1.0,2.0,0.38959193229675293,1.747925043106079,0.34626951824157626,133.0,800.0
R,U,"[4, 3]",1.0,3.0,0.35962486267089844,1.8923139572143555,0.5218400567220027,133.0,801.0
B,L,"[4, 2]",1.0,4.0,0.32848501205444336,1.7447359561920166,0.4166729343201932,133.0,802.0
Y,R,"[4, 3]",1.0,5.0,0.42038702964782715,1.901595115661621,0.46828038665126476,133.0,803.0
B,L,"[4, 2]",1.0,6.0,0.3584911823272705,2.005898952484131,0.6406591185931101,133.0,804.0
,,"(3, 3)",,,,,,133.0,
G,D,"[4, 3]",-1.0,-1.0,0.33853816986083984,2.103717803955078,0.31138850361467885,,805.0
G,D,"[5, 3]",-1.0,-2.0,0.5946149826049805,2.1829187870025635,0.5938639605041411,134.0,806.0
R,U,"[4, 3]",-1.0,-3.0,0.2784738540649414,1.8103070259094238,0.5378564587022061,134.0,807.0
R,U,"[3, 3]",-2.0,-5.0,0.30576086044311523,1.6718671321868896,0.3599377279550582,134.0,808.0
R,U,"[2, 3]",1.0,-4.0,0.5401160717010498,1.816282033920288,0.2763399063177725,134.0,809.0
R,U,"[1, 3]",-1.0,-5.0,0.4389150142669678,1.9423229694366455,0.5017480595636565,134.0,810.0
,,"(3, 3)",,,,,,134.0,
G,D,"[4, 3]",-1.0,-1.0,0.3891489505767822,2.02874493598938,0.3305929938844952,,811.0
G,D,"[5, 3]",-1.0,-2.0,0.5863430500030518,2.1837379932403564,0.5808440991487968,135.0,812.0
B,L,"[5, 2]",-1.0,-3.0,0.9130971431732178,2.4922561645507812,0.5731048018363942,135.0,813.0
Y,R,"[5, 3]",-1.0,-4.0,0.22420883178710938,1.4991798400878906,0.2725986626986471,135.0,814.0
R,U,"[4, 3]",-1.0,-5.0,0.26004910469055176,1.8709819316864014,0.6100041251509204,135.0,815.0
G,D,"[5, 3]",-1.0,-6.0,0.2454228401184082,1.8396201133728027,0.5995391889431152,135.0,816.0
,,"(3, 3)",,,,,,135.0,
G,D,"[4, 3]",-1.0,-1.0,0.715162992477417,2.7850329875946045,0.5181350880546338,,817.0
B,L,"[4, 2]",-1.0,-2.0,0.5673232078552246,2.2231829166412354,0.6412958615841482,136.0,818.0
B,L,"[4, 1]",-1.0,-3.0,0.4795258045196533,1.8622708320617676,0.3871218978092791,136.0,819.0
B,L,"[4, 0]",0.0,-3.0,0.23312616348266602,1.7616839408874512,0.5319323182766804,136.0,820.0
B,L,"[4, 0]",0.0,-3.0,0.24242210388183594,1.9190680980682373,0.6676623484161377,136.0,821.0
B,L,"[4, 0]",0.0,-3.0,0.2798957824707031,1.9612319469451904,0.6788655808909778,136.0,822.0
,,"(3, 3)",,,,,,136.0,
B,L,"[3, 2]",-1.0,-1.0,0.626788854598999,3.2997608184814453,0.6453149821449169,,823.0
Y,R,"[3, 3]",-2.0,-3.0,0.20310115814208984,1.5655040740966797,0.3778677502286182,137.0,824.0
B,L,"[3, 2]",-1.0,-4.0,0.27336692810058594,2.000856876373291,0.7283564137327138,137.0,825.0
B,L,"[3, 1]",1.0,-3.0,0.12541508674621582,1.65385103225708,0.5328363147495689,137.0,826.0
B,L,"[3, 0]",0.0,-3.0,0.271791934967041,1.6124908924102783,0.3285939623932313,137.0,827.0
B,L,"[3, 0]",0.0,-3.0,0.27877306938171387,1.6312229633331299,0.35982412707553385,137.0,828.0
,,"(3, 3)",,,,,,137.0,
R,U,"[2, 3]",1.0,1.0,0.40494489669799805,2.4195501804351807,0.362668076085458,,829.0
R,U,"[1, 3]",-1.0,0.0,0.40685606002807617,1.8751208782196045,0.4709767824063926,138.0,830.0
Y,R,"[1, 4]",-1.0,-1.0,0.35777997970581055,2.0877039432525635,0.72518047916309,138.0,831.0
B,L,"[1, 3]",-1.0,-2.0,0.16449213027954102,1.6105430126190186,0.4526915150238667,138.0,832.0
B,L,"[1, 2]",1.0,-1.0,0.23581600189208984,1.9300007820129395,0.6825088390700296,138.0,833.0
B,L,"[1, 1]",1.0,0.0,0.2026209831237793,1.661890983581543,0.44463682759185774,138.0,834.0
,,"(3, 3)",,,,,,138.0,
R,U,"[2, 3]",1.0,1.0,0.44304609298706055,2.4056270122528076,0.30049196591214283,,835.0
R,U,"[1, 3]",-1.0,0.0,0.31564807891845703,1.9461591243743896,0.6296416439015495,139.0,836.0
G,D,"[2, 3]",1.0,1.0,0.24598288536071777,1.5899710655212402,0.3366378527171386,139.0,837.0
B,L,"[2, 2]",1.0,2.0,0.25291991233825684,1.8521490097045898,0.5885085075419034,139.0,838.0
G,D,"[3, 2]",-1.0,1.0,0.29184818267822266,1.565181016921997,0.27072003623566565,139.0,839.0
B,L,"[3, 1]",1.0,2.0,0.21812200546264648,1.7470180988311768,0.5175034285719681,139.0,840.0
,,"(3, 3)",,,,,,139.0,
R,U,"[2, 3]",1.0,1.0,0.4686851501464844,2.3612239360809326,0.4121948781334589,,841.0
Y,R,"[2, 4]",-1.0,0.0,0.256788969039917,1.8107938766479492,0.5564386527889582,140.0,842.0
B,L,"[2, 3]",1.0,1.0,0.2747828960418701,1.7144708633422852,0.4374952606871414,140.0,843.0
B,L,"[2, 2]",1.0,2.0,0.2281801700592041,1.7558319568634033,0.5266563836977328,140.0,844.0
G,D,"[3, 2]",-1.0,1.0,0.2311248779296875,1.7544660568237305,0.5145295920495678,140.0,845.0
B,L,"[3, 1]",1.0,2.0,0.19362187385559082,1.542579174041748,0.34052544934253604,140.0,846.0
,,"(3, 3)",,,,,,140.0,
R,U,"[2, 3]",1.0,1.0,0.26398420333862305,2.607686996459961,0.56467168963601,,847.0
R,U,"[1, 3]",-1.0,0.0,0.22985386848449707,1.5942480564117432,0.34261262801448067,141.0,848.0
G,D,"[2, 3]",1.0,1.0,0.2773129940032959,2.019155979156494,0.7446465598651082,141.0,849.0
B,L,"[2, 2]",1.0,2.0,0.2588229179382324,1.707953929901123,0.4529904948426635,141.0,850.0
B,L,"[2, 1]",1.0,3.0,0.2802090644836426,1.9471428394317627,0.6665344073438961,141.0,851.0
Y,R,"[2, 2]",1.0,4.0,0.2083139419555664,1.8944909572601318,0.6777068608561598,141.0,852.0
,,"(3, 3)",,,,,,141.0,
R,U,"[2, 3]",1.0,1.0,0.6742000579833984,2.8026599884033203,0.43062322960478583,,853.0
R,U,"[1, 3]",-1.0,0.0,0.3993699550628662,1.72810697555542,0.30894156988162796,142.0,854.0
G,D,"[2, 3]",1.0,1.0,0.30988097190856934,1.5733139514923096,0.2657049727217001,142.0,855.0
B,L,"[2, 2]",1.0,2.0,0.3335402011871338,1.7502942085266113,0.3992580465741235,142.0,856.0
Y,R,"[2, 3]",1.0,3.0,0.47959089279174805,1.749263048171997,0.2652165546029885,142.0,857.0
Y,R,"[2, 4]",-1.0,2.0,0.2776198387145996,1.9333250522613525,0.6482849171525876,142.0,858.0
,,"(3, 3)",,,,,,142.0,
R,U,"[2, 3]",1.0,1.0,0.2794530391693115,2.3946259021759033,0.49326289672741036,,859.0
G,D,"[3, 3]",-2.0,-1.0,0.22335481643676758,1.9469139575958252,0.7231021750847072,143.0,860.0
G,D,"[4, 3]",-1.0,-2.0,0.3814690113067627,2.034482955932617,0.641004995779553,143.0,861.0
G,D,"[5, 3]",-1.0,-2.0,0.05430006980895996,5.511008977890015,0.33575028809103824,143.0,862.0
G,D,"[6, 3]",-2.0,-2.0,2.1686007976531982,3.670289993286133,0.47269743985761226,143.0,863.0
G,D,"[6, 3]",0.0,-2.0,0.3368229866027832,2.086786985397339,0.7426256138371476,143.0,864.0
,,"(3, 3)",,,,,,143.0,
R,U,"[2, 3]",-2.0,0.0,1.0792078971862793,3.207221031188965,0.5000241462694617,,865.0
B,L,"[2, 2]",1.0,1.0,0.4520280361175537,1.76340913772583,0.2969707797961544,144.0,866.0
B,L,"[2, 1]",1.0,2.0,0.31043100357055664,1.6582090854644775,0.3385986028794883,144.0,867.0
Y,R,"[2, 2]",1.0,3.0,0.27338194847106934,1.6142959594726562,0.3361765736632876,144.0,868.0
B,L,"[2, 1]",1.0,4.0,0.2261660099029541,1.8355729579925537,0.6048049413207213,144.0,869.0
B,L,"[2, 0]",0.0,4.0,0.8807039260864258,2.37391996383667,0.49558144101182944,144.0,870.0
,,"(3, 3)",,,,,,144.0,
R,U,"[2, 3]",-2.0,0.0,1.1180989742279053,3.9500231742858887,0.5456592148288477,,871.0
R,U,"[1, 3]",-1.0,-1.0,0.8692600727081299,2.3579869270324707,0.4869949702582477,145.0,872.0
G,D,"[2, 3]",1.0,0.0,0.2605259418487549,1.8706419467926025,0.6075609886339175,145.0,873.0
B,L,"[2, 2]",1.0,1.0,0.21810412406921387,1.8449599742889404,0.6192097322620862,145.0,874.0
B,L,"[2, 1]",1.0,2.0,0.2620351314544678,1.6335639953613281,0.3696915804649618,145.0,875.0
Y,R,"[2, 2]",1.0,3.0,0.4117391109466553,1.9722931385040283,0.5585336052394478,145.0,876.0
,,"(3, 3)",,,,,,145.0,
R,U,"[2, 3]",1.0,1.0,0.7452340126037598,7.056339979171753,0.5152800305125679,,877.0
B,L,"[2, 2]",1.0,2.0,0.24862003326416016,1.99259614944458,0.724054001496215,146.0,878.0
G,D,"[3, 2]",-1.0,1.0,0.21449899673461914,1.836777925491333,0.6109027208648862,146.0,879.0
B,L,"[3, 1]",1.0,2.0,0.1963188648223877,1.505133867263794,0.29986413780709226,146.0,880.0
B,L,"[3, 0]",0.0,2.0,0.2875330448150635,1.8615520000457764,0.561266642625709,146.0,881.0
Y,R,"[3, 1]",1.0,3.0,0.22101807594299316,1.5423219203948975,0.32038776261592267,146.0,882.0
,,"(3, 3)",,,,,,146.0,
R,U,"[2, 3]",1.0,1.0,0.5100991725921631,2.653262138366699,0.5400337647924167,,883.0
B,L,"[2, 2]",1.0,2.0,0.25983309745788574,1.6200060844421387,0.3604183011679822,147.0,884.0
Y,R,"[2, 3]",1.0,3.0,0.2771430015563965,1.971040964126587,0.6978402114694152,147.0,885.0
G,D,"[3, 3]",-2.0,1.0,0.2208390235900879,1.55796217918396,0.3226228868213978,147.0,886.0
B,L,"[3, 2]",-1.0,0.0,0.2729299068450928,1.719283103942871,0.44197939949112114,147.0,887.0
B,L,"[3, 1]",1.0,1.0,0.32938194274902344,1.8803269863128662,0.538922029789174,147.0,888.0
,,"(3, 3)",,,,,,147.0,
R,U,"[2, 3]",1.0,1.0,0.3803110122680664,2.637903928756714,0.41028537462460524,,889.0
B,L,"[2, 2]",1.0,2.0,0.27089500427246094,1.7470149993896484,0.4740770854981954,148.0,890.0
B,L,"[2, 1]",1.0,3.0,0.2587859630584717,1.5317959785461426,0.2725655734283948,148.0,891.0
Y,R,"[2, 2]",1.0,4.0,0.35368800163269043,1.8944149017333984,0.5334926443987689,148.0,892.0
B,L,"[2, 1]",1.0,5.0,0.2686011791229248,1.8922350406646729,0.6089255181833473,148.0,893.0
Y,R,"[2, 2]",1.0,6.0,0.2533409595489502,1.542898178100586,0.28562385083963154,148.0,894.0
,,"(3, 3)",,,,,,148.0,
R,U,"[2, 3]",1.0,1.0,0.4495890140533447,2.585124969482422,0.5204945387322893,,895.0
B,L,"[2, 2]",1.0,2.0,0.2932860851287842,2.030602216720581,0.7343712570709784,149.0,896.0
B,L,"[2, 1]",1.0,3.0,0.22387385368347168,1.6479480266571045,0.41602344715106815,149.0,897.0
Y,R,"[2, 2]",1.0,4.0,0.33231091499328613,1.6780099868774414,0.3273073358298625,149.0,898.0
B,L,"[2, 1]",1.0,5.0,0.3192939758300781,1.7405040264129639,0.417859966662177,149.0,899.0
Y,R,"[2, 2]",1.0,6.0,0.2643718719482422,1.632619857788086,0.3672409933019356,149.0,900.0
,,"(3, 3)",,,,,,149.0,
R,U,"[2, 3]",1.0,1.0,0.6853930950164795,2.8122010231018066,0.5458901601035641,,901.0
B,L,"[2, 2]",1.0,2.0,0.2491590976715088,1.6909611225128174,0.45344812960335235,150.0,902.0
B,L,"[2, 1]",1.0,3.0,0.28255796432495117,1.5898571014404297,0.3102442716188039,150.0,903.0
Y,R,"[2, 2]",1.0,4.0,0.36220288276672363,1.6271250247955322,0.27093090792648417,150.0,904.0
B,L,"[2, 1]",1.0,5.0,0.3626530170440674,1.9511079788208008,0.5884559926184991,150.0,905.0
Y,R,"[2, 2]",1.0,6.0,0.23873019218444824,1.8058319091796875,0.5608861553933553,150.0,906.0
,,"(3, 3)",,,,,,150.0,
R,U,"[2, 3]",1.0,1.0,0.6048622131347656,2.5349888801574707,0.52922239326306,,907.0
B,L,"[2, 2]",1.0,2.0,0.2685270309448242,1.8546428680419922,0.583961727978378,151.0,908.0
B,L,"[2, 1]",1.0,3.0,0.2118518352508545,1.6497859954833984,0.43392743324855276,151.0,909.0
Y,R,"[2, 2]",1.0,4.0,0.23888897895812988,1.6955149173736572,0.44607632223283195,151.0,910.0
B,L,"[2, 1]",1.0,5.0,0.26482701301574707,1.9512782096862793,0.6971657737528532,151.0,911.0
Y,R,"[2, 2]",1.0,6.0,0.2461109161376953,1.8253610134124756,0.5725694852269909,151.0,912.0
,,"(3, 3)",,,,,,151.0,
R,U,"[2, 3]",1.0,1.0,0.6409578323364258,2.648790121078491,0.5713947688180613,,913.0
B,L,"[2, 2]",1.0,2.0,0.2595980167388916,1.8166301250457764,0.5548890741136733,152.0,914.0
B,L,"[2, 1]",1.0,3.0,0.22807097434997559,1.9226338863372803,0.6940475988289085,152.0,915.0
Y,R,"[2, 2]",1.0,4.0,0.2826080322265625,1.64894700050354,0.3599695983454727,152.0,916.0
B,L,"[2, 1]",1.0,5.0,0.32143306732177734,1.9918708801269531,0.6682115368043094,152.0,917.0
Y,R,"[2, 2]",1.0,6.0,0.2347719669342041,1.5433640480041504,0.29537893265636767,152.0,918.0
,,"(3, 3)",,,,,,152.0,
R,U,"[2, 3]",1.0,1.0,0.8705809116363525,2.7152109146118164,0.3106933220575752,,919.0
B,L,"[2, 2]",1.0,2.0,0.37964415550231934,1.987224817276001,0.6141522097465536,153.0,920.0
B,L,"[2, 1]",1.0,3.0,0.17680597305297852,1.7335858345031738,0.5477470612667803,153.0,921.0
Y,R,"[2, 2]",1.0,4.0,0.20832610130310059,1.9473199844360352,0.7283597975059448,153.0,922.0
B,L,"[2, 1]",1.0,5.0,0.31806492805480957,1.878814935684204,0.5574053190265029,153.0,923.0
Y,R,"[2, 2]",1.0,6.0,0.252971887588501,1.5690770149230957,0.31013871476969757,153.0,924.0
,,"(3, 3)",,,,,,153.0,
R,U,"[2, 3]",1.0,1.0,0.7137269973754883,2.9515819549560547,0.6946880057227255,,925.0
B,L,"[2, 2]",1.0,2.0,0.19859814643859863,1.9130020141601562,0.7243162913796204,154.0,926.0
B,L,"[2, 1]",1.0,3.0,0.22397613525390625,1.9114348888397217,0.6857684757163359,154.0,927.0
Y,R,"[2, 2]",1.0,4.0,0.1831650733947754,1.6900157928466797,0.4926347566152854,154.0,928.0
B,L,"[2, 1]",1.0,5.0,0.23078584671020508,1.6049139499664307,0.38101170227581305,154.0,929.0
Y,R,"[2, 2]",1.0,6.0,0.27030110359191895,1.9045741558074951,0.6187385393119572,154.0,930.0
,,"(3, 3)",,,,,,154.0,
R,U,"[2, 3]",1.0,1.0,0.4568181037902832,2.900624990463257,0.586116038103774,,931.0
B,L,"[2, 2]",1.0,2.0,0.18065309524536133,1.8306758403778076,0.6500634608700012,155.0,932.0
B,L,"[2, 1]",-1.0,2.0,0.0412900447845459,5.6430089473724365,0.47671916208291226,155.0,933.0
R,U,"[1, 1]",-2.0,2.0,1.204291820526123,2.6679999828338623,0.44506473865077373,155.0,934.0
B,L,"[1, 0]",0.0,2.0,0.4143948554992676,1.9794328212738037,0.5743814163565175,155.0,935.0
Y,R,"[1, 1]",1.0,3.0,0.31024599075317383,2.0266618728637695,0.7007963159635706,155.0,936.0
,,"(3, 3)",,,,,,155.0,
R,U,"[2, 3]",1.0,1.0,0.6782770156860352,2.7627508640289307,0.2806586699661731,,937.0
B,L,"[2, 2]",1.0,2.0,0.32533907890319824,1.8646588325500488,0.5282820780846509,156.0,938.0
B,L,"[2, 1]",1.0,3.0,0.3286449909210205,1.920490026473999,0.5989006917871981,156.0,939.0
Y,R,"[2, 2]",1.0,4.0,0.27313804626464844,1.7187111377716064,0.43437431619940653,156.0,940.0
B,L,"[2, 1]",1.0,5.0,0.2627980709075928,1.952401876449585,0.6864685842620776,156.0,941.0
Y,R,"[2, 2]",-1.0,5.0,0.06509590148925781,5.855309963226318,0.6420146843448082,156.0,942.0
,,"(3, 3)",,,,,,156.0,
R,U,"[2, 3]",1.0,1.0,0.5098941326141357,4.606468200683594,0.3656760069308001,,943.0
B,L,"[2, 2]",1.0,2.0,0.5612208843231201,2.032925844192505,0.4651546633139484,157.0,944.0
B,L,"[2, 1]",1.0,3.0,0.28310704231262207,1.646373987197876,0.3448437711006885,157.0,945.0
Y,R,"[2, 2]",1.0,4.0,0.33770298957824707,1.951220989227295,0.6124136875919023,157.0,946.0
B,L,"[2, 1]",1.0,5.0,0.22176814079284668,1.840195894241333,0.6193322392819149,157.0,947.0
Y,R,"[2, 2]",-1.0,5.0,0.035069942474365234,5.645396947860718,0.48165063843878253,157.0,948.0
,,"(3, 3)",,,,,,157.0,
B,L,"[3, 2]",-1.0,-1.0,0.4935488700866699,2.8874940872192383,0.302849524554695,,949.0
B,L,"[3, 1]",1.0,0.0,0.7837560176849365,2.0954339504241943,0.2981611812190008,158.0,950.0
B,L,"[3, 0]",0.0,0.0,0.3069920539855957,1.7733500003814697,0.4546705485574451,158.0,951.0
Y,R,"[3, 1]",-1.0,0.0,0.06171011924743652,5.771178960800171,0.5757632235534215,158.0,952.0
R,U,"[2, 1]",-2.0,0.0,1.3523259162902832,2.651641845703125,0.27775758824944813,158.0,953.0
R,U,"[1, 1]",1.0,1.0,0.568803071975708,1.9710500240325928,0.39884963268521606,158.0,954.0
,,"(3, 3)",,,,,,158.0,
R,U,"[2, 3]",1.0,1.0,0.7678968906402588,3.8574531078338623,0.5894905764215543,,955.0
B,L,"[2, 2]",1.0,2.0,0.2146151065826416,1.8951659202575684,0.6680709023676912,159.0,956.0
B,L,"[2, 1]",1.0,3.0,0.22489500045776367,1.5582561492919922,0.3261244179386392,159.0,957.0
Y,R,"[2, 2]",1.0,4.0,0.2857530117034912,1.9748570919036865,0.6844979064751959,159.0,958.0
B,L,"[2, 1]",1.0,5.0,0.21350789070129395,1.6017968654632568,0.3864552715418555,159.0,959.0
Y,R,"[2, 2]",1.0,6.0,0.24160194396972656,1.7808258533477783,0.5337971013077674,159.0,960.0
,,"(3, 3)",,,,,,159.0,
R,U,"[2, 3]",-2.0,0.0,1.1343111991882324,3.8447468280792236,0.41227721988638033,,961.0
B,L,"[2, 2]",1.0,1.0,0.43544507026672363,1.8514249324798584,0.41360429289136474,160.0,962.0
B,L,"[2, 1]",1.0,2.0,0.2615978717803955,1.7072348594665527,0.4375825253940036,160.0,963.0
Y,R,"[2, 2]",1.0,3.0,0.2378549575805664,1.4961848258972168,0.2505590305554073,160.0,964.0
B,L,"[2, 1]",1.0,4.0,0.2685849666595459,1.671746015548706,0.38880475991067737,160.0,965.0
Y,R,"[2, 2]",1.0,5.0,0.2419588565826416,1.6856319904327393,0.44113475478577036,160.0,966.0
,,"(3, 3)",,,,,,160.0,
R,U,"[2, 3]",1.0,1.0,0.5274291038513184,2.905651807785034,0.6298526129079197,,967.0
B,L,"[2, 2]",1.0,2.0,0.14745521545410156,1.8107080459594727,0.6572485495541404,161.0,968.0
B,L,"[2, 1]",1.0,3.0,0.2165369987487793,1.6785080432891846,0.4528762385770128,161.0,969.0
Y,R,"[2, 2]",1.0,4.0,0.22193408012390137,1.4820060729980469,0.2518299203543837,161.0,970.0
B,L,"[2, 1]",1.0,5.0,0.3447389602661133,1.6396889686584473,0.2912332987100071,161.0,971.0
Y,R,"[2, 2]",1.0,6.0,0.38638997077941895,1.7968218326568604,0.4047311252557672,161.0,972.0
,,"(3, 3)",,,,,,161.0,
R,U,"[2, 3]",1.0,1.0,0.8262381553649902,3.1838958263397217,0.7216670755488535,,973.0
B,L,"[2, 2]",1.0,2.0,0.4512350559234619,1.9665358066558838,0.5050910815571699,162.0,974.0
B,L,"[2, 1]",1.0,3.0,0.27259302139282227,1.6564359664916992,0.37836097042762756,162.0,975.0
Y,R,"[2, 2]",1.0,4.0,0.3596360683441162,2.102832078933716,0.7474944388836506,162.0,976.0
B,L,"[2, 1]",1.0,5.0,0.23321890830993652,1.6778020858764648,0.4256786511792446,162.0,977.0
B,L,"[2, 0]",0.0,5.0,0.44750213623046875,1.9354040622711182,0.47782933940277955,162.0,978.0
,,"(3, 3)",,,,,,162.0,
R,U,"[2, 3]",1.0,1.0,0.5756468772888184,3.6538429260253906,0.4650260203640269,,979.0
B,L,"[2, 2]",1.0,2.0,0.2995882034301758,1.8111059665679932,0.49267273962060226,163.0,980.0
B,L,"[2, 1]",1.0,3.0,0.2006850242614746,1.6503498554229736,0.45996558447288804,163.0,981.0
Y,R,"[2, 2]",1.0,4.0,0.26579713821411133,1.878180980682373,0.6212703635570249,163.0,982.0
B,L,"[2, 1]",1.0,5.0,0.21754813194274902,1.895678997039795,0.6670139856707094,163.0,983.0
Y,R,"[2, 2]",1.0,6.0,0.16797804832458496,1.6548798084259033,0.47195765059640965,163.0,984.0
,,"(3, 3)",,,,,,163.0,
R,U,"[2, 3]",1.0,1.0,0.6039187908172607,3.36319899559021,0.5352110553979541,,985.0
B,L,"[2, 2]",1.0,2.0,0.22217106819152832,1.6910929679870605,0.45981043831632223,164.0,986.0
B,L,"[2, 1]",1.0,3.0,0.20195889472961426,1.5545599460601807,0.34784933145398367,164.0,987.0
Y,R,"[2, 2]",1.0,4.0,0.20253396034240723,1.725625991821289,0.5065714699847053,164.0,988.0
B,L,"[2, 1]",1.0,5.0,0.20455098152160645,1.5022859573364258,0.29239646510033623,164.0,989.0
Y,R,"[2, 2]",1.0,6.0,0.3054630756378174,1.6650810241699219,0.35748061877719284,164.0,990.0
,,"(3, 3)",,,,,,164.0,
R,U,"[2, 3]",1.0,1.0,0.6294469833374023,3.121039867401123,0.2784872996493807,,991.0
B,L,"[2, 2]",1.0,2.0,0.31336283683776855,1.8142669200897217,0.5093082764982217,165.0,992.0
Y,R,"[2, 3]",1.0,3.0,0.14101290702819824,1.604313850402832,0.4638205296581989,165.0,993.0
B,L,"[2, 2]",1.0,4.0,0.20034480094909668,1.6359329223632812,0.4165541582700365,165.0,994.0
Y,R,"[2, 3]",1.0,5.0,0.22014307975769043,1.6261610984802246,0.3926621698692549,165.0,995.0
B,L,"[2, 2]",1.0,6.0,0.2294318675994873,1.5103909969329834,0.2864003328056495,165.0,996.0
,,"(3, 3)",,,,,,165.0,
R,U,"[2, 3]",1.0,1.0,0.9556159973144531,2.734283924102783,0.3710051435554471,,997.0
B,L,"[2, 2]",1.0,2.0,0.3056519031524658,1.7082600593566895,0.3956937195747958,166.0,998.0
Y,R,"[2, 3]",1.0,3.0,0.23056316375732422,1.5232350826263428,0.3022123455941273,166.0,999.0
B,L,"[2, 2]",1.0,4.0,0.31323909759521484,1.7581720352172852,0.4437177955177797,166.0,1000.0
Y,R,"[2, 3]",1.0,5.0,0.24735093116760254,1.604466199874878,0.3649156936105797,166.0,1001.0
B,L,"[2, 2]",1.0,6.0,0.2567100524902344,1.6135590076446533,0.3452405557627517,166.0,1002.0
,,"(3, 3)",,,,,,166.0,
R,U,"[2, 3]",1.0,1.0,0.5996971130371094,3.0339720249176025,0.37919488234531407,,1003.0
B,L,"[2, 2]",1.0,2.0,0.31252217292785645,1.596923828125,0.29298443941730173,167.0,1004.0
B,L,"[2, 1]",1.0,3.0,0.2166759967803955,1.7812728881835938,0.5573666497329911,167.0,1005.0
Y,R,"[2, 2]",-1.0,3.0,0.02530503273010254,5.584078788757324,0.4415589059961841,167.0,1006.0
Y,R,"[2, 3]",1.0,4.0,0.2752809524536133,1.549314022064209,0.2744603054584907,167.0,1007.0
B,L,"[2, 2]",1.0,5.0,0.45215392112731934,1.7515289783477783,0.2926399899876582,167.0,1008.0
,,"(3, 3)",,,,,,167.0,
R,U,"[2, 3]",1.0,1.0,0.8903000354766846,3.7295260429382324,0.5886218153731559,,1009.0
B,L,"[2, 2]",1.0,2.0,0.2491600513458252,1.8116950988769531,0.5502733381477608,168.0,1010.0
B,L,"[2, 1]",1.0,3.0,0.1863870620727539,1.682337999343872,0.48270911577138903,168.0,1011.0
R,U,"[1, 1]",1.0,4.0,0.31245994567871094,1.9230568408966064,0.6059012349848796,168.0,1012.0
Y,R,"[1, 2]",1.0,5.0,0.24547195434570312,1.9920141696929932,0.7475255495455388,168.0,1013.0
B,L,"[1, 1]",1.0,6.0,0.2149200439453125,1.6102650165557861,0.39171473554953656,168.0,1014.0
,,"(3, 3)",,,,,,168.0,
B,L,"[3, 2]",-2.0,0.0,1.039172887802124,7.191504001617432,0.3833288523925038,,1015.0
B,L,"[3, 1]",1.0,1.0,0.5938417911529541,2.1874969005584717,0.5871889978816,169.0,1016.0
B,L,"[3, 0]",0.0,1.0,0.24992918968200684,1.943444013595581,0.6806212437995138,169.0,1017.0
Y,R,"[3, 1]",1.0,2.0,0.219559907913208,1.5516560077667236,0.3326781001658459,169.0,1018.0
B,L,"[3, 0]",0.0,2.0,0.24467802047729492,1.7868320941925049,0.535898790065764,169.0,1019.0
Y,R,"[3, 1]",1.0,3.0,0.22159910202026367,1.8835930824279785,0.6528747623550284,169.0,1020.0
,,"(3, 3)",,,,,,169.0,
R,U,"[2, 3]",1.0,1.0,0.8062388896942139,3.633648157119751,0.5032839427756746,,1021.0
B,L,"[2, 2]",1.0,2.0,0.3048698902130127,1.8601949214935303,0.5467621595042146,170.0,1022.0
B,L,"[2, 1]",1.0,3.0,0.2552978992462158,1.7145168781280518,0.4448736851067637,170.0,1023.0
Y,R,"[2, 2]",1.0,4.0,0.39929699897766113,1.7638559341430664,0.3754210205349341,170.0,1024.0
B,L,"[2, 1]",1.0,5.0,0.23080682754516602,1.6586499214172363,0.4341118298882585,170.0,1025.0
Y,R,"[2, 2]",1.0,6.0,0.1993110179901123,1.6890649795532227,0.48974508875975237,170.0,1026.0
,,"(3, 3)",,,,,,170.0,
R,U,"[2, 3]",1.0,1.0,0.9244589805603027,3.456541061401367,0.7293720827887037,,1027.0
B,L,"[2, 2]",1.0,2.0,0.19855284690856934,1.7522189617156982,0.5486088422853833,171.0,1028.0
B,L,"[2, 1]",1.0,3.0,0.25859498977661133,1.6975798606872559,0.4296443066643684,171.0,1029.0
Y,R,"[2, 2]",1.0,4.0,0.26159000396728516,1.5661680698394775,0.2959513694844384,171.0,1030.0
B,L,"[2, 1]",1.0,5.0,0.280534029006958,1.6349060535430908,0.36401068807416476,171.0,1031.0
Y,R,"[2, 2]",1.0,6.0,0.2657020092010498,1.822829008102417,0.5534118642904364,171.0,1032.0
,,"(3, 3)",,,,,,171.0,
R,U,"[2, 3]",1.0,1.0,0.6258227825164795,3.0465919971466064,0.40035377833029306,,1033.0
B,L,"[2, 2]",1.0,2.0,0.28926706314086914,1.6042110919952393,0.304306559553941,172.0,1034.0
B,L,"[2, 1]",1.0,3.0,0.2842388153076172,1.566183090209961,0.2706534377842325,172.0,1035.0
Y,R,"[2, 2]",1.0,4.0,0.3285090923309326,1.6202290058135986,0.29097457073278343,172.0,1036.0
B,L,"[2, 1]",1.0,5.0,0.3128530979156494,2.043642044067383,0.7342968141740207,172.0,1037.0
Y,R,"[2, 2]",1.0,6.0,0.23098206520080566,1.5424599647521973,0.3105745054451588,172.0,1038.0
,,"(3, 3)",,,,,,172.0,
R,U,"[2, 3]",-2.0,0.0,1.0112040042877197,3.1749508380889893,0.3020993928855533,,1039.0
B,L,"[2, 2]",1.0,1.0,0.2894558906555176,1.8466601371765137,0.5485331515488321,173.0,1040.0
B,L,"[2, 1]",1.0,2.0,0.20557403564453125,1.9140279293060303,0.6957942388290976,173.0,1041.0
Y,R,"[2, 2]",1.0,3.0,0.2089540958404541,1.9000639915466309,0.6793372628809464,173.0,1042.0
B,L,"[2, 1]",1.0,4.0,0.1831378936767578,1.8581829071044922,0.6542642445143099,173.0,1043.0
Y,R,"[2, 2]",1.0,5.0,0.21017789840698242,1.5656359195709229,0.35350021737955206,173.0,1044.0
,,"(3, 3)",,,,,,173.0,
R,U,"[2, 3]",1.0,1.0,0.6902549266815186,2.9141831398010254,0.284461631679149,,1045.0
B,L,"[2, 2]",1.0,2.0,0.30387091636657715,2.0413858890533447,0.7253644886345127,174.0,1046.0
B,L,"[2, 1]",-1.0,2.0,0.07722187042236328,5.861546993255615,0.6372221615317686,174.0,1047.0
B,L,"[2, 0]",0.0,2.0,0.29523706436157227,1.7692210674285889,0.47323586539888207,174.0,1048.0
Y,R,"[2, 1]",1.0,3.0,0.31570005416870117,1.694897174835205,0.3684032032947624,174.0,1049.0
B,L,"[2, 0]",0.0,3.0,0.25367307662963867,1.7301440238952637,0.46506354723628496,174.0,1050.0
,,"(3, 3)",,,,,,174.0,
R,U,"[2, 3]",-2.0,0.0,1.0665948390960693,3.444715976715088,0.3269009119241904,,1051.0
B,L,"[2, 2]",1.0,1.0,0.5280981063842773,1.9531400203704834,0.41327053010149206,175.0,1052.0
B,L,"[2, 1]",1.0,2.0,0.261462926864624,1.5853931903839111,0.31528359517428284,175.0,1053.0
Y,R,"[2, 2]",1.0,3.0,0.2880699634552002,1.65482497215271,0.3534010207704876,175.0,1054.0
B,L,"[2, 1]",1.0,4.0,0.34424901008605957,1.747952938079834,0.4012619328141626,175.0,1055.0
Y,R,"[2, 2]",1.0,5.0,0.2585568428039551,1.687417984008789,0.42197426293659546,175.0,1056.0
,,"(3, 3)",,,,,,175.0,
R,U,"[2, 3]",1.0,1.0,0.7003519535064697,3.2123968601226807,0.384815335637061,,1057.0
B,L,"[2, 2]",1.0,2.0,0.27846288681030273,1.7286720275878906,0.4462259404359427,176.0,1058.0
B,L,"[2, 1]",1.0,3.0,0.22138309478759766,1.651662826538086,0.4148624419074468,176.0,1059.0
Y,R,"[2, 2]",1.0,4.0,0.26039814949035645,1.6874878406524658,0.4190265700449436,176.0,1060.0
B,L,"[2, 1]",1.0,5.0,0.21113204956054688,1.9489359855651855,0.7344411791335617,176.0,1061.0
B,L,"[2, 0]",0.0,5.0,0.9059510231018066,2.2219760417938232,0.3068052314984247,176.0,1062.0
,,"(3, 3)",,,,,,176.0,
R,U,"[2, 3]",1.0,1.0,0.7070322036743164,3.001131057739258,0.29128507339667964,,1063.0
B,L,"[2, 2]",1.0,2.0,0.271481990814209,1.6382601261138916,0.36294915564292285,177.0,1064.0
B,L,"[2, 1]",1.0,3.0,0.3223090171813965,1.6386799812316895,0.3183454130812358,177.0,1065.0
Y,R,"[2, 2]",1.0,4.0,0.25549793243408203,1.9746160507202148,0.7092442159983169,177.0,1066.0
B,L,"[2, 1]",1.0,5.0,0.20566606521606445,1.5781450271606445,0.3710404520481151,177.0,1067.0
Y,R,"[2, 2]",1.0,6.0,0.38939714431762695,1.779076099395752,0.38353590388580633,177.0,1068.0
,,"(3, 3)",,,,,,177.0,
R,U,"[2, 3]",1.0,1.0,0.70632004737854,3.162058115005493,0.6117877109966523,,1069.0
B,L,"[2, 2]",1.0,2.0,0.3522357940673828,2.0591230392456055,0.7043711735512415,178.0,1070.0
B,L,"[2, 1]",1.0,3.0,0.47482991218566895,2.162691831588745,0.6837892379994204,178.0,1071.0
Y,R,"[2, 2]",1.0,4.0,0.21905803680419922,1.6327381134033203,0.40020096344407297,178.0,1072.0
B,L,"[2, 1]",1.0,5.0,0.25876808166503906,1.9542529582977295,0.6875268970388415,178.0,1073.0
Y,R,"[2, 2]",1.0,6.0,0.2261638641357422,1.8634529113769531,0.6343583851624421,178.0,1074.0
,,"(3, 3)",,,,,,178.0,
R,U,"[2, 3]",-2.0,0.0,1.1564350128173828,3.9276981353759766,0.7120915476979388,,1075.0
B,L,"[2, 2]",1.0,1.0,0.2226238250732422,1.8072350025177002,0.586197522919443,179.0,1076.0
B,L,"[2, 1]",1.0,2.0,0.16013002395629883,1.694077968597412,0.5303442708925201,179.0,1077.0
