button_choice,action_choice,coordinate_choice,reward,cumulative_reward,rt,total_trial_time,iti,block_n,trial_n
G,D,"[4, 3]",-2.0,0.0,2.238111972808838,3.818269968032837,0.5524917343957932,0.0,1.0
G,D,"[5, 3]",-1.0,-1.0,0.21413588523864746,1.7995920181274414,0.5686691887298312,0.0,2.0
B,L,"[5, 2]",-1.0,-2.0,0.7621641159057617,2.5044782161712646,0.7396400878406799,0.0,3.0
G,D,"[6, 2]",0.0,-2.0,0.35029101371765137,1.9761378765106201,0.5992929231049753,0.0,4.0
Y,R,"[6, 3]",0.0,-2.0,0.18597698211669922,1.8682990074157715,0.6841862076467323,0.0,5.0
R,U,"[5, 3]",0.0,-2.0,0.9443590641021729,2.649198055267334,0.7000021722464209,0.0,6.0
,,"(3, 3)",,,,,,0.0,
Y,R,"[3, 4]",-1.0,-1.0,0.6017880439758301,8.490700006484985,0.27479603733811586,,7.0
B,L,"[3, 3]",0.0,-1.0,0.24135184288024902,1.8278231620788574,0.585664691501699,1.0,8.0
G,D,"[4, 3]",-1.0,-2.0,0.42947983741760254,1.9811909198760986,0.5335443615648832,1.0,9.0
G,D,"[5, 3]",-2.0,-2.0,1.660830020904541,2.9771440029144287,0.2775950257218608,1.0,10.0
B,L,"[5, 2]",-1.0,-3.0,0.18762898445129395,1.6970291137695312,0.5077942366866917,1.0,11.0
B,L,"[5, 1]",-1.0,-4.0,0.2314929962158203,1.7513549327850342,0.5258405218895813,1.0,12.0
,,"(3, 3)",,,,,,1.0,
R,U,"[2, 3]",-1.0,-1.0,0.8581597805023193,4.274334907531738,0.250486488004346,,13.0
G,D,"[3, 3]",-2.0,-1.0,1.4036688804626465,3.0406219959259033,0.6074731251603773,2.0,14.0
G,D,"[4, 3]",-1.0,-2.0,0.22395586967468262,1.8727929592132568,0.6468808938922777,2.0,15.0
G,D,"[5, 3]",-1.0,-3.0,0.5427238941192627,2.187857151031494,0.6347788647318959,2.0,16.0
B,L,"[5, 2]",-1.0,-4.0,0.44547295570373535,2.196233034133911,0.7477634850392689,2.0,17.0
R,U,"[4, 2]",-1.0,-5.0,0.26766395568847656,1.7037181854248047,0.41837561172168725,2.0,18.0
,,"(3, 3)",,,,,,2.0,
Y,R,"[3, 4]",-1.0,-1.0,0.8452768325805664,4.687804937362671,0.6229054197451913,,19.0
B,L,"[3, 3]",0.0,-1.0,0.42137598991394043,1.8763539791107178,0.44937635804500103,3.0,20.0
G,D,"[4, 3]",-1.0,-2.0,0.2193460464477539,1.933448076248169,0.6992897309987963,3.0,21.0
B,L,"[4, 2]",-1.0,-3.0,0.519193172454834,2.007899045944214,0.4739245344405027,3.0,22.0
G,D,"[5, 2]",-1.0,-4.0,0.47893691062927246,2.1881470680236816,0.7119187843080084,3.0,23.0
Y,R,"[5, 3]",-1.0,-5.0,0.42768192291259766,2.128725051879883,0.7074889433764748,3.0,24.0
,,"(3, 3)",,,,,,3.0,
G,D,"[4, 3]",-2.0,0.0,1.3689510822296143,4.912312984466553,0.5199708260473604,,25.0
R,U,"[3, 3]",0.0,0.0,0.5977678298950195,1.9539039134979248,0.34071430537291786,4.0,26.0
Y,R,"[3, 4]",-1.0,-1.0,0.22807908058166504,1.5543720722198486,0.3119413712496684,4.0,27.0
R,U,"[2, 4]",-1.0,-1.0,0.003865957260131836,5.727338075637817,0.6060250380982486,4.0,28.0
R,U,"[1, 4]",-1.0,-2.0,0.5518569946289062,1.8358280658721924,0.275117258030745,4.0,29.0
R,U,"[0, 4]",0.0,-2.0,0.4228198528289795,1.8463609218597412,0.43811736108039523,4.0,30.0
,,"(3, 3)",,,,,,4.0,
B,L,"[3, 2]",-2.0,0.0,1.6018741130828857,5.787588119506836,0.525706507113961,,31.0
G,D,"[4, 2]",-1.0,-1.0,0.311168909072876,1.788564920425415,0.4643820191274221,5.0,32.0
B,L,"[4, 1]",-1.0,-2.0,0.37267184257507324,1.9858579635620117,0.6000082681199524,5.0,33.0
B,L,"[4, 0]",0.0,-2.0,0.4924619197845459,2.1965279579162598,0.6964748147812199,5.0,34.0
B,L,"[4, 0]",0.0,-2.0,0.2275838851928711,1.4929578304290771,0.25676505064477734,5.0,35.0
Y,R,"[4, 1]",0.0,-2.0,0.29311513900756836,1.9772348403930664,0.6834796053011803,5.0,36.0
,,"(3, 3)",,,,,,5.0,
Y,R,"[3, 4]",-2.0,0.0,1.1805450916290283,4.348675966262817,0.3325297461525471,,37.0
Y,R,"[3, 5]",-1.0,-1.0,0.19196414947509766,1.803015947341919,0.6019224918231503,6.0,38.0
Y,R,"[3, 6]",0.0,-1.0,0.28304314613342285,1.9722659587860107,0.6742955663979531,6.0,39.0
B,L,"[3, 5]",0.0,-1.0,0.2728099822998047,1.6465699672698975,0.3711011109677995,6.0,40.0
G,D,"[4, 5]",-1.0,-2.0,0.2365729808807373,1.932154893875122,0.6863068103739882,6.0,41.0
G,D,"[5, 5]",-1.0,-3.0,0.3233048915863037,1.734877109527588,0.4048042809374338,6.0,42.0
,,"(3, 3)",,,,,,6.0,
R,U,"[2, 3]",-1.0,-1.0,0.6046900749206543,3.0807971954345703,0.25244127900349006,,43.0
G,D,"[3, 3]",0.0,-1.0,0.446699857711792,2.1586620807647705,0.7108013732674746,7.0,44.0
R,U,"[2, 3]",0.0,-1.0,0.401932954788208,2.0170819759368896,0.6280175003308899,7.0,45.0
B,L,"[2, 2]",1.0,0.0,0.5082089900970459,1.996781826019287,0.49164985477068807,7.0,46.0
B,L,"[2, 1]",1.0,1.0,0.5464341640472412,2.133787155151367,0.5918768912549675,7.0,47.0
B,L,"[2, 0]",0.0,1.0,0.8401710987091064,2.170103073120117,0.32889715254411506,7.0,48.0
,,"(3, 3)",,,,,,7.0,
B,L,"[3, 2]",-2.0,0.0,2.735029935836792,5.485383987426758,0.28121957395432995,,49.0
G,D,"[4, 2]",-1.0,-1.0,0.5465459823608398,2.2984108924865723,0.7291354372689176,8.0,50.0
R,U,"[3, 2]",0.0,-1.0,0.3079960346221924,1.9906320571899414,0.6698263268238325,8.0,51.0
G,D,"[4, 2]",0.0,-1.0,0.2565140724182129,1.6697371006011963,0.4064637732285477,8.0,52.0
B,L,"[4, 1]",-1.0,-2.0,0.2540571689605713,1.9887611865997314,0.7285258206750699,8.0,53.0
G,D,"[5, 1]",-1.0,-3.0,0.32948803901672363,1.7812049388885498,0.4599129889478704,8.0,54.0
,,"(3, 3)",,,,,,8.0,
G,D,"[4, 3]",-2.0,0.0,1.6230189800262451,4.290792942047119,0.5342612538097684,,55.0
G,D,"[5, 3]",-1.0,-1.0,0.2434520721435547,1.8115620613098145,0.5621398508078028,9.0,56.0
R,U,"[4, 3]",0.0,-1.0,0.21793389320373535,1.8234341144561768,0.6023864357435845,9.0,57.0
G,D,"[5, 3]",0.0,-1.0,0.25726795196533203,1.6222541332244873,0.3582450576195132,9.0,58.0
R,U,"[4, 3]",0.0,-1.0,0.22443008422851562,1.6760749816894531,0.4509230678361917,9.0,59.0
B,L,"[4, 2]",-1.0,-2.0,0.22838711738586426,1.5435421466827393,0.2946807945821424,9.0,60.0
,,"(3, 3)",,,,,,9.0,
Y,R,"[3, 4]",-1.0,-1.0,0.594102144241333,3.344114065170288,0.45523044990724715,,61.0
G,D,"[4, 4]",-1.0,-1.0,0.07047486305236816,5.697829961776733,0.48648051479706245,10.0,62.0
G,D,"[5, 4]",-1.0,-2.0,0.33777499198913574,2.0413658618927,0.7109639307543698,10.0,63.0
Y,R,"[5, 5]",-1.0,-2.0,0.05224490165710449,5.7903289794921875,0.6182070549255141,10.0,64.0
B,L,"[5, 4]",-2.0,-2.0,1.4781138896942139,2.818197011947632,0.3034993905146968,10.0,65.0
B,L,"[5, 3]",-1.0,-3.0,0.3716089725494385,2.006004810333252,0.625729879931424,10.0,66.0
,,"(3, 3)",,,,,,10.0,
B,L,"[3, 2]",-2.0,0.0,1.1069920063018799,4.2810869216918945,0.27395529272684155,,67.0
B,L,"[3, 1]",1.0,1.0,0.2145099639892578,1.6692919731140137,0.4430086476693691,11.0,68.0
B,L,"[3, 0]",0.0,1.0,0.7450430393218994,2.21443510055542,0.474276332196674,11.0,69.0
G,D,"[4, 0]",0.0,1.0,0.29961705207824707,1.5657930374145508,0.27361538084859494,11.0,70.0
G,D,"[5, 0]",0.0,1.0,0.26366496086120605,1.544236183166504,0.28455331682607804,11.0,71.0
G,D,"[6, 0]",0.0,1.0,0.2942368984222412,1.7346110343933105,0.4356178824327513,11.0,72.0
,,"(3, 3)",,,,,,11.0,
R,U,"[2, 3]",-2.0,0.0,1.0363638401031494,3.7696080207824707,0.28885070938057444,,73.0
R,U,"[1, 3]",1.0,1.0,0.25405311584472656,1.682326078414917,0.4210642295474346,12.0,74.0
G,D,"[2, 3]",0.0,1.0,0.44988584518432617,2.1402671337127686,0.69437693407824,12.0,75.0
B,L,"[2, 2]",1.0,2.0,0.324476957321167,2.0207810401916504,0.6985329392883585,12.0,76.0
Y,R,"[2, 3]",0.0,2.0,0.3430769443511963,2.09332013130188,0.7418166686143577,12.0,77.0
Y,R,"[2, 4]",-1.0,1.0,0.8948440551757812,2.3113160133361816,0.4200794737250963,12.0,78.0
,,"(3, 3)",,,,,,12.0,
G,D,"[4, 3]",-2.0,0.0,1.7819538116455078,4.736935138702393,0.5570914840410092,,79.0
Y,R,"[4, 4]",-1.0,-1.0,0.27126383781433105,1.8528549671173096,0.5765522180358169,13.0,80.0
G,D,"[5, 4]",-1.0,-2.0,0.24633383750915527,1.5291011333465576,0.28933465804193426,13.0,81.0
B,L,"[5, 3]",-1.0,-3.0,0.2322840690612793,1.6759591102600098,0.4318677507538953,13.0,82.0
R,U,"[4, 3]",0.0,-3.0,0.21544694900512695,1.538538932800293,0.32041651609409594,13.0,83.0
R,U,"[3, 3]",-2.0,-3.0,1.2502989768981934,2.9981770515441895,0.7182637816726072,13.0,84.0
,,"(3, 3)",,,,,,13.0,
Y,R,"[3, 4]",-2.0,0.0,1.3231940269470215,4.155004978179932,0.27379790252086617,,85.0
Y,R,"[3, 5]",-1.0,-1.0,0.3565239906311035,1.842405080795288,0.4825008402429425,14.0,86.0
B,L,"[3, 4]",0.0,-1.0,0.23278188705444336,1.7047691345214844,0.4708960222290238,14.0,87.0
G,D,"[4, 4]",-1.0,-2.0,0.2606170177459717,1.8372089862823486,0.5744750634554352,14.0,88.0
R,U,"[3, 4]",0.0,-2.0,0.19934701919555664,1.7791190147399902,0.5871572437435202,14.0,89.0
B,L,"[3, 3]",0.0,-2.0,0.9002590179443359,2.2356250286102295,0.33966135089358424,14.0,90.0
,,"(3, 3)",,,,,,14.0,
Y,R,"[3, 4]",-1.0,-1.0,0.6673359870910645,4.4297730922698975,0.6195292188606607,,91.0
R,U,"[2, 4]",-1.0,-2.0,0.8956408500671387,2.431185007095337,0.533735197252919,15.0,92.0
B,L,"[2, 3]",-1.0,-3.0,0.26218199729919434,1.5757930278778076,0.30990712600222087,15.0,93.0
G,D,"[3, 3]",0.0,-3.0,0.3998711109161377,2.119313955307007,0.7122919969501931,15.0,94.0
G,D,"[4, 3]",-1.0,-4.0,0.5792200565338135,1.8812670707702637,0.29389728188481795,15.0,95.0
G,D,"[5, 3]",-1.0,-5.0,0.7408909797668457,2.1648740768432617,0.42546086961462815,15.0,96.0
,,"(3, 3)",,,,,,15.0,
Y,R,"[3, 4]",-2.0,0.0,2.0520339012145996,12.807561874389648,0.5664961095417234,,97.0
Y,R,"[3, 5]",-1.0,-1.0,0.23729395866394043,1.9512660503387451,0.7007978777958781,16.0,98.0
R,U,"[2, 5]",-1.0,-2.0,0.4080991744995117,2.051240921020508,0.6354913390866557,16.0,99.0
G,D,"[3, 5]",0.0,-2.0,0.19834399223327637,1.7762129306793213,0.578258807376502,16.0,100.0
B,L,"[3, 4]",0.0,-2.0,0.2385859489440918,1.585909128189087,0.34792174618296484,16.0,101.0
G,D,"[4, 4]",-1.0,-3.0,0.26561713218688965,1.548516035079956,0.2633473539209695,16.0,102.0
,,"(3, 3)",,,,,,16.0,
Y,R,"[3, 4]",-1.0,-1.0,0.8072011470794678,3.371894121170044,0.4852628624063849,,103.0
R,U,"[2, 4]",-1.0,-2.0,0.6361050605773926,2.215839147567749,0.5674194749260861,17.0,104.0
Y,R,"[2, 5]",-1.0,-3.0,0.2868969440460205,1.557447910308838,0.2751512598954687,17.0,105.0
G,D,"[3, 5]",-1.0,-4.0,0.2247610092163086,1.6898589134216309,0.4648505198423996,17.0,106.0
B,L,"[3, 4]",0.0,-4.0,0.23465394973754883,1.991528034210205,0.739563727530851,17.0,107.0
B,L,"[3, 3]",0.0,-4.0,0.9176409244537354,2.504268169403076,0.5939916188893646,17.0,108.0
,,"(3, 3)",,,,,,17.0,
B,L,"[3, 2]",1.0,1.0,0.46954989433288574,2.7098641395568848,0.3373749016395862,,109.0
B,L,"[3, 1]",-2.0,1.0,1.2059500217437744,2.710469961166382,0.4646639792005625,18.0,110.0
B,L,"[3, 0]",0.0,1.0,0.24248600006103516,1.5822169780731201,0.33016806040525054,18.0,111.0
R,U,"[2, 0]",0.0,1.0,0.22002601623535156,1.4901270866394043,0.2704142718899181,18.0,112.0
R,U,"[1, 0]",0.0,1.0,0.5107779502868652,2.1725831031799316,0.6592556601427783,18.0,113.0
B,L,"[1, 0]",0.0,1.0,0.8571300506591797,2.2135400772094727,0.3565766117450803,18.0,114.0
,,"(3, 3)",,,,,,18.0,
B,L,"[3, 2]",1.0,1.0,0.4910740852355957,3.017683982849121,0.457464644258966,,115.0
R,U,"[2, 2]",1.0,2.0,0.22301602363586426,1.6465260982513428,0.4207236246766221,19.0,116.0
B,L,"[2, 1]",1.0,3.0,0.22504806518554688,1.62251615524292,0.39339387203742054,19.0,117.0
B,L,"[2, 0]",0.0,3.0,0.2694079875946045,1.7711451053619385,0.4977750694397693,19.0,118.0
R,U,"[1, 0]",0.0,3.0,0.21432995796203613,1.5391480922698975,0.32044792910656467,19.0,119.0
B,L,"[1, 0]",0.0,3.0,0.37390995025634766,2.106919050216675,0.7269587191400227,19.0,120.0
,,"(3, 3)",,,,,,19.0,
B,L,"[3, 2]",1.0,1.0,0.4836709499359131,2.733520030975342,0.2942770154398813,,121.0
R,U,"[2, 2]",1.0,2.0,0.23383808135986328,1.5396971702575684,0.30076026866899225,20.0,122.0
B,L,"[2, 1]",1.0,3.0,0.22827410697937012,1.5816400051116943,0.3489835763888147,20.0,123.0
R,U,"[1, 1]",-1.0,2.0,0.19948816299438477,1.797421932220459,0.5795194050903448,20.0,124.0
B,L,"[1, 0]",-2.0,2.0,1.0616111755371094,2.7203409671783447,0.6166168747361443,20.0,125.0
B,L,"[1, 0]",0.0,2.0,0.2460308074951172,1.6536660194396973,0.4037363588147375,20.0,126.0
,,"(3, 3)",,,,,,20.0,
B,L,"[3, 2]",1.0,1.0,0.48560094833374023,3.267171859741211,0.7040900279996094,,127.0
R,U,"[2, 2]",1.0,2.0,0.4074668884277344,1.8379850387573242,0.4256613702385867,21.0,128.0
B,L,"[2, 1]",1.0,3.0,0.24718213081359863,1.6849110126495361,0.4439735303752125,21.0,129.0
R,U,"[1, 1]",-1.0,2.0,0.4469418525695801,1.9486229419708252,0.49247808504930507,21.0,130.0
B,L,"[1, 0]",0.0,2.0,0.2092740535736084,1.5047919750213623,0.29761516059251353,21.0,131.0
B,L,"[1, 0]",0.0,2.0,0.8903498649597168,2.432681083679199,0.5300238091604337,21.0,132.0
,,"(3, 3)",,,,,,21.0,
B,L,"[3, 2]",-2.0,0.0,1.4499781131744385,3.7994821071624756,0.2797030501504834,,133.0
B,L,"[3, 1]",1.0,1.0,0.27297520637512207,1.7552599906921387,0.48496311359542155,22.0,134.0
R,U,"[2, 1]",1.0,2.0,0.2584710121154785,1.7208528518676758,0.4558430756643944,22.0,135.0
B,L,"[2, 0]",0.0,2.0,0.23285698890686035,1.4825568199157715,0.25532885279888473,22.0,136.0
B,L,"[2, 0]",0.0,2.0,0.34253692626953125,1.7175579071044922,0.3726509292329999,22.0,137.0
R,U,"[1, 0]",0.0,2.0,0.33423686027526855,1.8203871250152588,0.4929426156853214,22.0,138.0
,,"(3, 3)",,,,,,22.0,
B,L,"[3, 2]",-2.0,0.0,1.7578039169311523,4.341231107711792,0.4178394888605902,,139.0
B,L,"[3, 1]",1.0,1.0,0.2646980285644531,1.62471604347229,0.3424851232059565,23.0,140.0
R,U,"[2, 1]",1.0,2.0,0.339832067489624,1.6057460308074951,0.264954746526828,23.0,141.0
B,L,"[2, 0]",0.0,2.0,0.2430100440979004,1.6163389682769775,0.36458560381937616,23.0,142.0
B,L,"[2, 0]",0.0,2.0,0.3705911636352539,1.7496099472045898,0.38089388716301464,23.0,143.0
R,U,"[1, 0]",0.0,2.0,0.2376880645751953,1.5354390144348145,0.29989572088704214,23.0,144.0
,,"(3, 3)",,,,,,23.0,
B,L,"[3, 2]",1.0,1.0,0.8554930686950684,3.60646390914917,0.6892887615939505,,145.0
R,U,"[2, 2]",1.0,2.0,0.289625883102417,1.56272292137146,0.26890316626998445,24.0,146.0
B,L,"[2, 1]",1.0,3.0,0.32877612113952637,1.8814160823822021,0.5502459143123652,24.0,147.0
B,L,"[2, 0]",0.0,3.0,0.27068090438842773,1.6012728214263916,0.31843680490669124,24.0,148.0
R,U,"[1, 0]",0.0,3.0,0.2115459442138672,1.9273710250854492,0.7120811487063912,24.0,149.0
B,L,"[1, 0]",0.0,3.0,0.23426103591918945,1.5472018718719482,0.3265784236883533,24.0,150.0
,,"(3, 3)",,,,,,24.0,
B,L,"[3, 2]",1.0,1.0,0.8122351169586182,2.9570629596710205,0.28344087714858457,,151.0
R,U,"[2, 2]",1.0,2.0,0.2613699436187744,2.001084089279175,0.7342916387630306,25.0,152.0
B,L,"[2, 1]",1.0,3.0,0.25647902488708496,1.6635022163391113,0.39808816305264977,25.0,153.0
B,L,"[2, 0]",0.0,3.0,0.2679731845855713,1.6847760677337646,0.3995295480096397,25.0,154.0
R,U,"[1, 0]",0.0,3.0,0.183027982711792,1.6549289226531982,0.4711301132518868,25.0,155.0
B,L,"[1, 0]",0.0,3.0,0.2346351146697998,1.4993739128112793,0.2705980957490951,25.0,156.0
,,"(3, 3)",,,,,,25.0,
B,L,"[3, 2]",1.0,1.0,0.6430201530456543,2.993411064147949,0.3640825585638152,,157.0
R,U,"[2, 2]",1.0,2.0,0.21573901176452637,1.7149128913879395,0.49559650801576416,26.0,158.0
B,L,"[2, 1]",1.0,3.0,0.21122002601623535,1.9207921028137207,0.7161184844381578,26.0,159.0
B,L,"[2, 0]",0.0,3.0,0.19075393676757812,1.7897531986236572,0.5893790220924686,26.0,160.0
R,U,"[1, 0]",0.0,3.0,0.24071812629699707,1.670485019683838,0.4267383448718606,26.0,161.0
B,L,"[1, 0]",0.0,3.0,0.2609100341796875,1.9213430881500244,0.6645480982661605,26.0,162.0
,,"(3, 3)",,,,,,26.0,
B,L,"[3, 2]",1.0,1.0,0.8697419166564941,2.806427001953125,0.42128926353796003,,163.0
R,U,"[2, 2]",1.0,2.0,0.1836860179901123,1.8943541049957275,0.6987222064760823,27.0,164.0
B,L,"[2, 1]",1.0,3.0,0.18306899070739746,1.5465171337127686,0.34556741414851566,27.0,165.0
B,L,"[2, 0]",0.0,3.0,0.29488396644592285,1.7878329753875732,0.49988781351660777,27.0,166.0
R,U,"[1, 0]",0.0,3.0,0.1974048614501953,1.6670429706573486,0.4670646558177845,27.0,167.0
B,L,"[1, 0]",0.0,3.0,0.12186694145202637,1.6610980033874512,0.5281865652476394,27.0,168.0
,,"(3, 3)",,,,,,27.0,
B,L,"[3, 2]",1.0,1.0,0.8257720470428467,2.7017698287963867,0.496634004163975,,169.0
R,U,"[2, 2]",1.0,2.0,0.21552515029907227,1.7445030212402344,0.524425171177306,28.0,170.0
B,L,"[2, 1]",1.0,3.0,0.11512112617492676,1.3899168968200684,0.28129682949008405,28.0,171.0
B,L,"[2, 0]",0.0,3.0,0.23816299438476562,1.5707318782806396,0.3187046106592654,28.0,172.0
R,U,"[1, 0]",0.0,3.0,0.15351104736328125,1.877107858657837,0.7288228032786452,28.0,173.0
B,L,"[1, 0]",0.0,3.0,0.3998901844024658,1.8775739669799805,0.48999009990791664,28.0,174.0
,,"(3, 3)",,,,,,28.0,
B,L,"[3, 2]",1.0,1.0,0.6772840023040771,3.1055681705474854,0.5624510377859199,,175.0
R,U,"[2, 2]",1.0,2.0,0.2958700656890869,1.9930579662322998,0.705072610001425,29.0,176.0
B,L,"[2, 1]",1.0,3.0,0.21788597106933594,1.6967799663543701,0.46890592872006553,29.0,177.0
B,L,"[2, 0]",0.0,3.0,0.3207390308380127,1.883225917816162,0.5519829317719407,29.0,178.0
R,U,"[1, 0]",0.0,3.0,0.2575819492340088,1.6332919597625732,0.368852742491677,29.0,179.0
B,L,"[1, 0]",0.0,3.0,0.24970793724060059,1.6451008319854736,0.3972470506098032,29.0,180.0
,,"(3, 3)",,,,,,29.0,
B,L,"[3, 2]",1.0,1.0,0.6935341358184814,2.7988009452819824,0.3461342696286893,,181.0
R,U,"[2, 2]",1.0,2.0,0.2154397964477539,1.5396771430969238,0.3357748850760284,30.0,182.0
B,L,"[2, 1]",1.0,3.0,0.20816397666931152,1.5242350101470947,0.3101679969592786,30.0,183.0
B,L,"[2, 0]",0.0,3.0,0.294421911239624,1.591440200805664,0.3015957551229451,30.0,184.0
R,U,"[1, 0]",0.0,3.0,0.22563505172729492,1.8530259132385254,0.6209620205961642,30.0,185.0
B,L,"[1, 0]",0.0,3.0,0.2146320343017578,1.5031490325927734,0.29125460936744324,30.0,186.0
,,"(3, 3)",,,,,,30.0,
B,L,"[3, 2]",1.0,1.0,0.6418290138244629,2.6476778984069824,0.5720192751353101,,187.0
R,U,"[2, 2]",1.0,2.0,0.2198500633239746,1.8640539646148682,0.6358960879705571,31.0,188.0
B,L,"[2, 1]",1.0,3.0,0.20415282249450684,1.681044101715088,0.46722108573593135,31.0,189.0
B,L,"[2, 0]",0.0,3.0,0.27515602111816406,1.72993803024292,0.44716382444070424,31.0,190.0
R,U,"[1, 0]",0.0,3.0,0.22277307510375977,1.8998911380767822,0.663488101114742,31.0,191.0
B,L,"[1, 0]",0.0,3.0,0.2266252040863037,1.5833561420440674,0.34731446645243963,31.0,192.0
,,"(3, 3)",,,,,,31.0,
B,L,"[3, 2]",1.0,1.0,0.6617109775543213,2.3130218982696533,0.29372221006252897,,193.0
R,U,"[2, 2]",1.0,2.0,0.25266098976135254,1.9103310108184814,0.6536642162591646,32.0,194.0
B,L,"[2, 1]",1.0,3.0,0.19604706764221191,1.6093690395355225,0.4132918973266309,32.0,195.0
B,L,"[2, 0]",0.0,3.0,0.2573668956756592,1.6757009029388428,0.40582591905207344,32.0,196.0
R,U,"[1, 0]",0.0,3.0,0.22772717475891113,1.9757168292999268,0.7478153930983492,32.0,197.0
B,L,"[1, 0]",0.0,3.0,0.20443511009216309,1.8880138397216797,0.6858825904742906,32.0,198.0
,,"(3, 3)",,,,,,32.0,
B,L,"[3, 2]",1.0,1.0,0.6848158836364746,2.493086814880371,0.3295086127495036,,199.0
R,U,"[2, 2]",1.0,2.0,0.21181106567382812,1.6182188987731934,0.4140577758693663,33.0,200.0
B,L,"[2, 1]",1.0,3.0,0.22847819328308105,1.8875949382781982,0.6515962454223809,33.0,201.0
B,L,"[2, 0]",0.0,3.0,0.21755695343017578,1.6462030410766602,0.4147542386495571,33.0,202.0
R,U,"[1, 0]",0.0,3.0,0.21437311172485352,1.5295298099517822,0.3109993279674461,33.0,203.0
B,L,"[1, 0]",0.0,3.0,0.24188804626464844,1.8975780010223389,0.6584371628500003,33.0,204.0
,,"(3, 3)",,,,,,33.0,
B,L,"[3, 2]",1.0,1.0,0.6795260906219482,2.529813051223755,0.5216793104510433,,205.0
R,U,"[2, 2]",1.0,2.0,0.2115039825439453,1.9146599769592285,0.7029367353787519,34.0,206.0
B,L,"[2, 1]",-1.0,2.0,0.008680105209350586,5.481662034988403,0.351612434082311,34.0,207.0
B,L,"[2, 0]",0.0,2.0,0.3058459758758545,1.6390190124511719,0.32408341051929546,34.0,208.0
B,L,"[2, 0]",0.0,2.0,0.34744811058044434,2.016798973083496,0.6737910653235384,34.0,209.0
R,U,"[1, 0]",0.0,2.0,0.4148430824279785,2.029268980026245,0.6198403011739071,34.0,210.0
,,"(3, 3)",,,,,,34.0,
B,L,"[3, 2]",-2.0,0.0,1.1252710819244385,4.477787971496582,0.4976484387493664,,211.0
B,L,"[3, 1]",1.0,1.0,0.22844505310058594,1.5031569004058838,0.2680063141019098,35.0,212.0
R,U,"[2, 1]",1.0,2.0,0.2832350730895996,1.9775710105895996,0.6783915869772148,35.0,213.0
B,L,"[2, 0]",0.0,2.0,0.2949399948120117,1.6443750858306885,0.3564875450795616,35.0,214.0
B,L,"[2, 0]",0.0,2.0,0.28983283042907715,1.7918710708618164,0.4983605283050946,35.0,215.0
R,U,"[1, 0]",0.0,2.0,0.24217510223388672,1.6501169204711914,0.39862140776271204,35.0,216.0
,,"(3, 3)",,,,,,35.0,
B,L,"[3, 2]",1.0,1.0,0.9108030796051025,4.218441009521484,0.6168540523930521,,217.0
R,U,"[2, 2]",1.0,2.0,0.2656071186065674,1.5823018550872803,0.3160084425185868,36.0,218.0
B,L,"[2, 1]",1.0,3.0,0.308182954788208,1.7493808269500732,0.4321432575638859,36.0,219.0
B,L,"[2, 0]",0.0,3.0,0.27347493171691895,2.0346479415893555,0.749802738257836,36.0,220.0
R,U,"[1, 0]",0.0,3.0,0.3011147975921631,1.665497064590454,0.3657163319578117,36.0,221.0
B,L,"[1, 0]",0.0,3.0,0.5853760242462158,1.9561350345611572,0.37171572511849277,36.0,222.0
,,"(3, 3)",,,,,,36.0,
B,L,"[3, 2]",1.0,1.0,0.9392669200897217,3.4217190742492676,0.3104076975486481,,223.0
B,L,"[3, 1]",1.0,2.0,0.388887882232666,1.8868980407714844,0.4969659353618831,37.0,224.0
R,U,"[2, 1]",1.0,3.0,0.24994492530822754,1.8929388523101807,0.6231328585532382,37.0,225.0
B,L,"[2, 0]",-1.0,3.0,0.04892897605895996,5.8637378215789795,0.6870147702537415,37.0,226.0
B,L,"[2, 0]",0.0,3.0,0.28023791313171387,1.8059120178222656,0.5262942354244258,37.0,227.0
R,U,"[1, 0]",-2.0,3.0,1.0133171081542969,2.7335219383239746,0.6931520597192866,37.0,228.0
,,"(3, 3)",,,,,,37.0,
B,L,"[3, 2]",-2.0,0.0,1.301393985748291,4.557138919830322,0.5005478950724649,,229.0
B,L,"[3, 1]",1.0,1.0,0.26447582244873047,1.7300090789794922,0.4474074339889483,38.0,230.0
R,U,"[2, 1]",1.0,2.0,0.4322969913482666,2.1233320236206055,0.6704223228776804,38.0,231.0
B,L,"[2, 0]",0.0,2.0,0.3085649013519287,1.6303558349609375,0.31785163505839464,38.0,232.0
G,D,"[3, 0]",0.0,2.0,0.5502820014953613,2.264976978302002,0.7158119425142353,38.0,233.0
B,L,"[3, 0]",0.0,2.0,0.5866198539733887,2.26790714263916,0.6837339143093126,38.0,234.0
,,"(3, 3)",,,,,,38.0,
B,L,"[3, 2]",1.0,1.0,0.8384370803833008,3.293412923812866,0.4444577976211235,,235.0
R,U,"[2, 2]",1.0,2.0,0.40894603729248047,2.1531200408935547,0.746903364393599,39.0,236.0
B,L,"[2, 1]",1.0,3.0,0.35921597480773926,2.0943689346313477,0.7247722369229046,39.0,237.0
G,D,"[3, 1]",1.0,4.0,0.42696690559387207,1.9759511947631836,0.5510896253647957,39.0,238.0
Y,R,"[3, 2]",0.0,4.0,0.6169569492340088,2.1426310539245605,0.5102712455860223,39.0,239.0
B,L,"[3, 1]",0.0,4.0,0.7505970001220703,2.3464109897613525,0.6067018377882407,39.0,240.0
,,"(3, 3)",,,,,,39.0,
B,L,"[3, 2]",1.0,1.0,0.9601969718933105,3.7276339530944824,0.6012890787739205,,241.0
R,U,"[2, 2]",1.0,2.0,0.4124259948730469,1.984694004058838,0.5691431086244492,40.0,242.0
B,L,"[2, 1]",1.0,3.0,0.36923909187316895,2.0985360145568848,0.7339802381137851,40.0,243.0
G,D,"[3, 1]",1.0,4.0,0.4622011184692383,1.904831886291504,0.4392162214136836,40.0,244.0
B,L,"[3, 0]",0.0,4.0,0.5873050689697266,2.040102005004883,0.4460478430097679,40.0,245.0
R,U,"[2, 0]",0.0,4.0,0.36951684951782227,1.8139030933380127,0.4433364848060924,40.0,246.0
,,"(3, 3)",,,,,,40.0,
B,L,"[3, 2]",1.0,1.0,0.9993970394134521,3.4902749061584473,0.5835724320704612,,247.0
R,U,"[2, 2]",1.0,2.0,0.3385617733001709,1.9360299110412598,0.5863692433722127,41.0,248.0
B,L,"[2, 1]",1.0,3.0,0.5254437923431396,1.9672479629516602,0.4370069809238294,41.0,249.0
G,D,"[3, 1]",1.0,4.0,0.3926889896392822,2.0745558738708496,0.678097562070419,41.0,250.0
R,U,"[2, 1]",0.0,4.0,0.3432431221008301,2.0373499393463135,0.6987116209364601,41.0,251.0
Y,R,"[2, 2]",0.0,4.0,0.31429100036621094,1.7263450622558594,0.4087482960512056,41.0,252.0
,,"(3, 3)",,,,,,41.0,
B,L,"[3, 2]",1.0,1.0,0.6863598823547363,2.9842581748962402,0.4930707938416717,,253.0
R,U,"[2, 2]",1.0,2.0,0.29619908332824707,1.686387062072754,0.39617551091317443,42.0,254.0
B,L,"[2, 1]",1.0,3.0,0.4779820442199707,2.0442869663238525,0.5735755624718678,42.0,255.0
G,D,"[3, 1]",1.0,4.0,0.34903597831726074,1.775170087814331,0.4156943563379598,42.0,256.0
Y,R,"[3, 2]",0.0,4.0,0.3387949466705322,1.69395112991333,0.34300844964676425,42.0,257.0
B,L,"[3, 1]",0.0,4.0,0.39153122901916504,1.73842191696167,0.3482009874361167,42.0,258.0
,,"(3, 3)",,,,,,42.0,
B,L,"[3, 2]",1.0,1.0,0.8564000129699707,2.932234048843384,0.3470904400481155,,259.0
R,U,"[2, 2]",1.0,2.0,0.3243410587310791,1.6442859172821045,0.3081922876931268,43.0,260.0
B,L,"[2, 1]",1.0,3.0,0.3390340805053711,1.8513720035552979,0.5092008338986274,43.0,261.0
G,D,"[3, 1]",1.0,4.0,0.2912900447845459,1.6192140579223633,0.3286639469356153,43.0,262.0
G,D,"[4, 1]",-1.0,3.0,0.3924860954284668,2.1371641159057617,0.7489187849283256,43.0,263.0
B,L,"[4, 0]",0.0,3.0,0.305711030960083,1.852971076965332,0.5353933207097517,43.0,264.0
,,"(3, 3)",,,,,,43.0,
B,L,"[3, 2]",1.0,1.0,0.6484038829803467,3.11393404006958,0.2995864657929466,,265.0
R,U,"[2, 2]",1.0,2.0,0.31037211418151855,1.814880132675171,0.49761189761341396,44.0,266.0
B,L,"[2, 1]",1.0,3.0,0.4144768714904785,2.0742571353912354,0.638420788289781,44.0,267.0
G,D,"[3, 1]",1.0,4.0,0.9429221153259277,2.6182899475097656,0.6734430601486536,44.0,268.0
R,U,"[2, 1]",0.0,4.0,0.5273010730743408,2.0537898540496826,0.5272885695641405,44.0,269.0
B,L,"[2, 0]",0.0,4.0,0.26921892166137695,1.9162800312042236,0.6602764566704545,44.0,270.0
,,"(3, 3)",,,,,,44.0,
B,L,"[3, 2]",1.0,1.0,0.6963789463043213,2.7992899417877197,0.3100079248185873,,271.0
R,U,"[2, 2]",1.0,2.0,0.3348219394683838,1.7683179378509521,0.44479728867693746,45.0,272.0
B,L,"[2, 1]",1.0,3.0,0.26932692527770996,1.8423950672149658,0.5704289304767425,45.0,273.0
G,D,"[3, 1]",1.0,4.0,0.351499080657959,1.843102216720581,0.49701112035163075,45.0,274.0
B,L,"[3, 0]",0.0,4.0,0.4935760498046875,2.0452940464019775,0.5423819166895227,45.0,275.0
Y,R,"[3, 1]",0.0,4.0,0.532318115234375,1.898447036743164,0.3744442020571868,45.0,276.0
,,"(3, 3)",,,,,,45.0,
B,L,"[3, 2]",1.0,1.0,0.6924078464508057,2.460134983062744,0.2511861433118473,,277.0
R,U,"[2, 2]",1.0,2.0,0.35665082931518555,1.9401350021362305,0.5743028366175966,46.0,278.0
B,L,"[2, 1]",1.0,3.0,0.29328203201293945,1.776242971420288,0.48408840144290627,46.0,279.0
G,D,"[3, 1]",1.0,4.0,0.27499890327453613,1.9058051109313965,0.6230583381823432,46.0,280.0
B,L,"[3, 0]",0.0,4.0,0.22932195663452148,1.6413218975067139,0.41471804988921174,46.0,281.0
B,L,"[3, 0]",0.0,4.0,0.3323090076446533,1.846142053604126,0.5107049857423044,46.0,282.0
,,"(3, 3)",,,,,,46.0,
B,L,"[3, 2]",1.0,1.0,0.7666001319885254,3.051697015762329,0.44584548269305074,,283.0
R,U,"[2, 2]",1.0,2.0,0.25534892082214355,1.6651849746704102,0.4111100926292489,47.0,284.0
B,L,"[2, 1]",1.0,3.0,0.2885298728942871,1.5577499866485596,0.26897860200880386,47.0,285.0
G,D,"[3, 1]",1.0,4.0,0.33812999725341797,1.5854880809783936,0.2546620254482404,47.0,286.0
Y,R,"[3, 2]",0.0,4.0,0.6354761123657227,2.221585988998413,0.575963750552758,47.0,287.0
B,L,"[3, 1]",0.0,4.0,0.22991204261779785,1.9600830078125,0.7357359092503012,47.0,288.0
,,"(3, 3)",,,,,,47.0,
B,L,"[3, 2]",1.0,1.0,0.5593199729919434,2.8883659839630127,0.47437524074782716,,289.0
R,U,"[2, 2]",1.0,2.0,0.28922414779663086,1.6040141582489014,0.3120928671838508,48.0,290.0
B,L,"[2, 1]",1.0,3.0,0.3309910297393799,1.7802059650421143,0.4587023764034957,48.0,291.0
G,D,"[3, 1]",1.0,4.0,0.21882009506225586,1.843256950378418,0.6185263411725898,48.0,292.0
B,L,"[3, 0]",0.0,4.0,0.32389020919799805,1.7237670421600342,0.39257144787422793,48.0,293.0
B,L,"[3, 0]",0.0,4.0,0.2834029197692871,1.9545960426330566,0.6802190256595955,48.0,294.0
,,"(3, 3)",,,,,,48.0,
B,L,"[3, 2]",1.0,1.0,0.6781070232391357,2.533219814300537,0.3639851760364475,,295.0
R,U,"[2, 2]",1.0,2.0,0.26636481285095215,1.9179790019989014,0.6316098351341377,49.0,296.0
B,L,"[2, 1]",1.0,3.0,0.2680199146270752,1.6237208843231201,0.33895894116436487,49.0,297.0
G,D,"[3, 1]",1.0,4.0,0.4711649417877197,1.8642230033874512,0.38643293039901927,49.0,298.0
R,U,"[2, 1]",-2.0,4.0,1.137624979019165,2.722148895263672,0.5584812499453768,49.0,299.0
R,U,"[1, 1]",-1.0,3.0,0.2961900234222412,1.9953680038452148,0.6871672205891666,49.0,300.0
,,"(3, 3)",,,,,,49.0,
B,L,"[3, 2]",-2.0,0.0,2.134127140045166,4.643908977508545,0.3150831201766347,,301.0
B,L,"[3, 1]",1.0,1.0,0.2432260513305664,1.6183960437774658,0.36644857014067267,50.0,302.0
R,U,"[2, 1]",1.0,2.0,0.2934691905975342,1.590203046798706,0.2568254011626798,50.0,303.0
B,L,"[2, 0]",0.0,2.0,0.2997112274169922,2.031337022781372,0.7376836100994952,50.0,304.0
G,D,"[3, 0]",0.0,2.0,0.2493908405303955,1.8348259925842285,0.589443489120089,50.0,305.0
B,L,"[3, 0]",0.0,2.0,0.2150430679321289,1.6143598556518555,0.4039660828086366,50.0,306.0
,,"(3, 3)",,,,,,50.0,
B,L,"[3, 2]",1.0,1.0,0.7233991622924805,3.0843279361724854,0.28844471859426385,,307.0
R,U,"[2, 2]",1.0,2.0,0.3182189464569092,1.7124240398406982,0.3840585073100719,51.0,308.0
B,L,"[2, 1]",1.0,3.0,0.27531003952026367,1.7167479991912842,0.4342017797616843,51.0,309.0
G,D,"[3, 1]",1.0,4.0,0.28070592880249023,1.9950470924377441,0.7125189341528849,51.0,310.0
Y,R,"[3, 2]",0.0,4.0,0.22125482559204102,1.7542760372161865,0.5002722304799894,51.0,311.0
B,L,"[3, 1]",0.0,4.0,0.2310199737548828,1.9448530673980713,0.7114921823625464,51.0,312.0
,,"(3, 3)",,,,,,51.0,
B,L,"[3, 2]",-2.0,0.0,1.0164361000061035,3.415860176086426,0.6111408215297469,,313.0
B,L,"[3, 1]",1.0,1.0,0.2340390682220459,1.489428997039795,0.2507772229820139,52.0,314.0
R,U,"[2, 1]",1.0,2.0,0.25504493713378906,2.0113298892974854,0.744872468357842,52.0,315.0
B,L,"[2, 0]",0.0,2.0,0.21528005599975586,1.6809108257293701,0.476137206419157,52.0,316.0
G,D,"[3, 0]",0.0,2.0,0.2279949188232422,1.7152650356292725,0.49149131835644694,52.0,317.0
B,L,"[3, 0]",0.0,2.0,0.23265695571899414,1.6029350757598877,0.37770688646094547,52.0,318.0
,,"(3, 3)",,,,,,52.0,
B,L,"[3, 2]",1.0,1.0,0.7129170894622803,3.490118980407715,0.6176263595871361,,319.0
R,U,"[2, 2]",1.0,2.0,0.23892998695373535,1.9023680686950684,0.6535059253007851,53.0,320.0
B,L,"[2, 1]",1.0,3.0,0.24753403663635254,1.7412798404693604,0.4780929382789758,53.0,321.0
G,D,"[3, 1]",1.0,4.0,0.2812979221343994,1.732038974761963,0.4601703519223007,53.0,322.0
B,L,"[3, 0]",0.0,4.0,0.28597593307495117,1.9697229862213135,0.679803267076028,53.0,323.0
Y,R,"[3, 1]",0.0,4.0,0.21088886260986328,1.8365960121154785,0.6165147085088526,53.0,324.0
,,"(3, 3)",,,,,,53.0,
G,D,"[4, 3]",-1.0,-1.0,0.6952328681945801,2.617445945739746,0.5172680536930083,,325.0
B,L,"[4, 2]",-1.0,-2.0,0.3961210250854492,1.8561508655548096,0.4570583275437378,54.0,326.0
Y,R,"[4, 3]",0.0,-2.0,0.23724603652954102,1.9701390266418457,0.7268820431267535,54.0,327.0
R,U,"[3, 3]",0.0,-2.0,0.22228598594665527,1.5292949676513672,0.3067503036731125,54.0,328.0
B,L,"[3, 2]",-2.0,-2.0,2.3372931480407715,3.964798927307129,0.6046630778466756,54.0,329.0
B,L,"[3, 1]",1.0,-1.0,0.2774209976196289,1.8487329483032227,0.5535053466329722,54.0,330.0
,,"(3, 3)",,,,,,54.0,
Y,R,"[3, 4]",-1.0,-1.0,0.6289291381835938,5.408464193344116,0.6285163913563647,,331.0
B,L,"[3, 3]",0.0,-1.0,0.23676514625549316,1.7386090755462646,0.5004342419759084,55.0,332.0
R,U,"[2, 3]",-1.0,-2.0,0.22694802284240723,1.5498409271240234,0.317342474837904,55.0,333.0
B,L,"[2, 2]",1.0,-1.0,0.4828760623931885,2.0638909339904785,0.5644283158124359,55.0,334.0
G,D,"[3, 2]",1.0,0.0,0.23417901992797852,1.6804730892181396,0.4283745167810423,55.0,335.0
Y,R,"[3, 3]",0.0,0.0,0.3925750255584717,1.8290221691131592,0.4406482510903215,55.0,336.0
,,"(3, 3)",,,,,,55.0,
R,U,"[2, 3]",-2.0,0.0,2.0447068214416504,4.458523988723755,0.6655284954812117,,337.0
R,U,"[1, 3]",1.0,1.0,0.2610440254211426,1.9922690391540527,0.7245564448551385,56.0,338.0
B,L,"[1, 2]",1.0,2.0,0.2889089584350586,1.7284321784973145,0.43665188380328895,56.0,339.0
R,U,"[0, 2]",0.0,2.0,0.6422619819641113,2.1031298637390137,0.45644065311503323,56.0,340.0
B,L,"[0, 1]",0.0,2.0,0.38452792167663574,1.6325068473815918,0.2559983012852636,56.0,341.0
G,D,"[1, 1]",-1.0,1.0,0.2850620746612549,1.930860996246338,0.636427892842027,56.0,342.0
,,"(3, 3)",,,,,,56.0,
R,U,"[2, 3]",-2.0,0.0,1.6005921363830566,4.016229152679443,0.36975585134618766,,343.0
G,D,"[3, 3]",0.0,0.0,0.7522461414337158,2.0989840030670166,0.33541974479160763,57.0,344.0
B,L,"[3, 2]",1.0,1.0,0.2775909900665283,1.6615209579467773,0.38027848782507717,57.0,345.0
R,U,"[2, 2]",1.0,2.0,0.22872710227966309,1.5501859188079834,0.31375965006885764,57.0,346.0
B,L,"[2, 1]",1.0,3.0,0.26585817337036133,1.7547388076782227,0.4684040575377377,57.0,347.0
G,D,"[3, 1]",1.0,4.0,0.27495718002319336,1.7460150718688965,0.46443930350809026,57.0,348.0
,,"(3, 3)",,,,,,57.0,
R,U,"[2, 3]",-2.0,0.0,1.2387299537658691,3.7105319499969482,0.3587264425549241,,349.0
R,U,"[1, 3]",1.0,1.0,0.3909599781036377,1.7000019550323486,0.3085643589211133,58.0,350.0
B,L,"[1, 2]",1.0,2.0,0.25722813606262207,1.9025518894195557,0.6440664922637109,58.0,351.0
G,D,"[2, 2]",1.0,3.0,0.26921701431274414,1.7841408252716064,0.5282896462260493,58.0,352.0
B,L,"[2, 1]",1.0,4.0,0.23684310913085938,1.557546854019165,0.31963580868556224,58.0,353.0
R,U,"[1, 1]",-1.0,3.0,0.2874581813812256,1.7617900371551514,0.46453795334364173,58.0,354.0
,,"(3, 3)",,,,,,58.0,
B,L,"[3, 2]",1.0,1.0,0.6727581024169922,3.336199998855591,0.5173448032134215,,355.0
R,U,"[2, 2]",1.0,2.0,0.3024749755859375,1.6812050342559814,0.3654803605031293,59.0,356.0
B,L,"[2, 1]",1.0,3.0,0.28119397163391113,1.7488048076629639,0.464243175277219,59.0,357.0
G,D,"[3, 1]",1.0,4.0,0.2093219757080078,1.5332438945770264,0.3141416319698979,59.0,358.0
B,L,"[3, 0]",0.0,4.0,0.23108911514282227,1.5502288341522217,0.3145386528671524,59.0,359.0
Y,R,"[3, 1]",0.0,4.0,0.20026898384094238,1.862293004989624,0.6598720191618075,59.0,360.0
,,"(3, 3)",,,,,,59.0,
B,L,"[3, 2]",1.0,1.0,0.7211921215057373,2.695106029510498,0.5720444879449846,,361.0
R,U,"[2, 2]",1.0,2.0,0.25441980361938477,1.9687230587005615,0.7070686705641942,60.0,362.0
B,L,"[2, 1]",-1.0,2.0,0.01740288734436035,5.762211084365845,0.6194545750830089,60.0,363.0
G,D,"[3, 1]",1.0,3.0,0.3231689929962158,1.94809889793396,0.6174380838050231,60.0,364.0
B,L,"[3, 0]",0.0,3.0,0.26408910751342773,1.6217479705810547,0.35633289526521683,60.0,365.0
R,U,"[2, 0]",0.0,3.0,0.4385402202606201,1.8654141426086426,0.42162181666556475,60.0,366.0
,,"(3, 3)",,,,,,60.0,
B,L,"[3, 2]",1.0,1.0,0.6575310230255127,3.081674098968506,0.5367702520692907,,367.0
R,U,"[2, 2]",1.0,2.0,0.22366094589233398,1.721911907196045,0.491925584274169,61.0,368.0
B,L,"[2, 1]",1.0,3.0,0.23027491569519043,1.5493199825286865,0.32474755244004994,61.0,369.0
G,D,"[3, 1]",1.0,4.0,0.3031959533691406,1.9373810291290283,0.6284592513366485,61.0,370.0
B,L,"[3, 0]",0.0,4.0,0.23300695419311523,1.6140429973602295,0.37612011906014103,61.0,371.0
B,L,"[3, 0]",0.0,4.0,0.21435189247131348,1.4882638454437256,0.28125196300353683,61.0,372.0
,,"(3, 3)",,,,,,61.0,
B,L,"[3, 2]",1.0,1.0,0.7726819515228271,2.876584768295288,0.49094442127875176,,373.0
R,U,"[2, 2]",1.0,2.0,0.22179794311523438,1.869649887084961,0.6436791983995795,62.0,374.0
B,L,"[2, 1]",1.0,3.0,0.3070399761199951,1.833791971206665,0.5278451219250544,62.0,375.0
G,D,"[3, 1]",1.0,4.0,0.3038039207458496,1.5857570171356201,0.2971132681232707,62.0,376.0
G,D,"[4, 1]",-1.0,3.0,0.411761999130249,2.1733977794647217,0.7367480417042955,62.0,377.0
B,L,"[4, 0]",0.0,3.0,0.22626781463623047,1.6210780143737793,0.39164920151950994,62.0,378.0
,,"(3, 3)",,,,,,62.0,
B,L,"[3, 2]",1.0,1.0,0.9152791500091553,3.803828001022339,0.7451376766975005,,379.0
R,U,"[2, 2]",1.0,2.0,0.2686779499053955,1.5700209140777588,0.2990680506700243,63.0,380.0
B,L,"[2, 1]",1.0,3.0,0.2956671714782715,1.5939850807189941,0.2929287673356587,63.0,381.0
G,D,"[3, 1]",1.0,4.0,0.24533510208129883,1.7337331771850586,0.49317456573659907,63.0,382.0
R,U,"[2, 1]",0.0,4.0,0.6780910491943359,1.9250741004943848,0.25176302153362123,63.0,383.0
R,U,"[1, 1]",-1.0,3.0,0.23868799209594727,1.6284770965576172,0.3802056135082272,63.0,384.0
,,"(3, 3)",,,,,,63.0,
B,L,"[3, 2]",1.0,1.0,0.7842898368835449,3.1931159496307373,0.5235333327386388,,385.0
R,U,"[2, 2]",1.0,2.0,0.6114649772644043,2.2194578647613525,0.6092599458729986,64.0,386.0
B,L,"[2, 1]",1.0,3.0,0.3546280860900879,1.696943998336792,0.33988006997496567,64.0,387.0
G,D,"[3, 1]",1.0,4.0,0.250669002532959,1.502690076828003,0.25939280042818497,64.0,388.0
B,L,"[3, 0]",0.0,4.0,0.2719118595123291,1.8092188835144043,0.5350311206807872,64.0,389.0
B,L,"[3, 0]",0.0,4.0,0.19520092010498047,1.6864140033721924,0.4881130591724808,64.0,390.0
,,"(3, 3)",,,,,,64.0,
R,U,"[2, 3]",-1.0,0.0,0.029201030731201172,6.304955005645752,0.5598156681993174,,391.0
R,U,"[1, 3]",1.0,1.0,0.2674739360809326,1.9603681564331055,0.7033311628175725,65.0,392.0
B,L,"[1, 2]",1.0,2.0,0.2947559356689453,1.7013590335845947,0.4051274602824978,65.0,393.0
G,D,"[2, 2]",1.0,3.0,0.2704200744628906,2.0235531330108643,0.7449279505080828,65.0,394.0
B,L,"[2, 1]",1.0,4.0,0.23088598251342773,1.8657159805297852,0.6441395565841377,65.0,395.0
Y,R,"[2, 2]",0.0,4.0,0.30780601501464844,1.9756441116333008,0.6697688146635101,65.0,396.0
,,"(3, 3)",,,,,,65.0,
B,L,"[3, 2]",1.0,1.0,0.8634979724884033,2.8962249755859375,0.616086298783726,,397.0
R,U,"[2, 2]",1.0,2.0,0.2900581359863281,1.6455960273742676,0.3454446662291258,66.0,398.0
B,L,"[2, 1]",1.0,3.0,0.28783297538757324,1.5388970375061035,0.25100146373304305,66.0,399.0
G,D,"[3, 1]",1.0,4.0,0.33190298080444336,1.7439379692077637,0.4115464573621528,66.0,400.0
Y,R,"[3, 2]",0.0,4.0,0.3945579528808594,2.0305850505828857,0.6419032992800744,66.0,401.0
Y,R,"[3, 3]",0.0,4.0,0.22441506385803223,1.6344540119171143,0.40990510936194985,66.0,402.0
,,"(3, 3)",,,,,,66.0,
B,L,"[3, 2]",-1.0,-1.0,0.6925771236419678,2.8173370361328125,0.34416075092740483,,403.0
R,U,"[2, 2]",-1.0,-2.0,0.40647411346435547,1.9928820133209229,0.5867978108261238,67.0,404.0
G,D,"[3, 2]",-1.0,-3.0,0.3268599510192871,1.7995429039001465,0.4697213823253869,67.0,405.0
R,U,"[2, 2]",-2.0,-3.0,1.422990083694458,3.050837993621826,0.5705261438864379,67.0,406.0
R,U,"[1, 2]",-1.0,-4.0,0.34694910049438477,1.931807041168213,0.5689809176121794,67.0,407.0
B,L,"[1, 1]",-1.0,-5.0,0.265545129776001,1.5534610748291016,0.28956648898906384,67.0,408.0
,,"(3, 3)",,,,,,67.0,
B,L,"[3, 2]",-2.0,0.0,1.3754019737243652,5.583367109298706,0.6562831538669629,,409.0
G,D,"[4, 2]",1.0,1.0,0.8253519535064697,2.3865299224853516,0.5592462043394413,68.0,410.0
B,L,"[4, 1]",1.0,2.0,0.9080920219421387,2.3854129314422607,0.4781461689391978,68.0,411.0
G,D,"[5, 1]",-1.0,1.0,0.6058330535888672,2.3322830200195312,0.7267774583251541,68.0,412.0
R,U,"[4, 1]",1.0,2.0,0.3055839538574219,1.7624850273132324,0.4561456898548775,68.0,413.0
Y,R,"[4, 2]",1.0,3.0,0.5359840393066406,1.8961100578308105,0.3525082452910629,68.0,414.0
,,"(3, 3)",,,,,,68.0,
G,D,"[4, 3]",-2.0,0.0,1.1212430000305176,3.8195600509643555,0.5054642794720929,,415.0
G,D,"[5, 3]",1.0,1.0,0.32846808433532715,1.6802821159362793,0.3523332085234588,69.0,416.0
R,U,"[4, 3]",1.0,2.0,0.394122838973999,1.6697161197662354,0.2721352036495074,69.0,417.0
G,D,"[5, 3]",1.0,3.0,0.5897340774536133,2.0533339977264404,0.4587801083339143,69.0,418.0
Y,R,"[5, 4]",-1.0,2.0,0.5648789405822754,2.1652050018310547,0.590603884411045,69.0,419.0
B,L,"[5, 3]",1.0,3.0,0.24727392196655273,1.7854158878326416,0.5260301590932263,69.0,420.0
,,"(3, 3)",,,,,,69.0,
G,D,"[4, 3]",1.0,1.0,0.7607901096343994,3.262964963912964,0.3393575378467093,,421.0
R,U,"[3, 3]",-2.0,-1.0,0.29622316360473633,1.589644193649292,0.2790533624880021,70.0,422.0
G,D,"[4, 3]",1.0,0.0,0.43393397331237793,2.0827550888061523,0.6447153006153681,70.0,423.0
B,L,"[4, 2]",-2.0,0.0,1.129878044128418,2.7784600257873535,0.6233488240959018,70.0,424.0
B,L,"[4, 1]",1.0,1.0,0.2974259853363037,1.6595561504364014,0.3664923953454513,70.0,425.0
Y,R,"[4, 2]",1.0,2.0,0.30899596214294434,1.6745998859405518,0.3577254126527246,70.0,426.0
,,"(3, 3)",,,,,,70.0,
G,D,"[4, 3]",-2.0,0.0,1.1394100189208984,3.6988539695739746,0.4067450480965157,,427.0
G,D,"[5, 3]",1.0,1.0,0.22629022598266602,1.5918691158294678,0.3653042609329957,71.0,428.0
B,L,"[5, 2]",1.0,2.0,0.26751017570495605,1.9264349937438965,0.6418774660405293,71.0,429.0
G,D,"[6, 2]",0.0,2.0,0.2809560298919678,1.6709010601043701,0.3959829915296269,71.0,430.0
B,L,"[6, 1]",0.0,2.0,0.2562539577484131,1.9923100471496582,0.7379286100532254,71.0,431.0
Y,R,"[6, 2]",0.0,2.0,0.23126220703125,1.5510671138763428,0.3226117532869068,71.0,432.0
,,"(3, 3)",,,,,,71.0,
G,D,"[4, 3]",1.0,1.0,0.6822991371154785,3.428668975830078,0.6845215397523002,,433.0
G,D,"[5, 3]",1.0,2.0,0.2975289821624756,1.570991039276123,0.2726197384863008,72.0,434.0
B,L,"[5, 2]",1.0,3.0,0.38744306564331055,1.9365661144256592,0.5420379533812901,72.0,435.0
B,L,"[5, 1]",-1.0,2.0,0.37813711166381836,1.6743710041046143,0.28336638684843574,72.0,436.0
Y,R,"[5, 2]",1.0,3.0,0.4408597946166992,1.9605271816253662,0.5105862633379161,72.0,437.0
Y,R,"[5, 3]",1.0,4.0,0.4419839382171631,1.815877914428711,0.3766720308014738,72.0,438.0
,,"(3, 3)",,,,,,72.0,
G,D,"[4, 3]",1.0,1.0,0.5475630760192871,2.5366110801696777,0.2635299666444064,,439.0
G,D,"[5, 3]",1.0,2.0,0.7754960060119629,2.3658909797668457,0.5788254834519235,73.0,440.0
G,D,"[6, 3]",0.0,2.0,0.5095329284667969,1.9113459587097168,0.4072201597849716,73.0,441.0
B,L,"[6, 2]",0.0,2.0,0.33489990234375,1.736877202987671,0.41061446220716574,73.0,442.0
Y,R,"[6, 3]",0.0,2.0,0.23025894165039062,1.551900863647461,0.32940505883813537,73.0,443.0
Y,R,"[6, 4]",0.0,2.0,0.7168159484863281,2.0476999282836914,0.3437997826734564,73.0,444.0
,,"(3, 3)",,,,,,73.0,
G,D,"[4, 3]",1.0,1.0,0.5399460792541504,2.4817659854888916,0.642057022359281,,445.0
G,D,"[5, 3]",1.0,2.0,0.7422950267791748,2.0991878509521484,0.35808187186336404,74.0,446.0
R,U,"[4, 3]",1.0,3.0,0.5267260074615479,1.8764288425445557,0.35123309037580885,74.0,447.0
B,L,"[4, 2]",1.0,4.0,0.5935399532318115,1.8963429927825928,0.2978163093872729,74.0,448.0
Y,R,"[4, 3]",1.0,5.0,0.25678014755249023,1.552109956741333,0.28311358060898,74.0,449.0
Y,R,"[4, 4]",-1.0,4.0,0.279404878616333,1.799915075302124,0.49953941879141806,74.0,450.0
,,"(3, 3)",,,,,,74.0,
G,D,"[4, 3]",1.0,1.0,0.6498489379882812,2.6832449436187744,0.5162409421986361,,451.0
G,D,"[5, 3]",1.0,2.0,0.3164100646972656,1.612602949142456,0.29555578747655115,75.0,452.0
R,U,"[4, 3]",1.0,3.0,0.4364471435546875,1.976180076599121,0.5383530896621798,75.0,453.0
B,L,"[4, 2]",1.0,4.0,0.21503019332885742,1.9293160438537598,0.7177300099738052,75.0,454.0
Y,R,"[4, 3]",1.0,5.0,0.23474788665771484,1.7149548530578613,0.46591384257585455,75.0,455.0
G,D,"[5, 3]",1.0,6.0,0.30800509452819824,1.58064603805542,0.26350311157991185,75.0,456.0
,,"(3, 3)",,,,,,75.0,
G,D,"[4, 3]",1.0,1.0,0.5751430988311768,3.1361300945281982,0.3661859242029461,,457.0
R,U,"[3, 3]",-2.0,-1.0,0.33676815032958984,1.97166109085083,0.6210997580720155,76.0,458.0
R,U,"[2, 3]",-1.0,-2.0,0.2679297924041748,1.763185977935791,0.4844252173260075,76.0,459.0
B,L,"[2, 2]",-1.0,-3.0,0.2882540225982666,1.8871140480041504,0.5881314478280731,76.0,460.0
Y,R,"[2, 3]",-1.0,-4.0,0.2034440040588379,1.5087389945983887,0.2971138454817332,76.0,461.0
Y,R,"[2, 4]",-1.0,-5.0,0.3345670700073242,2.0574071407318115,0.7042169177485652,76.0,462.0
,,"(3, 3)",,,,,,76.0,
G,D,"[4, 3]",-2.0,0.0,1.6345608234405518,3.428131103515625,0.416063673274368,,463.0
G,D,"[5, 3]",1.0,1.0,0.22810006141662598,1.6086809635162354,0.35814188909812855,77.0,464.0
G,D,"[6, 3]",0.0,1.0,0.12652921676635742,1.4522638320922852,0.3270986579548388,77.0,465.0
R,U,"[5, 3]",1.0,2.0,0.25063014030456543,1.9005398750305176,0.6439872508831963,77.0,466.0
G,D,"[6, 3]",-1.0,2.0,0.0674278736114502,5.857168912887573,0.6680022244479782,77.0,467.0
Y,R,"[6, 4]",0.0,2.0,0.2549731731414795,1.6266601085662842,0.36155056026792937,77.0,468.0
,,"(3, 3)",,,,,,77.0,
G,D,"[4, 3]",1.0,1.0,0.6306488513946533,3.2098569869995117,0.3048840922432083,,469.0
G,D,"[5, 3]",1.0,2.0,0.6461541652679443,2.206958055496216,0.5616462583492242,78.0,470.0
R,U,"[4, 3]",1.0,3.0,0.44910192489624023,2.0550291538238525,0.6000075743025803,78.0,471.0
B,L,"[4, 2]",1.0,4.0,0.30035901069641113,2.0251848697662354,0.7084550184951275,78.0,472.0
Y,R,"[4, 3]",1.0,5.0,0.5667481422424316,2.3229739665985107,0.7481352049114998,78.0,473.0
G,D,"[5, 3]",1.0,6.0,0.30858302116394043,1.699218988418579,0.38098635430533595,78.0,474.0
,,"(3, 3)",,,,,,78.0,
G,D,"[4, 3]",1.0,1.0,0.9618480205535889,3.474186897277832,0.7215814124256158,,475.0
R,U,"[3, 3]",-2.0,-1.0,0.38997697830200195,1.8618040084838867,0.46707065382822793,79.0,476.0
B,L,"[3, 2]",-2.0,-1.0,1.0794677734375,2.5550599098205566,0.42210530938038854,79.0,477.0
Y,R,"[3, 3]",-2.0,-3.0,0.2506392002105713,1.5665428638458252,0.3054558956611718,79.0,478.0
Y,R,"[3, 4]",-1.0,-4.0,0.4899420738220215,1.8076000213623047,0.3130739513923455,79.0,479.0
Y,R,"[3, 5]",-1.0,-5.0,0.4422881603240967,1.8811869621276855,0.42757270162598837,79.0,480.0
,,"(3, 3)",,,,,,79.0,
G,D,"[4, 3]",1.0,1.0,0.6674399375915527,2.8375439643859863,0.7148908707813227,,481.0
G,D,"[5, 3]",1.0,2.0,0.4629039764404297,1.856382131576538,0.3876544545747763,80.0,482.0
R,U,"[4, 3]",1.0,3.0,0.2887380123138428,1.9950988292694092,0.6997541388772017,80.0,483.0
B,L,"[4, 2]",1.0,4.0,0.30581092834472656,1.9601600170135498,0.6434355151432654,80.0,484.0
Y,R,"[4, 3]",1.0,5.0,0.3027660846710205,1.6080820560455322,0.30176771673979585,80.0,485.0
G,D,"[5, 3]",1.0,6.0,0.5112338066101074,1.9807319641113281,0.4657791972668339,80.0,486.0
,,"(3, 3)",,,,,,80.0,
G,D,"[4, 3]",1.0,1.0,0.8278591632843018,2.661669969558716,0.27773638417522467,,487.0
G,D,"[5, 3]",1.0,2.0,0.28920507431030273,1.7573840618133545,0.4682535894902607,81.0,488.0
R,U,"[4, 3]",1.0,3.0,0.2645561695098877,1.5201420783996582,0.25519031662744124,81.0,489.0
B,L,"[4, 2]",1.0,4.0,0.3991200923919678,1.97959303855896,0.5845726497430801,81.0,490.0
Y,R,"[4, 3]",1.0,5.0,0.28187012672424316,1.6165449619293213,0.33463713009698043,81.0,491.0
G,D,"[5, 3]",1.0,6.0,0.23508501052856445,1.8129878044128418,0.5641314203315924,81.0,492.0
,,"(3, 3)",,,,,,81.0,
G,D,"[4, 3]",1.0,1.0,0.7499978542327881,2.8741400241851807,0.721453133091734,,493.0
G,D,"[5, 3]",1.0,2.0,0.28636908531188965,1.953104019165039,0.6578964723390918,82.0,494.0
R,U,"[4, 3]",1.0,3.0,0.3019678592681885,1.917128086090088,0.608359946540987,82.0,495.0
B,L,"[4, 2]",1.0,4.0,0.24943995475769043,1.9144251346588135,0.6562342499973117,82.0,496.0
Y,R,"[4, 3]",1.0,5.0,0.26874613761901855,1.9084389209747314,0.6309107619212728,82.0,497.0
G,D,"[5, 3]",1.0,6.0,0.26419615745544434,1.9964790344238281,0.727982004848319,82.0,498.0
,,"(3, 3)",,,,,,82.0,
G,D,"[4, 3]",1.0,1.0,0.8973579406738281,2.745753049850464,0.39071562612516164,,499.0
G,D,"[5, 3]",1.0,2.0,0.29994893074035645,1.752830982208252,0.44344561313969927,83.0,500.0
R,U,"[4, 3]",1.0,3.0,0.24652695655822754,1.9272568225860596,0.6871673457216139,83.0,501.0
B,L,"[4, 2]",1.0,4.0,0.2948739528656006,1.8832778930664062,0.5872202266757018,83.0,502.0
Y,R,"[4, 3]",1.0,5.0,0.22250604629516602,1.7533318996429443,0.5241426369599981,83.0,503.0
G,D,"[5, 3]",1.0,6.0,0.2086489200592041,1.8668839931488037,0.6573978843839762,83.0,504.0
,,"(3, 3)",,,,,,83.0,
G,D,"[4, 3]",1.0,1.0,0.5906779766082764,3.291146993637085,0.26584139422484804,,505.0
G,D,"[5, 3]",1.0,2.0,0.30619001388549805,2.0074400901794434,0.6894467063946992,84.0,506.0
R,U,"[4, 3]",1.0,3.0,0.2702178955078125,1.7534351348876953,0.4765364521371469,84.0,507.0
B,L,"[4, 2]",1.0,4.0,0.2758488655090332,2.019031047821045,0.7452608382890783,84.0,508.0
Y,R,"[4, 3]",1.0,5.0,0.2538151741027832,1.887829065322876,0.6497685299538802,84.0,509.0
G,D,"[5, 3]",1.0,6.0,0.23150086402893066,1.5688910484313965,0.335727236050224,84.0,510.0
,,"(3, 3)",,,,,,84.0,
G,D,"[4, 3]",1.0,1.0,0.6573448181152344,2.6330020427703857,0.451987627522951,,511.0
G,D,"[5, 3]",1.0,2.0,0.2727549076080322,1.7617990970611572,0.4805270405434125,85.0,512.0
R,U,"[4, 3]",1.0,3.0,0.3003509044647217,1.9884941577911377,0.6688937802043098,85.0,513.0
B,L,"[4, 2]",1.0,4.0,0.2598237991333008,1.881817102432251,0.6173384853273127,85.0,514.0
Y,R,"[4, 3]",1.0,5.0,0.24199604988098145,1.9494531154632568,0.7000804465849881,85.0,515.0
G,D,"[5, 3]",1.0,6.0,0.22353482246398926,1.5996899604797363,0.36680467706588,85.0,516.0
,,"(3, 3)",,,,,,85.0,
G,D,"[4, 3]",1.0,1.0,0.5763199329376221,3.0291121006011963,0.49598765546534224,,517.0
G,D,"[5, 3]",1.0,2.0,0.2311561107635498,1.7152879238128662,0.47792987244179175,86.0,518.0
R,U,"[4, 3]",1.0,3.0,0.2305600643157959,1.657599925994873,0.4354960890937792,86.0,519.0
B,L,"[4, 2]",1.0,4.0,0.23580598831176758,1.7584609985351562,0.510550441835178,86.0,520.0
Y,R,"[4, 3]",1.0,5.0,0.18088698387145996,1.8995277881622314,0.7100077525684545,86.0,521.0
G,D,"[5, 3]",1.0,6.0,0.26495814323425293,1.9742460250854492,0.7176118690924126,86.0,522.0
,,"(3, 3)",,,,,,86.0,
G,D,"[4, 3]",1.0,1.0,0.8073170185089111,2.6122000217437744,0.4467135086888323,,523.0
G,D,"[5, 3]",1.0,2.0,0.26447415351867676,1.9851808547973633,0.7150286262740739,87.0,524.0
R,U,"[4, 3]",1.0,3.0,0.22513198852539062,1.7354857921600342,0.5008154501714985,87.0,525.0
B,L,"[4, 2]",1.0,4.0,0.23064398765563965,1.8146748542785645,0.5820122598045628,87.0,526.0
Y,R,"[4, 3]",1.0,5.0,0.197221040725708,1.8259499073028564,0.6247052872791227,87.0,527.0
G,D,"[5, 3]",1.0,6.0,0.25150108337402344,1.6174938678741455,0.35907614173655367,87.0,528.0
,,"(3, 3)",,,,,,87.0,
G,D,"[4, 3]",1.0,1.0,0.6793351173400879,2.610818862915039,0.5364123319560725,,529.0
G,D,"[5, 3]",1.0,2.0,0.19541597366333008,1.904128074645996,0.7070647802571375,88.0,530.0
R,U,"[4, 3]",1.0,3.0,0.24943304061889648,1.566141128540039,0.30701698510622755,88.0,531.0
B,L,"[4, 2]",1.0,4.0,0.2637488842010498,1.7656550407409668,0.505774465847497,88.0,532.0
Y,R,"[4, 3]",1.0,5.0,0.21613192558288574,1.7966539859771729,0.5857502577520481,88.0,533.0
G,D,"[5, 3]",1.0,6.0,0.2593231201171875,1.925374984741211,0.6610325423225535,88.0,534.0
,,"(3, 3)",,,,,,88.0,
G,D,"[4, 3]",1.0,1.0,0.666071891784668,2.4945759773254395,0.5225299437158288,,535.0
G,D,"[5, 3]",1.0,2.0,0.24382305145263672,1.789984941482544,0.5457356020008519,89.0,536.0
R,U,"[4, 3]",1.0,3.0,0.192274808883667,1.9322760105133057,0.7445145281838108,89.0,537.0
B,L,"[4, 2]",1.0,4.0,0.25809502601623535,1.940722942352295,0.6854209186251148,89.0,538.0
Y,R,"[4, 3]",1.0,5.0,0.2175769805908203,1.8139121532440186,0.582764641642374,89.0,539.0
G,D,"[5, 3]",1.0,6.0,0.32171010971069336,1.6500868797302246,0.3164792840442452,89.0,540.0
,,"(3, 3)",,,,,,89.0,
G,D,"[4, 3]",1.0,1.0,0.5443599224090576,2.4080748558044434,0.4244973945055324,,541.0
G,D,"[5, 3]",1.0,2.0,0.23487401008605957,1.8255329132080078,0.583197138239728,90.0,542.0
R,U,"[4, 3]",1.0,3.0,0.2354109287261963,1.9889020919799805,0.739037176431087,90.0,543.0
B,L,"[4, 2]",1.0,4.0,0.20531010627746582,1.5314571857452393,0.3373073073520152,90.0,544.0
Y,R,"[4, 3]",-1.0,4.0,0.0910649299621582,5.585646867752075,0.3396725320170783,90.0,545.0
G,D,"[5, 3]",1.0,5.0,0.24478793144226074,1.5714340209960938,0.32788148229902436,90.0,546.0
,,"(3, 3)",,,,,,90.0,
G,D,"[4, 3]",1.0,1.0,0.7230098247528076,2.388417959213257,0.2663403268830775,,547.0
G,D,"[5, 3]",1.0,2.0,0.3001370429992676,2.0022389888763428,0.7013654224153524,91.0,548.0
R,U,"[4, 3]",1.0,3.0,0.22441506385803223,1.5667190551757812,0.3353405155273334,91.0,549.0
B,L,"[4, 2]",1.0,4.0,0.23460102081298828,1.7022640705108643,0.47078734959555835,91.0,550.0
Y,R,"[4, 3]",1.0,5.0,0.2498760223388672,1.622913122177124,0.3770860839889083,91.0,551.0
G,D,"[5, 3]",1.0,6.0,0.28416895866394043,1.9676778316497803,0.6778532708968246,91.0,552.0
,,"(3, 3)",,,,,,91.0,
G,D,"[4, 3]",1.0,1.0,0.6476969718933105,2.5557758808135986,0.5006834659916943,,553.0
G,D,"[5, 3]",1.0,2.0,0.24400806427001953,1.5760319232940674,0.3268637894875111,92.0,554.0
R,U,"[4, 3]",1.0,3.0,0.24729514122009277,1.7165439128875732,0.4764637976742104,92.0,555.0
B,L,"[4, 2]",1.0,4.0,0.22461795806884766,1.755223035812378,0.5317409663697645,92.0,556.0
Y,R,"[4, 3]",1.0,5.0,0.2140798568725586,1.524186134338379,0.30617242537592637,92.0,557.0
G,D,"[5, 3]",1.0,6.0,0.2795829772949219,1.8056468963623047,0.5282306195182291,92.0,558.0
,,"(3, 3)",,,,,,92.0,
G,D,"[4, 3]",1.0,1.0,0.6931209564208984,2.782588005065918,0.4941930479191864,,559.0
G,D,"[5, 3]",1.0,2.0,0.21822285652160645,1.8454079627990723,0.6228328576317221,93.0,560.0
R,U,"[4, 3]",1.0,3.0,0.23232007026672363,1.9578220844268799,0.7306783355900017,93.0,561.0
B,L,"[4, 2]",1.0,4.0,0.2447209358215332,1.6040840148925781,0.3517463578348611,93.0,562.0
Y,R,"[4, 3]",1.0,5.0,0.24776411056518555,1.6665148735046387,0.4183731989946755,93.0,563.0
G,D,"[5, 3]",1.0,6.0,0.21637201309204102,1.6065089702606201,0.37480094508794304,93.0,564.0
,,"(3, 3)",,,,,,93.0,
G,D,"[4, 3]",1.0,1.0,0.6110029220581055,2.6872520446777344,0.2788688706303834,,565.0
G,D,"[5, 3]",1.0,2.0,0.3018989562988281,2.0415520668029785,0.7367236071554834,94.0,566.0
R,U,"[4, 3]",1.0,3.0,0.2541780471801758,1.7299911975860596,0.4669504596669294,94.0,567.0
B,L,"[4, 2]",1.0,4.0,0.21992111206054688,1.5815119743347168,0.34868548772641883,94.0,568.0
Y,R,"[4, 3]",1.0,5.0,0.2519099712371826,1.7542340755462646,0.5027415530994559,94.0,569.0
G,D,"[5, 3]",1.0,6.0,0.21372008323669434,1.7342870235443115,0.5202575266871743,94.0,570.0
,,"(3, 3)",,,,,,94.0,
G,D,"[4, 3]",1.0,1.0,0.6584901809692383,2.351611852645874,0.25554905565346125,,571.0
G,D,"[5, 3]",1.0,2.0,0.27134108543395996,1.858525037765503,0.5805388528070669,95.0,572.0
R,U,"[4, 3]",1.0,3.0,0.22810792922973633,1.5380268096923828,0.3021374127108559,95.0,573.0
B,L,"[4, 2]",1.0,4.0,0.24345707893371582,1.9347829818725586,0.6865586494169463,95.0,574.0
Y,R,"[4, 3]",1.0,5.0,0.25412702560424805,1.7697601318359375,0.5064525376010025,95.0,575.0
G,D,"[5, 3]",1.0,6.0,0.3126230239868164,1.8593790531158447,0.5493275529346765,95.0,576.0
,,"(3, 3)",,,,,,95.0,
G,D,"[4, 3]",1.0,1.0,0.6160421371459961,2.444293975830078,0.37721438745346286,,577.0
G,D,"[5, 3]",1.0,2.0,0.29285693168640137,1.6336030960083008,0.34410560859456985,96.0,578.0
R,U,"[4, 3]",1.0,3.0,0.2275989055633545,1.7350471019744873,0.5122568200592428,96.0,579.0
B,L,"[4, 2]",1.0,4.0,0.19720792770385742,1.448080062866211,0.26069737503129425,96.0,580.0
Y,R,"[4, 3]",1.0,5.0,0.284196138381958,1.8926501274108887,0.602994739817104,96.0,581.0
G,D,"[5, 3]",1.0,6.0,0.20725417137145996,1.5547540187835693,0.34138147086232506,96.0,582.0
,,"(3, 3)",,,,,,96.0,
G,D,"[4, 3]",1.0,1.0,0.491940975189209,2.799225091934204,0.5239307512853209,,583.0
G,D,"[5, 3]",1.0,2.0,0.22454500198364258,1.6130928993225098,0.38694369039615656,97.0,584.0
R,U,"[4, 3]",1.0,3.0,0.18893694877624512,1.5022640228271484,0.30610943684351843,97.0,585.0
B,L,"[4, 2]",1.0,4.0,0.22739100456237793,1.6353178024291992,0.4079962706761702,97.0,586.0
Y,R,"[4, 3]",1.0,5.0,0.22270989418029785,1.7766528129577637,0.5511858202096609,97.0,587.0
G,D,"[5, 3]",1.0,6.0,0.23354101181030273,1.5566139221191406,0.3082222310870683,97.0,588.0
,,"(3, 3)",,,,,,97.0,
G,D,"[4, 3]",1.0,1.0,0.5510931015014648,2.547434091567993,0.6387470320968629,,589.0
G,D,"[5, 3]",1.0,2.0,0.20939087867736816,1.8311259746551514,0.6198005787936194,98.0,590.0
R,U,"[4, 3]",1.0,3.0,0.1902010440826416,1.9040119647979736,0.7071084533573027,98.0,591.0
B,L,"[4, 2]",1.0,4.0,0.1974189281463623,1.6559979915618896,0.46334992240296263,98.0,592.0
Y,R,"[4, 3]",1.0,5.0,0.18860602378845215,1.947382926940918,0.7437438176848689,98.0,593.0
G,D,"[5, 3]",1.0,6.0,0.21648716926574707,1.7593960762023926,0.536733011699088,98.0,594.0
,,"(3, 3)",,,,,,98.0,
G,D,"[4, 3]",1.0,1.0,0.7757530212402344,2.351734161376953,0.30539520596137637,,595.0
G,D,"[5, 3]",1.0,2.0,0.2897911071777344,1.6144750118255615,0.3199508919200355,99.0,596.0
R,U,"[4, 3]",1.0,3.0,0.2381739616394043,1.8310070037841797,0.5839558904194035,99.0,597.0
B,L,"[4, 2]",1.0,4.0,0.195357084274292,1.9263181686401367,0.7269415241797645,99.0,598.0
Y,R,"[4, 3]",1.0,5.0,0.19434213638305664,1.5143699645996094,0.3250760932356558,99.0,599.0
G,D,"[5, 3]",1.0,6.0,0.15719914436340332,1.6212170124053955,0.4630653769789586,99.0,600.0
,,"(3, 3)",,,,,,99.0,
G,D,"[4, 3]",1.0,1.0,0.6470940113067627,2.994252920150757,0.7402146501608653,,601.0
G,D,"[5, 3]",1.0,2.0,0.2231769561767578,1.804960012435913,0.5786971096108863,100.0,602.0
R,U,"[4, 3]",1.0,3.0,0.31225085258483887,1.8856890201568604,0.5809106490670002,100.0,603.0
B,L,"[4, 2]",1.0,4.0,0.21248888969421387,1.8017210960388184,0.582732773906482,100.0,604.0
Y,R,"[4, 3]",1.0,5.0,0.22537899017333984,1.5448811054229736,0.3113495162336416,100.0,605.0
G,D,"[5, 3]",1.0,6.0,0.2572178840637207,1.5497829914093018,0.29440354936167534,100.0,606.0
,,"(3, 3)",,,,,,100.0,
G,D,"[4, 3]",1.0,1.0,0.5039210319519043,2.644798994064331,0.25597351057311685,,607.0
G,D,"[5, 3]",1.0,2.0,0.25140905380249023,1.5309638977050781,0.27023084787331286,101.0,608.0
R,U,"[4, 3]",1.0,3.0,0.26512694358825684,1.8382999897003174,0.5750054576600749,101.0,609.0
B,L,"[4, 2]",1.0,4.0,0.2046949863433838,1.4975230693817139,0.28944122251022747,101.0,610.0
Y,R,"[4, 3]",1.0,5.0,0.21786284446716309,1.6651530265808105,0.43778442362712716,101.0,611.0
G,D,"[5, 3]",1.0,6.0,0.22413396835327148,1.505194902420044,0.2765864707620257,101.0,612.0
,,"(3, 3)",,,,,,101.0,
G,D,"[4, 3]",1.0,1.0,0.6106300354003906,2.783820152282715,0.526800734570336,,613.0
G,D,"[5, 3]",1.0,2.0,0.20009803771972656,1.7822389602661133,0.5756356777150575,102.0,614.0
R,U,"[4, 3]",1.0,3.0,0.19884800910949707,1.7883210182189941,0.5973972993523485,102.0,615.0
B,L,"[4, 2]",1.0,4.0,0.10807013511657715,1.7440979480743408,0.6247394681416683,102.0,616.0
Y,R,"[4, 3]",1.0,5.0,0.2009119987487793,1.640538215637207,0.4322958218786775,102.0,617.0
G,D,"[5, 3]",1.0,6.0,0.22867608070373535,1.8432989120483398,0.5920226799500938,102.0,618.0
,,"(3, 3)",,,,,,102.0,
G,D,"[4, 3]",1.0,1.0,0.6223058700561523,2.837912082672119,0.5634898288660828,,619.0
G,D,"[5, 3]",1.0,2.0,0.18032503128051758,1.7143809795379639,0.52782440110684,103.0,620.0
R,U,"[4, 3]",1.0,3.0,0.24139904975891113,1.7699999809265137,0.5311094116441266,103.0,621.0
B,L,"[4, 2]",1.0,4.0,0.2091388702392578,1.775986909866333,0.5571486293619206,103.0,622.0
Y,R,"[4, 3]",1.0,5.0,0.23551011085510254,1.7689480781555176,0.5261619405013895,103.0,623.0
G,D,"[5, 3]",1.0,6.0,0.21312594413757324,1.7340428829193115,0.5268831649487291,103.0,624.0
,,"(3, 3)",,,,,,103.0,
G,D,"[4, 3]",1.0,1.0,0.6120009422302246,2.3370378017425537,0.29759885974653644,,625.0
G,D,"[5, 3]",1.0,2.0,0.24277496337890625,1.7828259468078613,0.5301315400111717,104.0,626.0
R,U,"[4, 3]",1.0,3.0,0.22553110122680664,1.6126651763916016,0.37627674145788526,104.0,627.0
B,L,"[4, 2]",1.0,4.0,0.2476181983947754,1.5663719177246094,0.32609015362172733,104.0,628.0
Y,R,"[4, 3]",1.0,5.0,0.17910504341125488,1.6241838932037354,0.45021939866680466,104.0,629.0
G,D,"[5, 3]",1.0,6.0,0.16965913772583008,1.4453060626983643,0.26241732579678506,104.0,630.0
,,"(3, 3)",,,,,,104.0,
G,D,"[4, 3]",1.0,1.0,0.7669939994812012,2.6864120960235596,0.46539985563909375,,631.0
G,D,"[5, 3]",1.0,2.0,0.5715179443359375,2.160560131072998,0.5758845124987424,105.0,632.0
R,U,"[4, 3]",1.0,3.0,0.22263717651367188,1.9660520553588867,0.741759670242033,105.0,633.0
B,L,"[4, 2]",1.0,4.0,0.2788870334625244,1.9332470893859863,0.6583565805678313,105.0,634.0
Y,R,"[4, 3]",1.0,5.0,0.2285308837890625,1.7523748874664307,0.5274930273127354,105.0,635.0
G,D,"[5, 3]",1.0,6.0,0.2786071300506592,2.01954984664917,0.7469767010903562,105.0,636.0
,,"(3, 3)",,,,,,105.0,
G,D,"[4, 3]",1.0,1.0,0.5194549560546875,2.655700922012329,0.5694708074254875,,637.0
G,D,"[5, 3]",1.0,2.0,0.2104508876800537,1.6117258071899414,0.3981142306345361,106.0,638.0
R,U,"[4, 3]",1.0,3.0,0.3588578701019287,1.9347429275512695,0.5660732940581823,106.0,639.0
B,L,"[4, 2]",1.0,4.0,0.21042799949645996,1.8818960189819336,0.6645746859878683,106.0,640.0
Y,R,"[4, 3]",1.0,5.0,0.24715399742126465,1.5127911567687988,0.2611140495413805,106.0,641.0
G,D,"[5, 3]",1.0,6.0,0.2394859790802002,1.7107090950012207,0.47163598176172533,106.0,642.0
,,"(3, 3)",,,,,,106.0,
G,D,"[4, 3]",1.0,1.0,0.6588170528411865,2.8312289714813232,0.6194097452545881,,643.0
G,D,"[5, 3]",1.0,2.0,0.22049808502197266,1.961517095565796,0.7308878123593507,107.0,644.0
R,U,"[4, 3]",1.0,3.0,0.2218630313873291,1.5521271228790283,0.3167341387434076,107.0,645.0
B,L,"[4, 2]",1.0,4.0,0.7499208450317383,2.340015172958374,0.5733190332164855,107.0,646.0
Y,R,"[4, 3]",-1.0,4.0,0.04165291786193848,5.6927220821380615,0.5326022585231923,107.0,647.0
G,D,"[5, 3]",1.0,5.0,0.2569081783294678,1.5341320037841797,0.2671842806789034,107.0,648.0
,,"(3, 3)",,,,,,107.0,
B,L,"[3, 2]",-1.0,-1.0,0.7807791233062744,3.163161039352417,0.7465436015815161,,649.0
R,U,"[2, 2]",-1.0,-2.0,0.43002891540527344,1.9063498973846436,0.47002671103885457,108.0,650.0
G,D,"[3, 2]",-1.0,-3.0,0.19210314750671387,1.7929260730743408,0.5960576032290954,108.0,651.0
Y,R,"[3, 3]",-2.0,-5.0,0.5480828285217285,1.8331048488616943,0.262854617254861,108.0,652.0
G,D,"[4, 3]",1.0,-4.0,0.21854782104492188,1.7842698097229004,0.5636030170499104,108.0,653.0
G,D,"[5, 3]",1.0,-3.0,0.5286118984222412,1.885589838027954,0.3492064588170315,108.0,654.0
,,"(3, 3)",,,,,,108.0,
G,D,"[4, 3]",1.0,1.0,0.7329950332641602,3.0690338611602783,0.6348539844505946,,655.0
G,D,"[5, 3]",1.0,2.0,0.3467700481414795,1.957948923110962,0.6095381200772219,109.0,656.0
R,U,"[4, 3]",1.0,3.0,0.25384092330932617,2.002488136291504,0.7451945547227232,109.0,657.0
B,L,"[4, 2]",1.0,4.0,0.21801114082336426,1.8552110195159912,0.6337980003093366,109.0,658.0
Y,R,"[4, 3]",1.0,5.0,0.28224611282348633,1.8463139533996582,0.5635979200077688,109.0,659.0
G,D,"[5, 3]",1.0,6.0,0.21149110794067383,1.6078150272369385,0.38830751251003487,109.0,660.0
,,"(3, 3)",,,,,,109.0,
G,D,"[4, 3]",1.0,1.0,0.5604050159454346,2.454586982727051,0.4929244615535446,,661.0
G,D,"[5, 3]",1.0,2.0,0.2326650619506836,1.5079538822174072,0.26772584967374646,110.0,662.0
R,U,"[4, 3]",1.0,3.0,0.24983906745910645,1.8906960487365723,0.6247170021544033,110.0,663.0
B,L,"[4, 2]",1.0,4.0,0.22372198104858398,1.9694459438323975,0.7441017902595586,110.0,664.0
Y,R,"[4, 3]",1.0,5.0,0.2700650691986084,1.8741159439086914,0.6017754034805696,110.0,665.0
G,D,"[5, 3]",1.0,6.0,0.24085783958435059,1.971830129623413,0.7234816796948023,110.0,666.0
,,"(3, 3)",,,,,,110.0,
G,D,"[4, 3]",1.0,1.0,0.5717229843139648,2.3730921745300293,0.29699291069511163,,667.0
G,D,"[5, 3]",1.0,2.0,0.22205400466918945,1.5132098197937012,0.2769377251240804,111.0,668.0
R,U,"[4, 3]",1.0,3.0,0.26700592041015625,1.8994128704071045,0.6259868596491038,111.0,669.0
B,L,"[4, 2]",1.0,4.0,0.2481248378753662,1.9124350547790527,0.6716973000475074,111.0,670.0
Y,R,"[4, 3]",1.0,5.0,0.19945383071899414,1.6540110111236572,0.44280832309410467,111.0,671.0
G,D,"[5, 3]",1.0,6.0,0.26943206787109375,1.6564970016479492,0.3826684004907063,111.0,672.0
,,"(3, 3)",,,,,,111.0,
G,D,"[4, 3]",1.0,1.0,0.6271839141845703,2.9150230884552,0.7472495762816109,,673.0
G,D,"[5, 3]",1.0,2.0,0.24225187301635742,1.8823390007019043,0.629878525779574,112.0,674.0
R,U,"[4, 3]",1.0,3.0,0.2500119209289551,1.904876947402954,0.6348134378490029,112.0,675.0
B,L,"[4, 2]",1.0,4.0,0.23901700973510742,1.5666768550872803,0.31847268060080997,112.0,676.0
Y,R,"[4, 3]",1.0,5.0,0.2594599723815918,1.779026985168457,0.5139211946939195,112.0,677.0
G,D,"[5, 3]",1.0,6.0,0.21628093719482422,1.7253000736236572,0.4894060709812646,112.0,678.0
,,"(3, 3)",,,,,,112.0,
G,D,"[4, 3]",1.0,1.0,0.8184988498687744,2.988089084625244,0.54408514885533,,679.0
G,D,"[5, 3]",1.0,2.0,0.23749709129333496,1.547956943511963,0.3089319058590415,113.0,680.0
R,U,"[4, 3]",1.0,3.0,0.257519006729126,1.899317979812622,0.6411469075716267,113.0,681.0
B,L,"[4, 2]",-1.0,3.0,0.07033801078796387,5.871230125427246,0.6791361892937386,113.0,682.0
B,L,"[4, 1]",1.0,4.0,0.3482949733734131,1.8936090469360352,0.5396505265261692,113.0,683.0
Y,R,"[4, 2]",1.0,5.0,0.21820497512817383,1.8017051219940186,0.5746585878277726,113.0,684.0
,,"(3, 3)",,,,,,113.0,
G,D,"[4, 3]",1.0,1.0,0.5924489498138428,3.500620126724243,0.32569573585373374,,685.0
G,D,"[5, 3]",1.0,2.0,0.26633501052856445,1.8471319675445557,0.5725497208809329,114.0,686.0
R,U,"[4, 3]",1.0,3.0,0.24323081970214844,1.5531070232391357,0.30933472787318345,114.0,687.0
B,L,"[4, 2]",1.0,4.0,0.24726605415344238,1.9404900074005127,0.6994772013979837,114.0,688.0
Y,R,"[4, 3]",1.0,5.0,0.27036499977111816,1.9412140846252441,0.6573790222350189,114.0,689.0
G,D,"[5, 3]",1.0,6.0,0.30210208892822266,1.6212451457977295,0.3124156906580086,114.0,690.0
,,"(3, 3)",,,,,,114.0,
G,D,"[4, 3]",1.0,1.0,0.656649112701416,3.1155688762664795,0.6277331449473312,,691.0
G,D,"[5, 3]",1.0,2.0,0.27292299270629883,2.0223958492279053,0.7499910334825207,115.0,692.0
R,U,"[4, 3]",1.0,3.0,0.245635986328125,1.6664319038391113,0.41679389980668025,115.0,693.0
B,L,"[4, 2]",1.0,4.0,0.24406695365905762,1.8629891872406006,0.6129464264970667,115.0,694.0
Y,R,"[4, 3]",1.0,5.0,0.23054289817810059,1.86012601852417,0.6229861374006371,115.0,695.0
G,D,"[5, 3]",1.0,6.0,0.2225031852722168,1.6144170761108398,0.3877699428356945,115.0,696.0
,,"(3, 3)",,,,,,115.0,
G,D,"[4, 3]",1.0,1.0,0.555617094039917,2.3954081535339355,0.3830765980663518,,697.0
G,D,"[5, 3]",1.0,2.0,0.2539401054382324,1.920624017715454,0.6534573408040125,116.0,698.0
R,U,"[4, 3]",1.0,3.0,0.23056411743164062,1.9610378742218018,0.7311289621257467,116.0,699.0
B,L,"[4, 2]",1.0,4.0,0.2827949523925781,1.984922170639038,0.69933188951294,116.0,700.0
Y,R,"[4, 3]",1.0,5.0,0.14166498184204102,1.8321599960327148,0.6817261751171251,116.0,701.0
G,D,"[5, 3]",1.0,6.0,0.21753501892089844,1.6723768711090088,0.4377301963364355,116.0,702.0
,,"(3, 3)",,,,,,116.0,
G,D,"[4, 3]",1.0,1.0,0.6076679229736328,2.638634204864502,0.7261311441418231,,703.0
G,D,"[5, 3]",1.0,2.0,0.22930383682250977,1.5941190719604492,0.3705617228522028,117.0,704.0
R,U,"[4, 3]",1.0,3.0,0.24361109733581543,1.991610050201416,0.7451837952692608,117.0,705.0
B,L,"[4, 2]",1.0,4.0,0.22816896438598633,1.6323471069335938,0.4111290987952166,117.0,706.0
Y,R,"[4, 3]",1.0,5.0,0.2250659465789795,1.8192639350891113,0.5969310605718134,117.0,707.0
G,D,"[5, 3]",1.0,6.0,0.22459697723388672,1.77219820022583,0.5360292188355303,117.0,708.0
,,"(3, 3)",,,,,,117.0,
G,D,"[4, 3]",1.0,1.0,0.529015064239502,2.416245937347412,0.25248460045644117,,709.0
G,D,"[5, 3]",1.0,2.0,0.256572961807251,1.8662831783294678,0.6017929578416386,118.0,710.0
R,U,"[4, 3]",1.0,3.0,0.2308027744293213,1.5898051261901855,0.35852424160732316,118.0,711.0
B,L,"[4, 2]",1.0,4.0,0.27651000022888184,1.640578031539917,0.3659341396338771,118.0,712.0
Y,R,"[4, 3]",1.0,5.0,0.2767021656036377,1.5749969482421875,0.2908944794241996,118.0,713.0
G,D,"[5, 3]",1.0,6.0,0.4780881404876709,2.1367809772491455,0.6605983837926326,118.0,714.0
,,"(3, 3)",,,,,,118.0,
G,D,"[4, 3]",1.0,1.0,0.5036358833312988,2.548125982284546,0.5756902990877149,,715.0
G,D,"[5, 3]",1.0,2.0,0.2517728805541992,1.6619899272918701,0.4044476014752012,119.0,716.0
R,U,"[4, 3]",1.0,3.0,0.2632288932800293,1.7978720664978027,0.5355196063886454,119.0,717.0
B,L,"[4, 2]",1.0,4.0,0.21720314025878906,1.7506239414215088,0.519497449987907,119.0,718.0
Y,R,"[4, 3]",1.0,5.0,0.25929999351501465,1.673063039779663,0.409385170653978,119.0,719.0
G,D,"[5, 3]",1.0,6.0,0.23882198333740234,1.9509689807891846,0.7102138698465443,119.0,720.0
,,"(3, 3)",,,,,,119.0,
G,D,"[4, 3]",1.0,1.0,0.5606441497802734,2.2044260501861572,0.28154246503283936,,721.0
G,D,"[5, 3]",1.0,2.0,0.2732970714569092,2.002516031265259,0.7171211216468647,120.0,722.0
R,U,"[4, 3]",1.0,3.0,0.2201840877532959,1.8297569751739502,0.597105399022666,120.0,723.0
B,L,"[4, 2]",1.0,4.0,0.2031090259552002,1.7716479301452637,0.5520058244072148,120.0,724.0
Y,R,"[4, 3]",1.0,5.0,0.20336198806762695,1.7131810188293457,0.49879194705109825,120.0,725.0
G,D,"[5, 3]",1.0,6.0,0.18168902397155762,1.5404088497161865,0.32280302108877207,120.0,726.0
,,"(3, 3)",,,,,,120.0,
G,D,"[4, 3]",1.0,1.0,0.5836570262908936,2.259553909301758,0.2989322612794135,,727.0
G,D,"[5, 3]",1.0,2.0,0.21187305450439453,1.709867000579834,0.49185902747271204,121.0,728.0
R,U,"[4, 3]",1.0,3.0,0.18683505058288574,1.7237050533294678,0.5322618065579727,121.0,729.0
B,L,"[4, 2]",1.0,4.0,0.2237229347229004,1.677253007888794,0.44236086186799284,121.0,730.0
Y,R,"[4, 3]",1.0,5.0,0.19115400314331055,1.7616078853607178,0.5711080122033174,121.0,731.0
G,D,"[5, 3]",1.0,6.0,0.20843195915222168,1.6700830459594727,0.4580369575374093,121.0,732.0
,,"(3, 3)",,,,,,121.0,
G,D,"[4, 3]",1.0,1.0,0.6110877990722656,2.330085039138794,0.3550802644560994,,733.0
G,D,"[5, 3]",1.0,2.0,0.13333511352539062,1.4921259880065918,0.3472322338165437,122.0,734.0
R,U,"[4, 3]",1.0,3.0,0.22958087921142578,1.9291191101074219,0.6926589784548323,122.0,735.0
B,L,"[4, 2]",1.0,4.0,0.2869560718536377,1.9944069385528564,0.703682350299707,122.0,736.0
Y,R,"[4, 3]",-1.0,4.0,0.0631561279296875,5.542110919952393,0.3462325302390657,122.0,737.0
G,D,"[5, 3]",1.0,5.0,0.2750728130340576,1.9644889831542969,0.6938417279541309,122.0,738.0
,,"(3, 3)",,,,,,122.0,
G,D,"[4, 3]",1.0,1.0,0.9042518138885498,3.634232997894287,0.7113707963676943,,739.0
G,D,"[5, 3]",1.0,2.0,0.22825384140014648,1.6497361660003662,0.428061852759407,123.0,740.0
R,U,"[4, 3]",1.0,3.0,0.26024889945983887,1.9301221370697021,0.6745682463084337,123.0,741.0
B,L,"[4, 2]",1.0,4.0,0.27902817726135254,1.5515120029449463,0.2765360448042537,123.0,742.0
Y,R,"[4, 3]",1.0,5.0,0.30915188789367676,1.7056381702423096,0.3988047667642419,123.0,743.0
G,D,"[5, 3]",1.0,6.0,0.23128104209899902,1.6428139209747314,0.40823026843202886,123.0,744.0
,,"(3, 3)",,,,,,123.0,
G,D,"[4, 3]",1.0,1.0,0.559581995010376,2.2575550079345703,0.3326165029873906,,745.0
G,D,"[5, 3]",1.0,2.0,0.22743988037109375,1.5397729873657227,0.30577991723122605,124.0,746.0
R,U,"[4, 3]",1.0,3.0,0.3032829761505127,1.9196770191192627,0.6085966907270115,124.0,747.0
B,L,"[4, 2]",1.0,4.0,0.2364790439605713,1.6607789993286133,0.4195482777666361,124.0,748.0
Y,R,"[4, 3]",1.0,5.0,0.3559248447418213,1.870694875717163,0.5068353525725724,124.0,749.0
G,D,"[5, 3]",1.0,6.0,0.25334715843200684,1.689687967300415,0.42990032894610297,124.0,750.0
,,"(3, 3)",,,,,,124.0,
G,D,"[4, 3]",1.0,1.0,0.6489648818969727,2.5982980728149414,0.5614865762989689,,751.0
G,D,"[5, 3]",1.0,2.0,0.22913503646850586,1.6038861274719238,0.3822237008742341,125.0,752.0
R,U,"[4, 3]",1.0,3.0,0.2286360263824463,1.6578631401062012,0.4233486856047407,125.0,753.0
B,L,"[4, 2]",1.0,4.0,0.2746880054473877,1.7608258724212646,0.4841738317138521,125.0,754.0
Y,R,"[4, 3]",1.0,5.0,0.26097798347473145,1.7574880123138428,0.491792769677104,125.0,755.0
G,D,"[5, 3]",1.0,6.0,0.22608494758605957,1.969243049621582,0.74452696162122,125.0,756.0
,,"(3, 3)",,,,,,125.0,
G,D,"[4, 3]",1.0,1.0,0.4698340892791748,2.452623128890991,0.6134388307217173,,757.0
G,D,"[5, 3]",1.0,2.0,0.3101189136505127,1.5726919174194336,0.2533724754716607,126.0,758.0
R,U,"[4, 3]",1.0,3.0,0.2802250385284424,1.884896993637085,0.6044813795013633,126.0,759.0
B,L,"[4, 2]",1.0,4.0,0.24816107749938965,1.8619210720062256,0.6163423906624752,126.0,760.0
Y,R,"[4, 3]",1.0,5.0,0.21746397018432617,1.501039981842041,0.2845235821792704,126.0,761.0
G,D,"[5, 3]",1.0,6.0,0.24644112586975098,1.8776330947875977,0.6285538892678936,126.0,762.0
,,"(3, 3)",,,,,,126.0,
G,D,"[4, 3]",1.0,1.0,0.5060920715332031,3.3857290744781494,0.7308864268247042,,763.0
G,D,"[5, 3]",1.0,2.0,0.3311798572540283,1.917633056640625,0.5821996496430739,127.0,764.0
R,U,"[4, 3]",1.0,3.0,0.262509822845459,1.7389700412750244,0.4710594270530194,127.0,765.0
B,L,"[4, 2]",1.0,4.0,0.24214816093444824,1.6894080638885498,0.4440073258259538,127.0,766.0
Y,R,"[4, 3]",1.0,5.0,0.23489809036254883,1.587510108947754,0.34816339458059375,127.0,767.0
G,D,"[5, 3]",1.0,6.0,0.2528190612792969,1.5609450340270996,0.29264545611307424,127.0,768.0
,,"(3, 3)",,,,,,127.0,
G,D,"[4, 3]",1.0,1.0,0.4506800174713135,2.7826449871063232,0.5750669603790522,,769.0
G,D,"[5, 3]",1.0,2.0,0.24060583114624023,1.7092108726501465,0.46758720049542346,128.0,770.0
R,U,"[4, 3]",1.0,3.0,0.2583498954772949,1.5970940589904785,0.3316029073551812,128.0,771.0
B,L,"[4, 2]",1.0,4.0,0.2750520706176758,1.8998768329620361,0.6144545104800425,128.0,772.0
Y,R,"[4, 3]",1.0,5.0,0.27312183380126953,1.5609209537506104,0.27574984793998913,128.0,773.0
G,D,"[5, 3]",1.0,6.0,0.2744119167327881,1.882498025894165,0.6082114300324413,128.0,774.0
,,"(3, 3)",,,,,,128.0,
G,D,"[4, 3]",1.0,1.0,0.5634169578552246,2.482697010040283,0.4075601218493544,,775.0
G,D,"[5, 3]",1.0,2.0,0.3015449047088623,2.027402877807617,0.7181406135296535,129.0,776.0
R,U,"[4, 3]",1.0,3.0,0.28366994857788086,1.6360011100769043,0.33757794331935626,129.0,777.0
B,L,"[4, 2]",1.0,4.0,0.26311302185058594,1.7710201740264893,0.5086186374122607,129.0,778.0
Y,R,"[4, 3]",1.0,5.0,0.26343703269958496,1.5088419914245605,0.250673673611468,129.0,779.0
G,D,"[5, 3]",1.0,6.0,0.22188401222229004,1.8491549491882324,0.6166554150961484,129.0,780.0
,,"(3, 3)",,,,,,129.0,
G,D,"[4, 3]",1.0,1.0,0.5447940826416016,2.3708038330078125,0.321051343936414,,781.0
G,D,"[5, 3]",1.0,2.0,0.2705118656158447,1.742555856704712,0.46360297011240004,130.0,782.0
R,U,"[4, 3]",1.0,3.0,0.2304859161376953,1.6490561962127686,0.4125777946587447,130.0,783.0
B,L,"[4, 2]",1.0,4.0,0.28024792671203613,1.906750202178955,0.6359430688177636,130.0,784.0
Y,R,"[4, 3]",1.0,5.0,0.2226269245147705,1.9296300411224365,0.6987457755608629,130.0,785.0
G,D,"[5, 3]",1.0,6.0,0.22026991844177246,1.6805050373077393,0.4462003376974617,130.0,786.0
,,"(3, 3)",,,,,,130.0,
G,D,"[4, 3]",1.0,1.0,0.4769120216369629,2.601736068725586,0.5477527570238773,,787.0
G,D,"[5, 3]",1.0,2.0,0.3051259517669678,1.8141589164733887,0.4955788771468494,131.0,788.0
R,U,"[4, 3]",1.0,3.0,0.3003361225128174,1.5965490341186523,0.2923497471498138,131.0,789.0
B,L,"[4, 2]",1.0,4.0,0.29538702964782715,1.9270000457763672,0.635576234602305,131.0,790.0
Y,R,"[4, 3]",1.0,5.0,0.22989702224731445,1.7745890617370605,0.5436172546395401,131.0,791.0
G,D,"[5, 3]",1.0,6.0,0.23345303535461426,1.568052053451538,0.3287399124342082,131.0,792.0
,,"(3, 3)",,,,,,131.0,
G,D,"[4, 3]",1.0,1.0,0.6204900741577148,2.6919100284576416,0.7036078645256265,,793.0
G,D,"[5, 3]",1.0,2.0,0.24794292449951172,1.8720757961273193,0.6257406829091747,132.0,794.0
R,U,"[4, 3]",1.0,3.0,0.24217700958251953,1.759124994277954,0.5183281286599593,132.0,795.0
B,L,"[4, 2]",1.0,4.0,0.23355889320373535,1.7436399459838867,0.49538579141350314,132.0,796.0
Y,R,"[4, 3]",1.0,5.0,0.22942590713500977,1.4827449321746826,0.26185379730081204,132.0,797.0
G,D,"[5, 3]",1.0,6.0,0.27521204948425293,1.9472301006317139,0.6753109771710457,132.0,798.0
,,"(3, 3)",,,,,,132.0,
G,D,"[4, 3]",1.0,1.0,0.5347418785095215,2.7766830921173096,0.6853749391911168,,799.0
G,D,"[5, 3]",1.0,2.0,0.21395111083984375,1.7260210514068604,0.5114395148494821,133.0,800.0
R,U,"[4, 3]",1.0,3.0,0.25037598609924316,1.5899651050567627,0.3350739948033436,133.0,801.0
B,L,"[4, 2]",1.0,4.0,0.3416481018066406,1.6126430034637451,0.2643627815853684,133.0,802.0
Y,R,"[4, 3]",1.0,5.0,0.32384800910949707,1.9183850288391113,0.5825538856388673,133.0,803.0
G,D,"[5, 3]",1.0,6.0,0.18204689025878906,1.5322589874267578,0.33165584772872214,133.0,804.0
,,"(3, 3)",,,,,,133.0,
G,D,"[4, 3]",-1.0,-1.0,0.552933931350708,2.779496908187866,0.744259136450913,,805.0
G,D,"[5, 3]",-1.0,-2.0,0.4672729969024658,1.9340410232543945,0.46188886645547733,134.0,806.0
R,U,"[4, 3]",-1.0,-3.0,0.2087860107421875,1.47837495803833,0.27372182784313953,134.0,807.0
B,L,"[4, 2]",-1.0,-4.0,0.23775005340576172,1.6183571815490723,0.3753332934668644,134.0,808.0
Y,R,"[4, 3]",-1.0,-5.0,0.22920703887939453,1.5048019886016846,0.280133140225615,134.0,809.0
G,D,"[5, 3]",-1.0,-6.0,0.2316749095916748,1.8841488361358643,0.6306898783985049,134.0,810.0
,,"(3, 3)",,,,,,134.0,
B,L,"[3, 2]",-2.0,0.0,1.8975279331207275,4.314600944519043,0.595597136835534,,811.0
B,L,"[3, 1]",1.0,1.0,0.24024009704589844,1.81787109375,0.5801845979110982,135.0,812.0
R,U,"[2, 1]",1.0,2.0,0.4118349552154541,1.9455490112304688,0.5256475612774264,135.0,813.0
B,L,"[2, 0]",0.0,2.0,0.40076303482055664,1.6678969860076904,0.26059801951484163,135.0,814.0
G,D,"[3, 0]",0.0,2.0,0.26443004608154297,1.91986083984375,0.6633620772797584,135.0,815.0
B,L,"[3, 0]",0.0,2.0,0.2447960376739502,1.824448823928833,0.5713301980923541,135.0,816.0
,,"(3, 3)",,,,,,135.0,
B,L,"[3, 2]",-1.0,-1.0,0.6793079376220703,3.0559329986572266,0.29420076016311464,,817.0
G,D,"[4, 2]",-1.0,-2.0,0.25938916206359863,1.86873197555542,0.6124089674902174,136.0,818.0
R,U,"[3, 2]",-1.0,-3.0,0.32410597801208496,1.7846019268035889,0.447360088569755,136.0,819.0
Y,R,"[3, 3]",-2.0,-5.0,0.5160198211669922,2.109689950942993,0.5737324493171166,136.0,820.0
G,D,"[4, 3]",-1.0,-6.0,0.2109050750732422,1.6402289867401123,0.4141811420569033,136.0,821.0
B,L,"[4, 2]",-1.0,-7.0,0.38796496391296387,1.779205083847046,0.3766822965036247,136.0,822.0
,,"(3, 3)",,,,,,136.0,
R,U,"[2, 3]",1.0,1.0,0.6418900489807129,3.1979830265045166,0.3416181530690289,,823.0
Y,R,"[2, 4]",-1.0,0.0,0.771669864654541,2.1372029781341553,0.3620183499934001,137.0,824.0
R,U,"[1, 4]",-1.0,-1.0,0.269503116607666,1.59098482131958,0.3197931968590618,137.0,825.0
B,L,"[1, 3]",-1.0,-2.0,0.1533980369567871,1.5462470054626465,0.38253654408176624,137.0,826.0
G,D,"[2, 3]",1.0,-1.0,0.24033689498901367,1.501697063446045,0.2510668105661022,137.0,827.0
G,D,"[3, 3]",-2.0,-3.0,0.4144120216369629,2.0348751544952393,0.6023111255472944,137.0,828.0
,,"(3, 3)",,,,,,137.0,
R,U,"[2, 3]",-2.0,0.0,1.8188040256500244,4.188930988311768,0.5580342823123279,,829.0
R,U,"[1, 3]",-1.0,-1.0,0.2680540084838867,1.9124040603637695,0.6370101234073315,138.0,830.0
B,L,"[1, 2]",1.0,0.0,0.21737885475158691,1.5571308135986328,0.32786570554865113,138.0,831.0
G,D,"[2, 2]",1.0,1.0,0.22531700134277344,1.803980827331543,0.5816255115027935,138.0,832.0
G,D,"[3, 2]",-1.0,0.0,0.2716710567474365,2.019737958908081,0.73454491894778,138.0,833.0
B,L,"[3, 1]",1.0,1.0,0.23127412796020508,1.5691490173339844,0.32079158334870367,138.0,834.0
,,"(3, 3)",,,,,,138.0,
B,L,"[3, 2]",-1.0,-1.0,0.7434921264648438,3.5309410095214844,0.4017749801863808,,835.0
G,D,"[4, 2]",-1.0,-2.0,0.2312757968902588,1.6876790523529053,0.456033636088648,139.0,836.0
R,U,"[3, 2]",-1.0,-3.0,0.24218297004699707,1.8998761177062988,0.6556711309547996,139.0,837.0
Y,R,"[3, 3]",-2.0,-5.0,0.2671217918395996,1.7011210918426514,0.4239045882666326,139.0,838.0
Y,R,"[3, 4]",-1.0,-6.0,0.21408295631408691,1.7810189723968506,0.5546687925029858,139.0,839.0
Y,R,"[3, 5]",-1.0,-7.0,0.4728121757507324,1.9195711612701416,0.4410603582377747,139.0,840.0
,,"(3, 3)",,,,,,139.0,
G,D,"[4, 3]",-1.0,-1.0,0.9485740661621094,3.339142084121704,0.7465687465263271,,841.0
G,D,"[5, 3]",-1.0,-2.0,0.24051904678344727,1.7916820049285889,0.5385301167612713,140.0,842.0
R,U,"[4, 3]",-1.0,-3.0,0.25959110260009766,1.9877450466156006,0.7262790385784871,140.0,843.0
G,D,"[5, 3]",-1.0,-4.0,0.17602801322937012,1.600902795791626,0.42736048136284216,140.0,844.0
B,L,"[5, 2]",-1.0,-5.0,0.231003999710083,1.8573648929595947,0.6180091741174457,140.0,845.0
G,D,"[6, 2]",0.0,-5.0,0.23786592483520508,1.5205011367797852,0.2721435569471775,140.0,846.0
,,"(3, 3)",,,,,,140.0,
B,L,"[3, 2]",-2.0,0.0,1.327409029006958,4.3023681640625,0.49099779663746285,,847.0
G,D,"[4, 2]",-1.0,-1.0,0.2869560718536377,1.7290430068969727,0.4535267409028844,141.0,848.0
R,U,"[3, 2]",-1.0,-2.0,0.27147483825683594,1.7495081424713135,0.46972627842014103,141.0,849.0
G,D,"[4, 2]",-1.0,-3.0,0.21951603889465332,1.5150060653686523,0.28481989524825985,141.0,850.0
B,L,"[4, 1]",-1.0,-4.0,0.29106712341308594,1.959939956665039,0.6613961087793496,141.0,851.0
G,D,"[5, 1]",-1.0,-4.0,0.04233098030090332,5.79117488861084,0.635821855762805,141.0,852.0
,,"(3, 3)",,,,,,141.0,
R,U,"[2, 3]",1.0,1.0,0.7137668132781982,4.106932163238525,0.5929382492359829,,853.0
B,L,"[2, 2]",1.0,2.0,0.34148311614990234,1.6943719387054443,0.35406851020289715,142.0,854.0
G,D,"[3, 2]",-1.0,1.0,0.27855610847473145,1.850667953491211,0.5713097634823687,142.0,855.0
R,U,"[2, 2]",1.0,2.0,0.38444995880126953,1.9169139862060547,0.5215255124548049,142.0,856.0
Y,R,"[2, 3]",1.0,3.0,0.2671229839324951,1.5819039344787598,0.30374184423986905,142.0,857.0
B,L,"[2, 2]",1.0,4.0,0.33676791191101074,1.6228129863739014,0.2765738185919747,142.0,858.0
,,"(3, 3)",,,,,,142.0,
R,U,"[2, 3]",1.0,1.0,0.6930680274963379,3.4214489459991455,0.7142624278237113,,859.0
B,L,"[2, 2]",1.0,2.0,0.28383803367614746,1.6744210720062256,0.37244663851964954,143.0,860.0
R,U,"[1, 2]",1.0,3.0,0.24332404136657715,1.6498801708221436,0.40560274609063296,143.0,861.0
G,D,"[2, 2]",1.0,4.0,0.6411721706390381,1.9352190494537354,0.29103074264941614,143.0,862.0
Y,R,"[2, 3]",1.0,5.0,0.35187196731567383,1.7786891460418701,0.4196312304352269,143.0,863.0
B,L,"[2, 2]",1.0,6.0,0.28364014625549316,1.9842100143432617,0.6870117069868447,143.0,864.0
,,"(3, 3)",,,,,,143.0,
R,U,"[2, 3]",1.0,1.0,0.6942739486694336,2.7595930099487305,0.5965799803704606,,865.0
B,L,"[2, 2]",1.0,2.0,0.24092793464660645,1.9510371685028076,0.6975886787020793,144.0,866.0
R,U,"[1, 2]",1.0,3.0,0.22106218338012695,1.7181339263916016,0.4826374008751631,144.0,867.0
G,D,"[2, 2]",1.0,4.0,0.23123407363891602,1.8105270862579346,0.559543885122824,144.0,868.0
Y,R,"[2, 3]",1.0,5.0,0.22228503227233887,1.499837875366211,0.2766069813608968,144.0,869.0
B,L,"[2, 2]",1.0,6.0,0.25063109397888184,1.7192490100860596,0.462316001218531,144.0,870.0
,,"(3, 3)",,,,,,144.0,
R,U,"[2, 3]",1.0,1.0,0.5977559089660645,2.6691040992736816,0.46483351277410695,,871.0
B,L,"[2, 2]",1.0,2.0,0.23640918731689453,1.6682770252227783,0.41652079676564885,145.0,872.0
R,U,"[1, 2]",1.0,3.0,0.24085402488708496,1.9857120513916016,0.7352369004304505,145.0,873.0
G,D,"[2, 2]",1.0,4.0,0.24861907958984375,1.8825931549072266,0.6180633769047013,145.0,874.0
Y,R,"[2, 3]",1.0,5.0,0.27160120010375977,1.6440210342407227,0.3623747669597455,145.0,875.0
B,L,"[2, 2]",1.0,6.0,0.2182319164276123,1.7517459392547607,0.5306004774609572,145.0,876.0
,,"(3, 3)",,,,,,145.0,
R,U,"[2, 3]",1.0,1.0,0.6359620094299316,2.312389850616455,0.2600874164333536,,877.0
B,L,"[2, 2]",1.0,2.0,0.2586040496826172,1.9204440116882324,0.6633157540107008,146.0,878.0
R,U,"[1, 2]",1.0,3.0,0.2392740249633789,1.7092220783233643,0.4561605188549848,146.0,879.0
G,D,"[2, 2]",1.0,4.0,0.1962440013885498,1.6669120788574219,0.473018659707153,146.0,880.0
Y,R,"[2, 3]",1.0,5.0,0.23380279541015625,1.6706771850585938,0.42711406726688633,146.0,881.0
B,L,"[2, 2]",1.0,6.0,0.18611598014831543,1.451793909072876,0.2624325943824685,146.0,882.0
,,"(3, 3)",,,,,,146.0,
R,U,"[2, 3]",1.0,1.0,0.606238842010498,2.5592730045318604,0.38852208095250096,,883.0
B,L,"[2, 2]",1.0,2.0,0.20659399032592773,1.6359658241271973,0.4243408965380361,147.0,884.0
R,U,"[1, 2]",1.0,3.0,0.22739577293395996,1.8137428760528564,0.5879272629052972,147.0,885.0
G,D,"[2, 2]",1.0,4.0,0.22681593894958496,1.557340145111084,0.3286556009407756,147.0,886.0
Y,R,"[2, 3]",1.0,5.0,0.33173179626464844,1.8239779472351074,0.5026481652243338,147.0,887.0
B,L,"[2, 2]",1.0,6.0,0.24245405197143555,1.8414759635925293,0.5941784368995773,147.0,888.0
,,"(3, 3)",,,,,,147.0,
R,U,"[2, 3]",1.0,1.0,0.5576779842376709,2.262876033782959,0.34065214438365105,,889.0
B,L,"[2, 2]",1.0,2.0,0.28585386276245117,1.9838941097259521,0.6907536194489705,148.0,890.0
R,U,"[1, 2]",1.0,3.0,0.2233109474182129,1.9515070915222168,0.7256414099035305,148.0,891.0
G,D,"[2, 2]",1.0,4.0,0.2423410415649414,1.7165799140930176,0.47578986271040763,148.0,892.0
Y,R,"[2, 3]",1.0,5.0,0.23492693901062012,1.510450839996338,0.2699809851626647,148.0,893.0
B,L,"[2, 2]",1.0,6.0,0.22832202911376953,1.7485308647155762,0.5181714894034675,148.0,894.0
,,"(3, 3)",,,,,,148.0,
R,U,"[2, 3]",1.0,1.0,0.4607510566711426,2.552731990814209,0.5209270374481278,,895.0
B,L,"[2, 2]",1.0,2.0,0.23342299461364746,1.8838179111480713,0.6546367413493537,149.0,896.0
R,U,"[1, 2]",1.0,3.0,0.25622105598449707,1.6932590007781982,0.4314654571071332,149.0,897.0
G,D,"[2, 2]",1.0,4.0,0.2781248092651367,1.8778769969940186,0.5926070182532654,149.0,898.0
Y,R,"[2, 3]",1.0,5.0,0.25890207290649414,1.600022792816162,0.3428654270920794,149.0,899.0
B,L,"[2, 2]",1.0,6.0,0.312575101852417,2.0384368896484375,0.731013961654409,149.0,900.0
,,"(3, 3)",,,,,,149.0,
R,U,"[2, 3]",1.0,1.0,0.5334107875823975,2.671757221221924,0.6195156671417791,,901.0
B,L,"[2, 2]",1.0,2.0,0.2910280227661133,1.7764489650726318,0.4794741769567375,150.0,902.0
R,U,"[1, 2]",1.0,3.0,0.2827911376953125,1.7715442180633545,0.4843552317932384,150.0,903.0
G,D,"[2, 2]",1.0,4.0,0.4812030792236328,1.7523870468139648,0.2703925544459375,150.0,904.0
Y,R,"[2, 3]",1.0,5.0,0.3412790298461914,2.089859962463379,0.74312602152704,150.0,905.0
B,L,"[2, 2]",1.0,6.0,0.20899295806884766,1.7791051864624023,0.5723487415754998,150.0,906.0
,,"(3, 3)",,,,,,150.0,
R,U,"[2, 3]",1.0,1.0,0.5110070705413818,2.1583359241485596,0.28105941384379374,,907.0
B,L,"[2, 2]",1.0,2.0,0.27036094665527344,1.622741937637329,0.3372072353911671,151.0,908.0
R,U,"[1, 2]",1.0,3.0,0.24168014526367188,1.6889398097991943,0.4427324390158565,151.0,909.0
G,D,"[2, 2]",1.0,4.0,0.24124908447265625,1.6124958992004395,0.37189920406554805,151.0,910.0
Y,R,"[2, 3]",1.0,5.0,0.2447509765625,1.9801690578460693,0.7350669780067967,151.0,911.0
B,L,"[2, 2]",1.0,6.0,0.2284231185913086,1.518953800201416,0.2878100040936651,151.0,912.0
,,"(3, 3)",,,,,,151.0,
R,U,"[2, 3]",1.0,1.0,0.4886350631713867,2.070401906967163,0.2583995189589112,,913.0
B,L,"[2, 2]",1.0,2.0,0.2572309970855713,1.5391581058502197,0.2809094654661222,152.0,914.0
R,U,"[1, 2]",1.0,3.0,0.2641410827636719,1.9134869575500488,0.6438896605093312,152.0,915.0
G,D,"[2, 2]",1.0,4.0,0.2673461437225342,1.7630598545074463,0.49050919248551816,152.0,916.0
Y,R,"[2, 3]",1.0,5.0,0.25559115409851074,1.6036779880523682,0.34429642303854663,152.0,917.0
B,L,"[2, 2]",1.0,6.0,0.22762703895568848,1.9306628704071045,0.708039844316908,152.0,918.0
,,"(3, 3)",,,,,,152.0,
R,U,"[2, 3]",1.0,1.0,0.7773220539093018,2.74033784866333,0.4487665790386302,,919.0
B,L,"[2, 2]",1.0,2.0,0.2974700927734375,1.6389739513397217,0.33776124744742253,153.0,920.0
R,U,"[1, 2]",1.0,3.0,0.23840904235839844,1.510875940322876,0.26549978969651955,153.0,921.0
G,D,"[2, 2]",1.0,4.0,0.22958016395568848,1.8462109565734863,0.6112520569233492,153.0,922.0
Y,R,"[2, 3]",1.0,5.0,0.2284691333770752,1.8775169849395752,0.6554043000355418,153.0,923.0
B,L,"[2, 2]",1.0,6.0,0.18832993507385254,1.807332992553711,0.6128412282824127,153.0,924.0
,,"(3, 3)",,,,,,153.0,
R,U,"[2, 3]",1.0,1.0,0.9185559749603271,2.51115083694458,0.30769936069348586,,925.0
B,L,"[2, 2]",1.0,2.0,0.26464104652404785,1.8953909873962402,0.6361921350445041,154.0,926.0
R,U,"[1, 2]",1.0,3.0,0.24374794960021973,1.5436780452728271,0.29682803127131124,154.0,927.0
G,D,"[2, 2]",1.0,4.0,0.27381396293640137,1.788755178451538,0.5019636004952481,154.0,928.0
Y,R,"[2, 3]",1.0,5.0,0.24735784530639648,1.874629020690918,0.6266149223066145,154.0,929.0
B,L,"[2, 2]",1.0,6.0,0.2314000129699707,1.7374920845031738,0.5142282139717069,154.0,930.0
,,"(3, 3)",,,,,,154.0,
R,U,"[2, 3]",1.0,1.0,0.4994969367980957,2.5360169410705566,0.5669193049134751,,931.0
B,L,"[2, 2]",1.0,2.0,0.1995680332183838,1.8766658306121826,0.6601473723712903,155.0,932.0
R,U,"[1, 2]",1.0,3.0,0.2249441146850586,1.7330758571624756,0.5101047618293224,155.0,933.0
G,D,"[2, 2]",1.0,4.0,0.21466994285583496,1.5369179248809814,0.3305125227626679,155.0,934.0
Y,R,"[2, 3]",1.0,5.0,0.25289106369018555,1.7080519199371338,0.43849920080263566,155.0,935.0
B,L,"[2, 2]",1.0,6.0,0.18698406219482422,1.9328279495239258,0.7378543810673248,155.0,936.0
,,"(3, 3)",,,,,,155.0,
R,U,"[2, 3]",1.0,1.0,0.49707889556884766,2.4654300212860107,0.37017161616867883,,937.0
B,L,"[2, 2]",1.0,2.0,0.38086819648742676,1.9764440059661865,0.5965015456261877,156.0,938.0
R,U,"[1, 2]",1.0,3.0,0.23269391059875488,1.9616100788116455,0.7080276314357175,156.0,939.0
G,D,"[2, 2]",1.0,4.0,0.1350409984588623,1.4497570991516113,0.3082999492747203,156.0,940.0
Y,R,"[2, 3]",1.0,5.0,0.2948570251464844,1.8015069961547852,0.509653225059068,156.0,941.0
B,L,"[2, 2]",1.0,6.0,0.22303104400634766,1.8040168285369873,0.5801583870148146,156.0,942.0
,,"(3, 3)",,,,,,156.0,
R,U,"[2, 3]",1.0,1.0,0.4160888195037842,2.194708824157715,0.3918403968791665,,943.0
B,L,"[2, 2]",1.0,2.0,0.24593496322631836,1.982071876525879,0.7402478104443662,157.0,944.0
R,U,"[1, 2]",-1.0,2.0,0.03503894805908203,5.6673948764801025,0.5080324193454303,157.0,945.0
G,D,"[2, 2]",1.0,3.0,0.27334094047546387,1.560478925704956,0.2853220062968255,157.0,946.0
Y,R,"[2, 3]",1.0,4.0,0.2665231227874756,1.6467890739440918,0.3654108378538733,157.0,947.0
B,L,"[2, 2]",1.0,5.0,0.24164104461669922,1.8563189506530762,0.6047609022895246,157.0,948.0
,,"(3, 3)",,,,,,157.0,
R,U,"[2, 3]",1.0,1.0,0.5470738410949707,2.279937982559204,0.3019481083927158,,949.0
B,L,"[2, 2]",1.0,2.0,0.2302381992340088,1.8728811740875244,0.6410514120178565,158.0,950.0
R,U,"[1, 2]",1.0,3.0,0.30095386505126953,1.6993629932403564,0.3906435854219247,158.0,951.0
G,D,"[2, 2]",1.0,4.0,0.22715306282043457,1.6834430694580078,0.45723874381974855,158.0,952.0
Y,R,"[2, 3]",1.0,5.0,0.2766869068145752,1.764631986618042,0.48865675283685783,158.0,953.0
B,L,"[2, 2]",1.0,6.0,0.29517292976379395,1.9581220149993896,0.6632208141953935,158.0,954.0
,,"(3, 3)",,,,,,158.0,
R,U,"[2, 3]",1.0,1.0,0.5399260520935059,2.7391579151153564,0.6857813778841156,,955.0
B,L,"[2, 2]",1.0,2.0,0.2902531623840332,2.017650842666626,0.7201549287292273,159.0,956.0
R,U,"[1, 2]",1.0,3.0,0.23479199409484863,1.6808979511260986,0.45143453876507994,159.0,957.0
G,D,"[2, 2]",1.0,4.0,0.2252800464630127,1.9236540794372559,0.6914817542080329,159.0,958.0
Y,R,"[2, 3]",1.0,5.0,0.24968290328979492,1.7424590587615967,0.48420304856805285,159.0,959.0
B,L,"[2, 2]",1.0,6.0,0.25170016288757324,1.7065529823303223,0.4407491294166939,159.0,960.0
,,"(3, 3)",,,,,,159.0,
R,U,"[2, 3]",1.0,1.0,0.4949679374694824,2.481428861618042,0.5057625549435796,,961.0
B,L,"[2, 2]",1.0,2.0,0.24048900604248047,1.5391690731048584,0.29492757925503993,160.0,962.0
R,U,"[1, 2]",1.0,3.0,0.2823669910430908,1.5877759456634521,0.2994749915421425,160.0,963.0
G,D,"[2, 2]",1.0,4.0,0.2932138442993164,2.0019729137420654,0.7009723571588553,160.0,964.0
Y,R,"[2, 3]",1.0,5.0,0.19148802757263184,1.6616621017456055,0.4629034088944804,160.0,965.0
B,L,"[2, 2]",1.0,6.0,0.23079299926757812,1.7676200866699219,0.5305399222793381,160.0,966.0
,,"(3, 3)",,,,,,160.0,
R,U,"[2, 3]",1.0,1.0,0.4847109317779541,2.497958183288574,0.5619055942192568,,967.0
B,L,"[2, 2]",1.0,2.0,0.20174193382263184,1.8721389770507812,0.6671943625925008,161.0,968.0
R,U,"[1, 2]",1.0,3.0,0.22679495811462402,1.862997055053711,0.6303375138449936,161.0,969.0
G,D,"[2, 2]",1.0,4.0,0.24922895431518555,1.7153830528259277,0.4457685504236731,161.0,970.0
Y,R,"[2, 3]",1.0,5.0,0.24018001556396484,1.8749468326568604,0.6373580544326677,161.0,971.0
B,L,"[2, 2]",1.0,6.0,0.20581603050231934,1.6535751819610596,0.44101380215154323,161.0,972.0
,,"(3, 3)",,,,,,161.0,
R,U,"[2, 3]",1.0,1.0,0.5442559719085693,2.301100969314575,0.3590765148555954,,973.0
B,L,"[2, 2]",1.0,2.0,0.2293109893798828,1.5539989471435547,0.3296950368826954,162.0,974.0
R,U,"[1, 2]",1.0,3.0,0.29332709312438965,1.8155910968780518,0.5117230958274916,162.0,975.0
G,D,"[2, 2]",1.0,4.0,0.23955392837524414,1.5662670135498047,0.32834701508642133,162.0,976.0
Y,R,"[2, 3]",1.0,5.0,0.257688045501709,1.5518012046813965,0.2968389690504512,162.0,977.0
B,L,"[2, 2]",1.0,6.0,0.23267698287963867,1.543018102645874,0.2898101924791611,162.0,978.0
,,"(3, 3)",,,,,,162.0,
R,U,"[2, 3]",1.0,1.0,0.46871495246887207,2.4529030323028564,0.4925540637442819,,979.0
B,L,"[2, 2]",1.0,2.0,0.23392391204833984,1.7881479263305664,0.5640533464172746,163.0,980.0
R,U,"[1, 2]",1.0,3.0,0.22819304466247559,1.8638200759887695,0.6278344506187202,163.0,981.0
G,D,"[2, 2]",1.0,4.0,0.2100980281829834,1.6661670207977295,0.460829309113713,163.0,982.0
Y,R,"[2, 3]",1.0,5.0,0.33247804641723633,1.667072057723999,0.3448383206269368,163.0,983.0
B,L,"[2, 2]",1.0,6.0,0.2590830326080322,1.8247449398040771,0.5692706875015705,163.0,984.0
,,"(3, 3)",,,,,,163.0,
R,U,"[2, 3]",1.0,1.0,0.47288990020751953,2.3618719577789307,0.3647263659820103,,985.0
B,L,"[2, 2]",1.0,2.0,0.20322513580322266,1.5728211402893066,0.354277655109826,164.0,986.0
R,U,"[1, 2]",1.0,3.0,0.22637701034545898,1.8133471012115479,0.5840210239811677,164.0,987.0
G,D,"[2, 2]",1.0,4.0,0.21091294288635254,1.6283822059631348,0.4125693998238651,164.0,988.0
Y,R,"[2, 3]",1.0,5.0,0.23830294609069824,1.5723788738250732,0.335079917960092,164.0,989.0
B,L,"[2, 2]",1.0,6.0,0.33106184005737305,1.6932039260864258,0.36166871285766955,164.0,990.0
,,"(3, 3)",,,,,,164.0,
R,U,"[2, 3]",1.0,1.0,0.5280120372772217,2.3473060131073,0.45903651203601287,,991.0
B,L,"[2, 2]",1.0,2.0,0.2977890968322754,1.7622551918029785,0.4711530497398145,165.0,992.0
R,U,"[1, 2]",1.0,3.0,0.19318604469299316,1.8727428913116455,0.6770140728461214,165.0,993.0
G,D,"[2, 2]",1.0,4.0,0.22051596641540527,1.5709178447723389,0.34845628332161876,165.0,994.0
Y,R,"[2, 3]",1.0,5.0,0.2986280918121338,1.9531259536743164,0.6512186078647377,165.0,995.0
B,L,"[2, 2]",1.0,6.0,0.23929595947265625,1.5212020874023438,0.272804485059311,165.0,996.0
,,"(3, 3)",,,,,,165.0,
R,U,"[2, 3]",1.0,1.0,0.41904783248901367,2.6303770542144775,0.6696203501227288,,997.0
B,L,"[2, 2]",1.0,2.0,0.25516605377197266,1.9626741409301758,0.6988526457734712,166.0,998.0
R,U,"[1, 2]",1.0,3.0,0.23378491401672363,1.8406250476837158,0.5895656774715746,166.0,999.0
G,D,"[2, 2]",1.0,4.0,0.22438597679138184,1.7613961696624756,0.5344974837762806,166.0,1000.0
Y,R,"[2, 3]",1.0,5.0,0.18877100944519043,1.7109169960021973,0.512004550852778,166.0,1001.0
B,L,"[2, 2]",1.0,6.0,0.23093390464782715,1.6730940341949463,0.4518952544472969,166.0,1002.0
,,"(3, 3)",,,,,,166.0,
R,U,"[2, 3]",1.0,1.0,0.5057599544525146,2.3739700317382812,0.44271486795365583,,1003.0
B,L,"[2, 2]",1.0,2.0,0.20808196067810059,1.7234020233154297,0.5160260929155138,167.0,1004.0
R,U,"[1, 2]",1.0,3.0,0.2398819923400879,1.6251420974731445,0.3746002135145669,167.0,1005.0
G,D,"[2, 2]",1.0,4.0,0.23523402214050293,1.8862030506134033,0.6438348497877211,167.0,1006.0
Y,R,"[2, 3]",1.0,5.0,0.20304298400878906,1.513988971710205,0.3082289930755156,167.0,1007.0
B,L,"[2, 2]",1.0,6.0,0.2673370838165283,1.9616658687591553,0.6862686649248131,167.0,1008.0
,,"(3, 3)",,,,,,167.0,
R,U,"[2, 3]",1.0,1.0,0.49936604499816895,2.5986979007720947,0.6184372857327707,,1009.0
B,L,"[2, 2]",1.0,2.0,0.23739981651306152,1.6786630153656006,0.43056335798732603,168.0,1010.0
R,U,"[1, 2]",1.0,3.0,0.2675209045410156,1.8929269313812256,0.6066402746712789,168.0,1011.0
G,D,"[2, 2]",1.0,4.0,0.17214393615722656,1.4405450820922852,0.26442727912798253,168.0,1012.0
Y,R,"[2, 3]",1.0,5.0,0.2710449695587158,1.6430010795593262,0.3572898440224698,168.0,1013.0
B,L,"[2, 2]",1.0,6.0,0.12190699577331543,1.4998819828033447,0.3737582643797895,168.0,1014.0
,,"(3, 3)",,,,,,168.0,
R,U,"[2, 3]",1.0,1.0,0.45717501640319824,2.432152032852173,0.389378024962082,,1015.0
B,L,"[2, 2]",1.0,2.0,0.1898210048675537,1.6963560581207275,0.5022019538946786,169.0,1016.0
R,U,"[1, 2]",1.0,3.0,0.24500012397766113,1.6709098815917969,0.42320105172793093,169.0,1017.0
G,D,"[2, 2]",1.0,4.0,0.2311849594116211,1.5401170253753662,0.31342730544044456,169.0,1018.0
Y,R,"[2, 3]",1.0,5.0,0.22319483757019043,1.885530948638916,0.6486591025085587,169.0,1019.0
B,L,"[2, 2]",-1.0,5.0,0.08409404754638672,5.625952959060669,0.4083655791643844,169.0,1020.0
,,"(3, 3)",,,,,,169.0,
R,U,"[2, 3]",1.0,1.0,0.761044979095459,3.345698118209839,0.603958927288776,,1021.0
B,L,"[2, 2]",1.0,2.0,0.23381900787353516,1.5664160251617432,0.32054866777384744,170.0,1022.0
R,U,"[1, 2]",1.0,3.0,0.28610801696777344,1.8793699741363525,0.5830331756781904,170.0,1023.0
G,D,"[2, 2]",1.0,4.0,0.3608229160308838,1.684471845626831,0.317797463902565,170.0,1024.0
Y,R,"[2, 3]",1.0,5.0,0.24257302284240723,1.6094248294830322,0.36065441754859867,170.0,1025.0
B,L,"[2, 2]",1.0,6.0,0.21056294441223145,1.5557208061218262,0.3496888959359585,170.0,1026.0
,,"(3, 3)",,,,,,170.0,
R,U,"[2, 3]",1.0,1.0,0.545863151550293,2.288794994354248,0.2721684163936747,,1027.0
B,L,"[2, 2]",1.0,2.0,0.2417900562286377,1.6689410209655762,0.42431353562249935,171.0,1028.0
R,U,"[1, 2]",1.0,3.0,0.21826815605163574,1.5585529804229736,0.33267218741870835,171.0,1029.0
G,D,"[2, 2]",1.0,4.0,0.28767895698547363,1.9568419456481934,0.672533362791117,171.0,1030.0
Y,R,"[2, 3]",1.0,5.0,0.24454307556152344,1.9430201053619385,0.6986799766475513,171.0,1031.0
B,L,"[2, 2]",1.0,6.0,0.25956106185913086,1.9091191291809082,0.641410981585225,171.0,1032.0
,,"(3, 3)",,,,,,171.0,
R,U,"[2, 3]",1.0,1.0,0.5666148662567139,2.2098588943481445,0.30171444158468985,,1033.0
B,L,"[2, 2]",1.0,2.0,0.2333848476409912,1.5024418830871582,0.2542567890185109,172.0,1034.0
R,U,"[1, 2]",1.0,3.0,0.2610769271850586,1.5163769721984863,0.25403385543189094,172.0,1035.0
G,D,"[2, 2]",1.0,4.0,0.2734830379486084,1.9211220741271973,0.6413350845137735,172.0,1036.0
Y,R,"[2, 3]",1.0,5.0,0.2148599624633789,1.7154340744018555,0.5070262767072876,172.0,1037.0
B,L,"[2, 2]",1.0,6.0,0.24725103378295898,1.53706693649292,0.2943590593661225,172.0,1038.0
,,"(3, 3)",,,,,,172.0,
R,U,"[2, 3]",1.0,1.0,0.4891080856323242,2.127851963043213,0.28912048736699814,,1039.0
B,L,"[2, 2]",1.0,2.0,0.2437429428100586,1.8964669704437256,0.651668299988938,173.0,1040.0
R,U,"[1, 2]",1.0,3.0,0.1979050636291504,1.7229208946228027,0.5246620051623068,173.0,1041.0
G,D,"[2, 2]",1.0,4.0,0.23632097244262695,1.5515990257263184,0.3098825481046682,173.0,1042.0
Y,R,"[2, 3]",1.0,5.0,0.25219106674194336,1.5748960971832275,0.3182196525440005,173.0,1043.0
B,L,"[2, 2]",1.0,6.0,0.2510340213775635,2.014871120452881,0.7493467091196571,173.0,1044.0
,,"(3, 3)",,,,,,173.0,
R,U,"[2, 3]",1.0,1.0,0.47606992721557617,2.7115731239318848,0.7276797723074445,,1045.0
B,L,"[2, 2]",1.0,2.0,0.2348921298980713,1.8531339168548584,0.6141684756102985,174.0,1046.0
R,U,"[1, 2]",1.0,3.0,0.21120905876159668,1.6577141284942627,0.4387192892336899,174.0,1047.0
G,D,"[2, 2]",1.0,4.0,0.223984956741333,1.889497995376587,0.661614178677201,174.0,1048.0
Y,R,"[2, 3]",1.0,5.0,0.2388918399810791,1.7810359001159668,0.5425118224331404,174.0,1049.0
B,L,"[2, 2]",1.0,6.0,0.29231786727905273,1.701658010482788,0.41103866759167923,174.0,1050.0
,,"(3, 3)",,,,,,174.0,
R,U,"[2, 3]",1.0,1.0,0.4665720462799072,2.3807339668273926,0.6083341559897206,,1051.0
B,L,"[2, 2]",1.0,2.0,0.20998597145080566,1.786107063293457,0.5777723038392639,175.0,1052.0
R,U,"[1, 2]",-1.0,2.0,0.05309700965881348,5.7148590087890625,0.5428934710865576,175.0,1053.0
G,D,"[2, 2]",1.0,3.0,0.24540996551513672,1.7431402206420898,0.5026688812271529,175.0,1054.0
Y,R,"[2, 3]",1.0,4.0,0.2749300003051758,1.8822519779205322,0.6015176406485657,175.0,1055.0
B,L,"[2, 2]",1.0,5.0,0.23418593406677246,1.825585126876831,0.5771644634454807,175.0,1056.0
,,"(3, 3)",,,,,,175.0,
R,U,"[2, 3]",1.0,1.0,0.6745491027832031,2.4695091247558594,0.3967181479907468,,1057.0
B,L,"[2, 2]",1.0,2.0,0.23948407173156738,1.6695160865783691,0.41645548026721535,176.0,1058.0
R,U,"[1, 2]",1.0,3.0,0.256742000579834,1.663996934890747,0.3970673470701843,176.0,1059.0
G,D,"[2, 2]",1.0,4.0,0.2472379207611084,1.9637360572814941,0.7104273320433121,176.0,1060.0
Y,R,"[2, 3]",1.0,5.0,0.2571840286254883,1.908397912979126,0.6523563295097456,176.0,1061.0
B,L,"[2, 2]",1.0,6.0,0.23350906372070312,1.9712879657745361,0.7236599992796542,176.0,1062.0
,,"(3, 3)",,,,,,176.0,
R,U,"[2, 3]",1.0,1.0,0.5215020179748535,2.4444479942321777,0.568344094808706,,1063.0
B,L,"[2, 2]",1.0,2.0,0.23305296897888184,1.6311509609222412,0.3831562639287533,177.0,1064.0
R,U,"[1, 2]",1.0,3.0,0.249161958694458,1.6147589683532715,0.3478470846713873,177.0,1065.0
G,D,"[2, 2]",1.0,4.0,0.24138402938842773,1.7087140083312988,0.456337764755766,177.0,1066.0
Y,R,"[2, 3]",1.0,5.0,0.23540091514587402,1.6337890625,0.39024611531492626,177.0,1067.0
B,L,"[2, 2]",1.0,6.0,0.26989102363586426,1.5384700298309326,0.262243448366207,177.0,1068.0
,,"(3, 3)",,,,,,177.0,
R,U,"[2, 3]",1.0,1.0,0.5422430038452148,2.501862049102783,0.4972013512081951,,1069.0
B,L,"[2, 2]",1.0,2.0,0.22220587730407715,1.5256261825561523,0.2898584898100057,178.0,1070.0
R,U,"[1, 2]",1.0,3.0,0.23249483108520508,1.92484712600708,0.6809295360332931,178.0,1071.0
G,D,"[2, 2]",1.0,4.0,0.24119901657104492,1.5256989002227783,0.27368818102248915,178.0,1072.0
Y,R,"[2, 3]",1.0,5.0,0.2237389087677002,1.8311238288879395,0.6044825507781288,178.0,1073.0
B,L,"[2, 2]",1.0,6.0,0.21449804306030273,1.9513499736785889,0.7390541403226252,178.0,1074.0
,,"(3, 3)",,,,,,178.0,
R,U,"[2, 3]",1.0,1.0,0.45193910598754883,2.316751003265381,0.45642831665268024,,1075.0
