button_choice,action_choice,coordinate_choice,reward,cumulative_reward,rt,total_trial_time,iti,block_n,trial_n
B,L,"[3, 2]",-2.0,0.0,2.2109949588775635,3.934699058532715,0.6849746362991069,0.0,1.0
R,U,"[2, 2]",-1.0,0.0,0.02692413330078125,5.622031927108765,0.4744792987931685,0.0,2.0
Y,R,"[2, 3]",-1.0,-1.0,0.5211119651794434,1.908972978591919,0.38353149140535997,0.0,3.0
R,U,"[1, 3]",1.0,0.0,0.8074920177459717,2.463038921356201,0.6462422508381438,0.0,4.0
G,D,"[2, 3]",-2.0,0.0,1.0240530967712402,2.324502944946289,0.2709367288668996,0.0,5.0
R,U,"[1, 3]",0.0,0.0,0.6656239032745361,2.2694549560546875,0.6068303745607504,0.0,6.0
,,"(3, 3)",,,,,,0.0,
B,L,"[3, 2]",1.0,1.0,0.6063668727874756,6.299813985824585,0.48990155073978475,,7.0
B,L,"[3, 1]",1.0,2.0,0.45928192138671875,2.171797037124634,0.7116125744573303,1.0,8.0
B,L,"[3, 0]",0.0,2.0,0.34659504890441895,1.6535120010375977,0.31535908055991274,1.0,9.0
Y,R,"[3, 1]",0.0,2.0,0.31090593338012695,1.5834040641784668,0.2654630863183507,1.0,10.0
Y,R,"[3, 2]",0.0,2.0,0.2245340347290039,1.8987650871276855,0.6640826965747425,1.0,11.0
R,U,"[2, 2]",1.0,3.0,0.3984811305999756,1.6798059940338135,0.2607832103635302,1.0,12.0
,,"(3, 3)",,,,,,1.0,
B,L,"[3, 2]",1.0,1.0,0.42620301246643066,4.6867711544036865,0.2805169270627927,,13.0
R,U,"[2, 2]",1.0,2.0,0.5357468128204346,2.0346341133117676,0.4815821580949262,2.0,14.0
B,L,"[2, 1]",1.0,3.0,0.30536794662475586,1.7528040409088135,0.43419907205198655,2.0,15.0
R,U,"[1, 1]",-1.0,2.0,0.157304048538208,1.7154881954193115,0.5499656608702185,2.0,16.0
B,L,"[1, 0]",0.0,2.0,0.42699384689331055,2.0326619148254395,0.598803467354749,2.0,17.0
G,D,"[2, 0]",0.0,2.0,0.3381659984588623,1.7146310806274414,0.3635062942450257,2.0,18.0
,,"(3, 3)",,,,,,2.0,
G,D,"[4, 3]",-1.0,-1.0,0.3610811233520508,4.510274887084961,0.7233700685478408,,19.0
R,U,"[3, 3]",0.0,-1.0,0.26351404190063477,1.8609509468078613,0.6009591998986867,3.0,20.0
B,L,"[3, 2]",1.0,0.0,0.17980504035949707,1.8911991119384766,0.6921404819067587,3.0,21.0
B,L,"[3, 1]",1.0,1.0,0.193436861038208,1.6642470359802246,0.47314330443503794,3.0,22.0
B,L,"[3, 0]",0.0,1.0,0.32073402404785156,1.8220791816711426,0.5116048564595534,3.0,23.0
G,D,"[4, 0]",0.0,1.0,0.5021951198577881,1.7498738765716553,0.2616339573170221,3.0,24.0
,,"(3, 3)",,,,,,3.0,
Y,R,"[3, 4]",-1.0,-1.0,0.36670899391174316,3.4492759704589844,0.593878812978101,,25.0
R,U,"[2, 4]",-1.0,-1.0,0.03920602798461914,5.8276050090789795,0.6711559382259084,4.0,26.0
R,U,"[1, 4]",-1.0,-2.0,0.22653412818908691,1.620365858078003,0.3918255740787484,4.0,27.0
G,D,"[2, 4]",0.0,-2.0,0.49088191986083984,2.1220788955688477,0.6301312128819592,4.0,28.0
B,L,"[2, 3]",-1.0,-3.0,0.23145604133605957,1.523423194885254,0.27085465843131085,4.0,29.0
Y,R,"[2, 4]",0.0,-3.0,0.2687849998474121,1.7576780319213867,0.4781607003908661,4.0,30.0
,,"(3, 3)",,,,,,4.0,
G,D,"[4, 3]",-1.0,-1.0,0.5900509357452393,3.3472180366516113,0.29197120252740205,,31.0
G,D,"[5, 3]",-1.0,-2.0,0.37410783767700195,2.0108301639556885,0.6357937870862302,5.0,32.0
B,L,"[5, 2]",-1.0,-3.0,0.25694799423217773,1.84621000289917,0.5820726325815352,5.0,33.0
R,U,"[4, 2]",-1.0,-4.0,0.23112893104553223,1.5949170589447021,0.34382811521568424,5.0,34.0
Y,R,"[4, 3]",0.0,-4.0,0.43292689323425293,1.9530830383300781,0.5131834634661929,5.0,35.0
G,D,"[5, 3]",0.0,-4.0,0.3009929656982422,1.5933411121368408,0.2901511359646909,5.0,36.0
,,"(3, 3)",,,,,,5.0,
B,L,"[3, 2]",1.0,1.0,0.6747667789459229,3.5265119075775146,0.41671692626653395,,37.0
Y,R,"[3, 3]",-1.0,1.0,0.07215285301208496,5.577188968658447,0.3769827054440529,6.0,38.0
R,U,"[2, 3]",-1.0,0.0,0.348538875579834,1.8815109729766846,0.5251258732237285,6.0,39.0
B,L,"[2, 2]",1.0,1.0,0.45104098320007324,2.0533339977264404,0.5949554418859251,6.0,40.0
B,L,"[2, 1]",1.0,2.0,0.38205814361572266,2.1111369132995605,0.739076699440667,6.0,41.0
B,L,"[2, 0]",0.0,2.0,0.5393679141998291,1.8835887908935547,0.3398023802101185,6.0,42.0
,,"(3, 3)",,,,,,6.0,
B,L,"[3, 2]",1.0,1.0,0.9240410327911377,3.836479902267456,0.6426802301448287,,43.0
B,L,"[3, 1]",1.0,2.0,0.41158485412597656,2.00813889503479,0.6004614169969396,7.0,44.0
B,L,"[3, 0]",0.0,2.0,0.5236968994140625,2.0483059883117676,0.5157761469274103,7.0,45.0
R,U,"[2, 0]",0.0,2.0,0.31679391860961914,1.9116768836975098,0.5938294104089455,7.0,46.0
R,U,"[1, 0]",0.0,2.0,0.393841028213501,1.7166080474853516,0.3271315623371336,7.0,47.0
B,L,"[1, 0]",0.0,2.0,0.4091188907623291,1.8441998958587646,0.43794171657090236,7.0,48.0
,,"(3, 3)",,,,,,7.0,
B,L,"[3, 2]",-2.0,0.0,1.2583649158477783,4.3499839305877686,0.43797037077044687,,49.0
Y,R,"[3, 3]",0.0,0.0,0.11809396743774414,1.4251291751861572,0.2965228368322522,8.0,50.0
R,U,"[2, 3]",-1.0,-1.0,0.5119659900665283,2.1507010459899902,0.6301041040530895,8.0,51.0
B,L,"[2, 2]",1.0,0.0,0.3046109676361084,1.7257280349731445,0.42266979633691376,8.0,52.0
B,L,"[2, 1]",1.0,1.0,0.41898488998413086,2.1023058891296387,0.6748136297313102,8.0,53.0
R,U,"[1, 1]",-1.0,0.0,0.25392985343933105,1.7163810729980469,0.45785302275616,8.0,54.0
,,"(3, 3)",,,,,,8.0,
B,L,"[3, 2]",1.0,1.0,0.689129114151001,3.7934811115264893,0.7343592196344217,,55.0
B,L,"[3, 1]",1.0,2.0,0.2511730194091797,1.9450180530548096,0.6798407162189233,9.0,56.0
B,L,"[3, 0]",0.0,2.0,0.23708391189575195,1.598271131515503,0.34484325871178856,9.0,57.0
R,U,"[2, 0]",0.0,2.0,0.451801061630249,1.7217509746551514,0.2831007439773354,9.0,58.0
Y,R,"[2, 1]",1.0,3.0,0.5544900894165039,1.9282128810882568,0.3611890302128785,9.0,59.0
G,D,"[3, 1]",0.0,3.0,0.4339590072631836,1.6765599250793457,0.2546686802402389,9.0,60.0
,,"(3, 3)",,,,,,9.0,
B,L,"[3, 2]",1.0,1.0,0.4734921455383301,3.549302101135254,0.5868826518501178,,61.0
B,L,"[3, 1]",1.0,2.0,0.22128009796142578,1.8646790981292725,0.634900255941319,10.0,62.0
Y,R,"[3, 2]",0.0,2.0,0.18677902221679688,1.538210153579712,0.3399794509199197,10.0,63.0
G,D,"[4, 2]",-1.0,1.0,0.2912931442260742,1.702125072479248,0.4085846006286526,10.0,64.0
B,L,"[4, 1]",-1.0,0.0,0.275209903717041,1.5504250526428223,0.2756787368762558,10.0,65.0
R,U,"[3, 1]",0.0,0.0,0.15743494033813477,1.539158821105957,0.3816025132513339,10.0,66.0
,,"(3, 3)",,,,,,10.0,
B,L,"[3, 2]",1.0,1.0,0.7837538719177246,3.294567823410034,0.4924171016277147,,67.0
B,L,"[3, 1]",1.0,2.0,0.2207319736480713,1.834702968597412,0.6271342171389092,11.0,68.0
R,U,"[2, 1]",1.0,3.0,0.2446460723876953,1.5877330303192139,0.3482831487987796,11.0,69.0
Y,R,"[2, 2]",1.0,4.0,0.29536008834838867,1.8584778308868408,0.5566235273450884,11.0,70.0
Y,R,"[2, 3]",-1.0,3.0,0.43534302711486816,2.0022969245910645,0.5589098347813373,11.0,71.0
B,L,"[2, 2]",0.0,3.0,0.2554359436035156,1.753359079360962,0.49533577750648494,11.0,72.0
,,"(3, 3)",,,,,,11.0,
B,L,"[3, 2]",1.0,1.0,0.9949469566345215,2.855292797088623,0.4008824451491141,,73.0
B,L,"[3, 1]",1.0,2.0,0.2606840133666992,1.8415868282318115,0.5754061029740517,12.0,74.0
R,U,"[2, 1]",1.0,3.0,0.6882598400115967,2.16565203666687,0.4908688705027091,12.0,75.0
G,D,"[3, 1]",0.0,3.0,0.15656113624572754,1.499108076095581,0.34021004133857535,12.0,76.0
Y,R,"[3, 2]",0.0,3.0,0.2765839099884033,1.6515309810638428,0.37493364985185945,12.0,77.0
G,D,"[4, 2]",-1.0,2.0,0.5515761375427246,1.8736279010772705,0.3150857985313852,12.0,78.0
,,"(3, 3)",,,,,,12.0,
B,L,"[3, 2]",1.0,1.0,0.5506579875946045,2.5910449028015137,0.27271855277507173,,79.0
B,L,"[3, 1]",1.0,2.0,0.21599888801574707,1.6201682090759277,0.3927276732896265,13.0,80.0
R,U,"[2, 1]",1.0,3.0,0.23131799697875977,1.8784699440002441,0.6544560473876926,13.0,81.0
Y,R,"[2, 2]",1.0,4.0,0.20485901832580566,1.5297999382019043,0.3177564117306853,13.0,82.0
Y,R,"[2, 3]",-1.0,3.0,0.5144269466400146,1.8522751331329346,0.31977908042127917,13.0,83.0
G,D,"[3, 3]",0.0,3.0,0.36930203437805176,1.990678071975708,0.6102236780339998,13.0,84.0
,,"(3, 3)",,,,,,13.0,
B,L,"[3, 2]",1.0,1.0,0.4324030876159668,2.497622013092041,0.49107964791844594,,85.0
B,L,"[3, 1]",1.0,2.0,0.20102500915527344,1.831507921218872,0.6223636613127121,14.0,86.0
R,U,"[2, 1]",1.0,3.0,0.23661303520202637,1.7337300777435303,0.48948216996886307,14.0,87.0
Y,R,"[2, 2]",1.0,4.0,0.20533204078674316,1.8169841766357422,0.606247394523032,14.0,88.0
G,D,"[3, 2]",0.0,4.0,0.27160000801086426,1.9881560802459717,0.7111456107729694,14.0,89.0
G,D,"[4, 2]",-1.0,3.0,0.3171849250793457,1.644658088684082,0.33942771715141573,14.0,90.0
,,"(3, 3)",,,,,,14.0,
B,L,"[3, 2]",1.0,1.0,0.41954803466796875,2.812803030014038,0.6349347734204221,,91.0
B,L,"[3, 1]",1.0,2.0,0.46758294105529785,2.160518169403076,0.6791530259690842,15.0,92.0
R,U,"[2, 1]",1.0,3.0,0.2181379795074463,1.9468190670013428,0.7249562114783963,15.0,93.0
Y,R,"[2, 2]",1.0,4.0,0.17817211151123047,1.4513301849365234,0.27659516941493656,15.0,94.0
Y,R,"[2, 3]",-1.0,3.0,0.4770979881286621,1.863713026046753,0.3901537632342253,15.0,95.0
G,D,"[3, 3]",0.0,3.0,0.3123750686645508,1.5835230350494385,0.273786862491108,15.0,96.0
,,"(3, 3)",,,,,,15.0,
B,L,"[3, 2]",1.0,1.0,0.4945831298828125,2.7309799194335938,0.5880484326791049,,97.0
B,L,"[3, 1]",1.0,2.0,0.22265911102294922,1.5455260276794434,0.317236748686607,16.0,98.0
R,U,"[2, 1]",1.0,3.0,0.2838737964630127,1.8958089351654053,0.596177363695779,16.0,99.0
Y,R,"[2, 2]",1.0,4.0,0.1959218978881836,1.5017919540405273,0.2981595904528233,16.0,100.0
R,U,"[1, 2]",1.0,5.0,0.276076078414917,2.0141210556030273,0.7285224183622043,16.0,101.0
R,U,"[0, 2]",0.0,5.0,0.43426513671875,1.6987500190734863,0.2774203347982918,16.0,102.0
,,"(3, 3)",,,,,,16.0,
B,L,"[3, 2]",1.0,1.0,0.9999909400939941,3.3280861377716064,0.6051675505367595,,103.0
B,L,"[3, 1]",1.0,2.0,0.3344540596008301,1.8559110164642334,0.5112567564509283,17.0,104.0
R,U,"[2, 1]",1.0,3.0,0.27434587478637695,1.5833771228790283,0.3113140230195209,17.0,105.0
Y,R,"[2, 2]",1.0,4.0,0.4570128917694092,1.7668540477752686,0.3114239031457192,17.0,106.0
R,U,"[1, 2]",1.0,5.0,0.46349501609802246,1.876662015914917,0.4211958443620913,17.0,107.0
Y,R,"[1, 3]",1.0,6.0,0.5530641078948975,2.0972838401794434,0.5351859371096113,17.0,108.0
,,"(3, 3)",,,,,,17.0,
B,L,"[3, 2]",1.0,1.0,0.4695699214935303,3.0399858951568604,0.42526046240168314,,109.0
B,L,"[3, 1]",1.0,2.0,0.18666481971740723,1.4756460189819336,0.30086924055356057,18.0,110.0
R,U,"[2, 1]",1.0,3.0,0.536358118057251,1.9133670330047607,0.36395124105953175,18.0,111.0
Y,R,"[2, 2]",1.0,4.0,0.2334911823272705,1.555143117904663,0.3023412660345674,18.0,112.0
R,U,"[1, 2]",1.0,5.0,0.3665750026702881,1.6505131721496582,0.2862992338271687,18.0,113.0
B,L,"[1, 1]",-1.0,4.0,0.24241209030151367,1.66935396194458,0.42198394028204844,18.0,114.0
,,"(3, 3)",,,,,,18.0,
B,L,"[3, 2]",1.0,1.0,0.3872559070587158,4.1491780281066895,0.2546611599372633,,115.0
B,L,"[3, 1]",1.0,2.0,0.27478885650634766,1.9422240257263184,0.6631167322344852,19.0,116.0
R,U,"[2, 1]",1.0,3.0,0.20762109756469727,1.6256940364837646,0.40575672838044224,19.0,117.0
Y,R,"[2, 2]",1.0,4.0,0.20093894004821777,1.466886043548584,0.256002044872268,19.0,118.0
R,U,"[1, 2]",1.0,5.0,0.29222702980041504,1.6892001628875732,0.39499346717940886,19.0,119.0
Y,R,"[1, 3]",1.0,6.0,0.21188998222351074,1.6625280380249023,0.4576852302927832,19.0,120.0
,,"(3, 3)",,,,,,19.0,
B,L,"[3, 2]",1.0,1.0,0.46941518783569336,2.5072460174560547,0.2815411738790745,,121.0
B,L,"[3, 1]",1.0,2.0,0.34048914909362793,1.6581897735595703,0.30641297990256755,20.0,122.0
R,U,"[2, 1]",1.0,3.0,0.3215038776397705,1.5867729187011719,0.2763210895774691,20.0,123.0
Y,R,"[2, 2]",1.0,4.0,0.2841370105743408,1.8481760025024414,0.557764767287072,20.0,124.0
R,U,"[1, 2]",1.0,5.0,0.17018795013427734,1.739729881286621,0.5640472756132902,20.0,125.0
Y,R,"[1, 3]",1.0,6.0,0.19530510902404785,1.8376638889312744,0.6347875988449199,20.0,126.0
,,"(3, 3)",,,,,,20.0,
B,L,"[3, 2]",1.0,1.0,0.575822114944458,3.494769811630249,0.6295960129761354,,127.0
B,L,"[3, 1]",-1.0,1.0,0.00498509407043457,5.4067888259887695,0.26966072469711905,21.0,128.0
B,L,"[3, 0]",0.0,1.0,0.2226560115814209,1.4991049766540527,0.26884069069499267,21.0,129.0
R,U,"[2, 0]",0.0,1.0,0.35254907608032227,1.8057429790496826,0.45779143543332496,21.0,130.0
Y,R,"[2, 1]",1.0,2.0,0.5735459327697754,2.2741899490356445,0.6985033345183131,21.0,131.0
R,U,"[1, 1]",-1.0,1.0,0.46520400047302246,1.85624098777771,0.38805344301072303,21.0,132.0
,,"(3, 3)",,,,,,21.0,
B,L,"[3, 2]",1.0,1.0,0.7233190536499023,3.747781991958618,0.5022784234492578,,133.0
B,L,"[3, 1]",1.0,2.0,0.3180561065673828,1.638580083847046,0.30767782656475173,22.0,134.0
R,U,"[2, 1]",1.0,3.0,0.41474103927612305,2.0544819831848145,0.6452451124413751,22.0,135.0
Y,R,"[2, 2]",1.0,4.0,0.19881081581115723,1.8157107830047607,0.6275470860106047,22.0,136.0
R,U,"[1, 2]",1.0,5.0,0.26203179359436035,1.5519099235534668,0.29634814018353706,22.0,137.0
Y,R,"[1, 3]",1.0,6.0,0.29630398750305176,1.7498779296875,0.4460304582486203,22.0,138.0
,,"(3, 3)",,,,,,22.0,
B,L,"[3, 2]",1.0,1.0,0.9814839363098145,3.5103681087493896,0.6892666031201049,,139.0
B,L,"[3, 1]",1.0,2.0,0.21544790267944336,1.7886600494384766,0.5617284962701061,23.0,140.0
R,U,"[2, 1]",1.0,3.0,0.23604297637939453,1.833730936050415,0.5952273578943832,23.0,141.0
Y,R,"[2, 2]",1.0,4.0,0.17464900016784668,1.6412508487701416,0.4697923201502471,23.0,142.0
R,U,"[1, 2]",1.0,5.0,0.45047783851623535,2.178807020187378,0.7151501667662333,23.0,143.0
Y,R,"[1, 3]",1.0,6.0,0.2021009922027588,1.5255861282348633,0.30770992625980453,23.0,144.0
,,"(3, 3)",,,,,,23.0,
B,L,"[3, 2]",1.0,1.0,0.7328038215637207,3.083980083465576,0.4413108944021192,,145.0
G,D,"[4, 2]",-1.0,0.0,0.45308899879455566,1.9711620807647705,0.5122362212520797,24.0,146.0
R,U,"[3, 2]",0.0,0.0,0.49723315238952637,2.045753002166748,0.5248963080079836,24.0,147.0
R,U,"[2, 2]",1.0,1.0,0.608306884765625,2.170933961868286,0.5624245245064585,24.0,148.0
Y,R,"[2, 3]",-1.0,0.0,0.3856818675994873,2.1359498500823975,0.7479365919261526,24.0,149.0
B,L,"[2, 2]",0.0,0.0,0.24675297737121582,1.6569371223449707,0.40523123407493666,24.0,150.0
,,"(3, 3)",,,,,,24.0,
B,L,"[3, 2]",1.0,1.0,0.5787370204925537,2.475050926208496,0.4468204803891885,,151.0
B,L,"[3, 1]",1.0,2.0,0.2691800594329834,2.035301923751831,0.7485561680921243,25.0,152.0
R,U,"[2, 1]",1.0,3.0,0.21196794509887695,1.5757699012756348,0.35786798071134446,25.0,153.0
Y,R,"[2, 2]",1.0,4.0,0.26812005043029785,1.881087064743042,0.6054940135536387,25.0,154.0
R,U,"[1, 2]",1.0,5.0,0.14174604415893555,1.5838100910186768,0.43933685006324225,25.0,155.0
Y,R,"[1, 3]",1.0,6.0,0.19649100303649902,1.8918261528015137,0.6977881755248591,25.0,156.0
,,"(3, 3)",,,,,,25.0,
B,L,"[3, 2]",1.0,1.0,0.8475401401519775,3.291133165359497,0.572041838993445,,157.0
G,D,"[4, 2]",-1.0,0.0,0.736077070236206,2.194756031036377,0.45029407712314523,26.0,158.0
R,U,"[3, 2]",0.0,0.0,0.2339169979095459,1.6199150085449219,0.37011333914348216,26.0,159.0
R,U,"[2, 2]",1.0,1.0,0.24027419090270996,1.83005690574646,0.5833763875566236,26.0,160.0
R,U,"[1, 2]",1.0,2.0,0.845952033996582,2.5069220066070557,0.6567977975015953,26.0,161.0
R,U,"[0, 2]",0.0,2.0,0.4122469425201416,1.9377930164337158,0.5280224265382023,26.0,162.0
,,"(3, 3)",,,,,,26.0,
Y,R,"[3, 4]",-1.0,-1.0,0.28178906440734863,2.908315896987915,0.5196278318446588,,163.0
R,U,"[2, 4]",-1.0,-2.0,0.8158700466156006,2.1117258071899414,0.29808249223217065,27.0,164.0
G,D,"[3, 4]",0.0,-2.0,0.20839500427246094,1.5697460174560547,0.35106242961258394,27.0,165.0
Y,R,"[3, 5]",-1.0,-3.0,0.33440279960632324,1.6558871269226074,0.32356302091161443,27.0,166.0
B,L,"[3, 4]",0.0,-3.0,0.2344038486480713,1.9423999786376953,0.6994933247349926,27.0,167.0
R,U,"[2, 4]",0.0,-3.0,0.322376012802124,1.7067630290985107,0.3728347861664857,27.0,168.0
,,"(3, 3)",,,,,,27.0,
B,L,"[3, 2]",1.0,1.0,0.4411590099334717,2.5723419189453125,0.42837975922543353,,169.0
B,L,"[3, 1]",1.0,2.0,0.23397612571716309,1.9193580150604248,0.6972766704882788,28.0,170.0
R,U,"[2, 1]",1.0,3.0,0.23134708404541016,1.6998779773712158,0.4640615860875521,28.0,171.0
Y,R,"[2, 2]",1.0,4.0,0.3023109436035156,1.9927849769592285,0.6733478181993691,28.0,172.0
R,U,"[1, 2]",1.0,5.0,0.23299288749694824,1.4895939826965332,0.26335310712385984,28.0,173.0
Y,R,"[1, 3]",1.0,6.0,0.23688793182373047,1.834040880203247,0.580688926008508,28.0,174.0
,,"(3, 3)",,,,,,28.0,
B,L,"[3, 2]",1.0,1.0,0.5393929481506348,3.714111089706421,0.744333543529996,,175.0
B,L,"[3, 1]",-2.0,1.0,1.5015418529510498,3.232785940170288,0.7104303096731732,29.0,176.0
B,L,"[3, 0]",0.0,1.0,0.3410780429840088,2.077760934829712,0.7379073615510594,29.0,177.0
R,U,"[2, 0]",0.0,1.0,0.19464802742004395,1.7172961235046387,0.5219911216133004,29.0,178.0
R,U,"[1, 0]",0.0,1.0,0.4850161075592041,2.0784730911254883,0.6002800108570754,29.0,179.0
Y,R,"[1, 1]",-1.0,0.0,0.2707400321960449,1.5799648761749268,0.2972173233817992,29.0,180.0
,,"(3, 3)",,,,,,29.0,
B,L,"[3, 2]",1.0,1.0,0.553718090057373,3.458169937133789,0.5551570272364612,,181.0
B,L,"[3, 1]",1.0,2.0,0.1463010311126709,1.5325391292572021,0.38777020997237316,30.0,182.0
R,U,"[2, 1]",1.0,3.0,0.2648649215698242,1.7340960502624512,0.47168756345169666,30.0,183.0
Y,R,"[2, 2]",1.0,4.0,0.2984750270843506,1.9455561637878418,0.6336748008799435,30.0,184.0
R,U,"[1, 2]",1.0,5.0,0.17462992668151855,1.9096910953521729,0.7266840881199355,30.0,185.0
Y,R,"[1, 3]",1.0,6.0,0.15546393394470215,1.7909579277038574,0.6343576802313073,30.0,186.0
,,"(3, 3)",,,,,,30.0,
B,L,"[3, 2]",-2.0,0.0,1.074228048324585,3.6899399757385254,0.5910233799457268,,187.0
B,L,"[3, 1]",1.0,1.0,0.38826704025268555,1.9390380382537842,0.5631871958615837,31.0,188.0
B,L,"[3, 0]",0.0,1.0,0.25306200981140137,1.8296871185302734,0.5595000817345843,31.0,189.0
R,U,"[2, 0]",0.0,1.0,0.32627391815185547,1.628244161605835,0.30476722169590065,31.0,190.0
R,U,"[1, 0]",0.0,1.0,0.8411459922790527,2.2488369941711426,0.40344123999035447,31.0,191.0
R,U,"[0, 0]",0.0,1.0,0.3169078826904297,1.6273531913757324,0.3141417904144392,31.0,192.0
,,"(3, 3)",,,,,,31.0,
B,L,"[3, 2]",1.0,1.0,0.565087080001831,4.143810987472534,0.7240974868086875,,193.0
B,L,"[3, 1]",1.0,2.0,0.31009912490844727,2.0094292163848877,0.7001158004679235,32.0,194.0
R,U,"[2, 1]",1.0,3.0,0.22548604011535645,1.8800020217895508,0.646777221865034,32.0,195.0
Y,R,"[2, 2]",1.0,4.0,0.21911001205444336,1.8325221538543701,0.5959603348427779,32.0,196.0
R,U,"[1, 2]",1.0,5.0,0.22591495513916016,1.8077480792999268,0.5703274130286318,32.0,197.0
Y,R,"[1, 3]",1.0,6.0,0.2827439308166504,1.6577210426330566,0.36170514704448226,32.0,198.0
,,"(3, 3)",,,,,,32.0,
B,L,"[3, 2]",1.0,1.0,0.6122469902038574,3.6007931232452393,0.7455741405906913,,199.0
B,L,"[3, 1]",1.0,2.0,0.2746438980102539,1.9582149982452393,0.6865067512566556,33.0,200.0
R,U,"[2, 1]",1.0,3.0,0.18300914764404297,1.9341490268707275,0.7207210714171157,33.0,201.0
Y,R,"[2, 2]",1.0,4.0,0.33976197242736816,1.6923389434814453,0.34647020740420964,33.0,202.0
R,U,"[1, 2]",1.0,5.0,0.3006000518798828,1.8679461479187012,0.5476331558164259,33.0,203.0
Y,R,"[1, 3]",1.0,6.0,0.22025108337402344,1.8596301078796387,0.6236253226752877,33.0,204.0
,,"(3, 3)",,,,,,33.0,
B,L,"[3, 2]",1.0,1.0,0.4546051025390625,2.8346810340881348,0.5582362316220962,,205.0
B,L,"[3, 1]",1.0,2.0,0.3944590091705322,2.1403539180755615,0.7486175636844877,34.0,206.0
R,U,"[2, 1]",1.0,3.0,0.42745494842529297,2.100898027420044,0.6659442389880625,34.0,207.0
Y,R,"[2, 2]",1.0,4.0,0.1873760223388672,1.4590120315551758,0.2586679472754492,34.0,208.0
R,U,"[1, 2]",1.0,5.0,0.9536890983581543,2.693942070007324,0.7353149106117565,34.0,209.0
Y,R,"[1, 3]",1.0,6.0,0.29141712188720703,1.5987040996551514,0.30107164296668987,34.0,210.0
,,"(3, 3)",,,,,,34.0,
B,L,"[3, 2]",1.0,1.0,0.6051268577575684,3.6267499923706055,0.49422120683049797,,211.0
B,L,"[3, 1]",1.0,2.0,0.4106149673461914,1.791511058807373,0.385729048056316,35.0,212.0
R,U,"[2, 1]",1.0,3.0,0.2885890007019043,1.94228196144104,0.6443152788531007,35.0,213.0
Y,R,"[2, 2]",1.0,4.0,0.19716095924377441,1.5082769393920898,0.31963787002053845,35.0,214.0
R,U,"[1, 2]",1.0,5.0,0.25752806663513184,1.6615359783172607,0.3974782791370074,35.0,215.0
Y,R,"[1, 3]",1.0,6.0,0.29398083686828613,1.7154428958892822,0.4129667527904068,35.0,216.0
,,"(3, 3)",,,,,,35.0,
B,L,"[3, 2]",1.0,1.0,0.5246350765228271,4.00828218460083,0.5207493027772074,,217.0
R,U,"[2, 2]",1.0,2.0,0.27808499336242676,1.7699460983276367,0.4910055026162196,36.0,218.0
R,U,"[1, 2]",1.0,3.0,0.9063620567321777,2.264622926712036,0.3556440163987052,36.0,219.0
Y,R,"[1, 3]",1.0,4.0,0.4518909454345703,2.0950260162353516,0.6334607765026024,36.0,220.0
R,U,"[0, 3]",0.0,4.0,0.4459550380706787,1.7012529373168945,0.25179587858624747,36.0,221.0
Y,R,"[0, 4]",0.0,4.0,0.2766101360321045,1.8816158771514893,0.5995759748209402,36.0,222.0
,,"(3, 3)",,,,,,36.0,
B,L,"[3, 2]",1.0,1.0,0.6594550609588623,3.2336459159851074,0.48322721842971783,,223.0
B,L,"[3, 1]",1.0,2.0,0.4398529529571533,2.0314741134643555,0.5813161190103031,37.0,224.0
R,U,"[2, 1]",1.0,3.0,0.33047008514404297,1.9806749820709229,0.6450661497076033,37.0,225.0
Y,R,"[2, 2]",1.0,4.0,0.21608805656433105,1.4784748554229736,0.25719542742207757,37.0,226.0
R,U,"[1, 2]",1.0,5.0,0.3034708499908447,1.9669559001922607,0.6570094870042907,37.0,227.0
Y,R,"[1, 3]",1.0,6.0,0.21009492874145508,1.8828098773956299,0.6728941206545256,37.0,228.0
,,"(3, 3)",,,,,,37.0,
B,L,"[3, 2]",1.0,1.0,0.5555930137634277,3.2227070331573486,0.49563362439784275,,229.0
B,L,"[3, 1]",1.0,2.0,0.22532391548156738,1.7290968894958496,0.47500380193426645,38.0,230.0
R,U,"[2, 1]",1.0,3.0,0.21033906936645508,1.4830729961395264,0.274896631039006,38.0,231.0
Y,R,"[2, 2]",1.0,4.0,0.25896406173706055,1.7810518741607666,0.5221592177550587,38.0,232.0
R,U,"[1, 2]",1.0,5.0,0.18358397483825684,1.548853874206543,0.3545042571994094,38.0,233.0
Y,R,"[1, 3]",1.0,6.0,0.254594087600708,1.6538548469543457,0.4081057332958974,38.0,234.0
,,"(3, 3)",,,,,,38.0,
B,L,"[3, 2]",1.0,1.0,0.5147521495819092,2.790097951889038,0.5479808951158724,,235.0
B,L,"[3, 1]",1.0,2.0,0.34247493743896484,1.6875882148742676,0.33579885006982996,39.0,236.0
R,U,"[2, 1]",1.0,3.0,0.7081608772277832,2.040186882019043,0.3258404771805012,39.0,237.0
Y,R,"[2, 2]",1.0,4.0,0.5458950996398926,2.0338799953460693,0.4928745260309174,39.0,238.0
R,U,"[1, 2]",1.0,5.0,0.39854907989501953,1.8739690780639648,0.4835175484765363,39.0,239.0
Y,R,"[1, 3]",1.0,6.0,0.22518515586853027,1.5548319816589355,0.32164840583058707,39.0,240.0
,,"(3, 3)",,,,,,39.0,
B,L,"[3, 2]",1.0,1.0,0.5751340389251709,3.569063901901245,0.307175035440713,,241.0
B,L,"[3, 1]",1.0,2.0,0.4403250217437744,1.727327823638916,0.28454776673952137,40.0,242.0
R,U,"[2, 1]",1.0,3.0,0.4672739505767822,2.0353188514709473,0.5699680937452395,40.0,243.0
Y,R,"[2, 2]",1.0,4.0,0.5426950454711914,1.9504687786102295,0.40359448697216516,40.0,244.0
R,U,"[1, 2]",1.0,5.0,0.40457820892333984,1.8451869487762451,0.4319388041611946,40.0,245.0
Y,R,"[1, 3]",1.0,6.0,0.21262407302856445,1.6834430694580078,0.46528725212886207,40.0,246.0
,,"(3, 3)",,,,,,40.0,
B,L,"[3, 2]",1.0,1.0,0.3229329586029053,3.097132921218872,0.512470990148791,,247.0
B,L,"[3, 1]",1.0,2.0,0.21193408966064453,1.6926279067993164,0.48830386074403087,41.0,248.0
R,U,"[2, 1]",1.0,3.0,0.17693209648132324,1.633486032485962,0.45511706489588666,41.0,249.0
Y,R,"[2, 2]",1.0,4.0,0.16344404220581055,1.8964691162109375,0.7345084583540005,41.0,250.0
R,U,"[1, 2]",1.0,5.0,0.1784498691558838,1.5713989734649658,0.3896743120350663,41.0,251.0
Y,R,"[1, 3]",1.0,6.0,0.23575210571289062,1.7134859561920166,0.46960478360272523,41.0,252.0
,,"(3, 3)",,,,,,41.0,
B,L,"[3, 2]",1.0,1.0,0.6317288875579834,2.928632974624634,0.38141189585801955,,253.0
B,L,"[3, 1]",1.0,2.0,0.28861403465270996,1.8076870441436768,0.5057828958844248,42.0,254.0
R,U,"[2, 1]",1.0,3.0,0.2785770893096924,1.5785539150238037,0.30098610435587536,42.0,255.0
Y,R,"[2, 2]",1.0,4.0,0.3026149272918701,1.641564130783081,0.325993924679377,42.0,256.0
R,U,"[1, 2]",1.0,5.0,0.3849170207977295,1.7656419277191162,0.3748344640565895,42.0,257.0
Y,R,"[1, 3]",1.0,6.0,0.2965810298919678,1.7901580333709717,0.49818831944690556,42.0,258.0
,,"(3, 3)",,,,,,42.0,
B,L,"[3, 2]",1.0,1.0,0.5167601108551025,2.9303228855133057,0.6780580043155002,,259.0
B,L,"[3, 1]",1.0,2.0,0.29845213890075684,1.994596004486084,0.7060566115622529,43.0,260.0
R,U,"[2, 1]",1.0,3.0,0.20944809913635254,1.9224860668182373,0.7116475781844598,43.0,261.0
Y,R,"[2, 2]",1.0,4.0,0.19575905799865723,1.9180879592895508,0.7296084802145393,43.0,262.0
R,U,"[1, 2]",-1.0,4.0,0.06192898750305176,5.5922160148620605,0.3720781530693285,43.0,263.0
Y,R,"[1, 3]",1.0,5.0,0.30599212646484375,1.6843769550323486,0.37310450784319804,43.0,264.0
,,"(3, 3)",,,,,,43.0,
G,D,"[4, 3]",-1.0,-1.0,0.710500955581665,3.6161181926727295,0.7054167266825655,,265.0
B,L,"[4, 2]",-1.0,-2.0,0.22283101081848145,1.623147964477539,0.39548655931851534,44.0,266.0
R,U,"[3, 2]",1.0,-1.0,0.30954885482788086,1.878990888595581,0.5742750417863887,44.0,267.0
R,U,"[2, 2]",1.0,0.0,0.22386407852172852,1.6291940212249756,0.4036552929459378,44.0,268.0
R,U,"[1, 2]",1.0,1.0,0.35045409202575684,1.994201898574829,0.6473336778126572,44.0,269.0
R,U,"[0, 2]",0.0,1.0,0.27442002296447754,1.6459629535675049,0.3602353502251186,44.0,270.0
,,"(3, 3)",,,,,,44.0,
Y,R,"[3, 4]",-1.0,-1.0,0.5970001220703125,2.779918909072876,0.5066719943225055,,271.0
R,U,"[2, 4]",-1.0,-2.0,0.25783300399780273,1.9666361808776855,0.7064072643850628,45.0,272.0
Y,R,"[2, 5]",-1.0,-3.0,0.4991340637207031,2.0805699825286865,0.5702552858382655,45.0,273.0
R,U,"[1, 5]",-1.0,-4.0,0.28763413429260254,1.819580078125,0.5233601237443135,45.0,274.0
R,U,"[0, 5]",0.0,-4.0,0.22211003303527832,1.6087150573730469,0.38198381287404914,45.0,275.0
B,L,"[0, 4]",0.0,-4.0,0.2592751979827881,1.640557050704956,0.37250691414612086,45.0,276.0
,,"(3, 3)",,,,,,45.0,
B,L,"[3, 2]",1.0,1.0,0.41723108291625977,2.507939100265503,0.630547113614655,,277.0
B,L,"[3, 1]",1.0,2.0,0.3352530002593994,1.699012041091919,0.3625467473938649,46.0,278.0
R,U,"[2, 1]",1.0,3.0,0.26715993881225586,1.6794211864471436,0.3919528232141125,46.0,279.0
Y,R,"[2, 2]",1.0,4.0,0.20250201225280762,1.7269580364227295,0.5355393427497008,46.0,280.0
R,U,"[1, 2]",1.0,5.0,0.3811337947845459,2.1326329708099365,0.734685730843676,46.0,281.0
Y,R,"[1, 3]",1.0,6.0,0.11810493469238281,1.380124807357788,0.2649287862843063,46.0,282.0
,,"(3, 3)",,,,,,46.0,
B,L,"[3, 2]",1.0,1.0,0.3748140335083008,2.8631680011749268,0.3946813162565034,,283.0
B,L,"[3, 1]",1.0,2.0,0.32935285568237305,1.6153550148010254,0.2933037464427564,47.0,284.0
R,U,"[2, 1]",1.0,3.0,0.21669411659240723,1.5110270977020264,0.3044212843034691,47.0,285.0
Y,R,"[2, 2]",1.0,4.0,0.4752631187438965,2.126315116882324,0.6469775420995687,47.0,286.0
R,U,"[1, 2]",-1.0,4.0,0.0018339157104492188,5.48562216758728,0.34930854197380884,47.0,287.0
Y,R,"[1, 3]",1.0,5.0,0.2334151268005371,1.6505229473114014,0.3998163762971662,47.0,288.0
,,"(3, 3)",,,,,,47.0,
B,L,"[3, 2]",1.0,1.0,0.4550330638885498,3.108196973800659,0.6742550605904991,,289.0
B,L,"[3, 1]",1.0,2.0,0.1977531909942627,1.7433180809020996,0.5510294040856921,48.0,290.0
R,U,"[2, 1]",1.0,3.0,0.22907400131225586,1.531325101852417,0.29928180777193997,48.0,291.0
Y,R,"[2, 2]",1.0,4.0,0.29473400115966797,1.8293540477752686,0.5283446288306537,48.0,292.0
R,U,"[1, 2]",1.0,5.0,0.22016501426696777,1.9015140533447266,0.6961624437460883,48.0,293.0
Y,R,"[1, 3]",1.0,6.0,0.18736696243286133,1.6352119445800781,0.44837565349343916,48.0,294.0
,,"(3, 3)",,,,,,48.0,
B,L,"[3, 2]",1.0,1.0,0.44184207916259766,3.0904860496520996,0.6717915584790725,,295.0
B,L,"[3, 1]",1.0,2.0,0.3916010856628418,2.1089980602264404,0.7139938142838573,49.0,296.0
R,U,"[2, 1]",1.0,3.0,0.2290189266204834,1.519327163696289,0.2837823141453533,49.0,297.0
Y,R,"[2, 2]",1.0,4.0,0.34324216842651367,1.960442066192627,0.6106512016924214,49.0,298.0
R,U,"[1, 2]",1.0,5.0,0.2433180809020996,1.676058053970337,0.43655381113514236,49.0,299.0
Y,R,"[1, 3]",1.0,6.0,0.3058807849884033,1.96647310256958,0.6529806175146191,49.0,300.0
,,"(3, 3)",,,,,,49.0,
B,L,"[3, 2]",1.0,1.0,0.5672111511230469,2.8740851879119873,0.626764141142856,,301.0
B,L,"[3, 1]",1.0,2.0,0.23453187942504883,1.671314001083374,0.43170205372508363,50.0,302.0
R,U,"[2, 1]",1.0,3.0,0.24605202674865723,1.7806050777435303,0.5288557150498799,50.0,303.0
Y,R,"[2, 2]",1.0,4.0,0.2954568862915039,1.7111120223999023,0.4232625401110909,50.0,304.0
R,U,"[1, 2]",1.0,5.0,0.2896261215209961,1.5551459789276123,0.26193683359508285,50.0,305.0
R,U,"[0, 2]",-1.0,5.0,0.03997087478637695,5.418520927429199,0.2638215764997198,50.0,306.0
,,"(3, 3)",,,,,,50.0,
Y,R,"[3, 4]",-1.0,-1.0,0.5578079223632812,3.2755510807037354,0.25570650227374553,,307.0
R,U,"[2, 4]",-1.0,-2.0,0.8765339851379395,2.4507510662078857,0.5727273482841456,51.0,308.0
R,U,"[1, 4]",-1.0,-3.0,0.6574878692626953,2.3339757919311523,0.6733813730261418,51.0,309.0
Y,R,"[1, 5]",-1.0,-4.0,0.338137149810791,1.768676996231079,0.42558614161705954,51.0,310.0
G,D,"[2, 5]",-1.0,-5.0,0.261476993560791,1.7343790531158447,0.4764293565410661,51.0,311.0
B,L,"[2, 4]",0.0,-5.0,0.27920007705688477,1.8655951023101807,0.592186454934631,51.0,312.0
,,"(3, 3)",,,,,,51.0,
B,L,"[3, 2]",1.0,1.0,0.7279291152954102,3.0747179985046387,0.7497891491854145,,313.0
B,L,"[3, 1]",1.0,2.0,0.32805705070495605,1.6895849704742432,0.3563576881119418,52.0,314.0
R,U,"[2, 1]",1.0,3.0,0.47763609886169434,1.9524149894714355,0.47526136782999373,52.0,315.0
Y,R,"[2, 2]",1.0,4.0,0.26671409606933594,1.9261589050292969,0.6514850639914411,52.0,316.0
R,U,"[1, 2]",1.0,5.0,0.31334900856018066,1.6456351280212402,0.330373147834492,52.0,317.0
Y,R,"[1, 3]",1.0,6.0,0.4892570972442627,1.9912910461425781,0.48806076573601925,52.0,318.0
,,"(3, 3)",,,,,,52.0,
B,L,"[3, 2]",1.0,1.0,0.5366261005401611,2.8424360752105713,0.5470837358197963,,319.0
B,L,"[3, 1]",1.0,2.0,0.29590702056884766,1.7104151248931885,0.40750146452171687,53.0,320.0
R,U,"[2, 1]",1.0,3.0,0.3057730197906494,1.6992251873016357,0.3900125989640221,53.0,321.0
Y,R,"[2, 2]",1.0,4.0,0.2347431182861328,1.7883539199829102,0.5448731706084287,53.0,322.0
R,U,"[1, 2]",1.0,5.0,0.4004960060119629,1.6566081047058105,0.2517149118785343,53.0,323.0
Y,R,"[1, 3]",1.0,6.0,0.3876688480377197,1.8837790489196777,0.4852511011273586,53.0,324.0
,,"(3, 3)",,,,,,53.0,
B,L,"[3, 2]",1.0,1.0,0.43521690368652344,2.579554796218872,0.41491746462636836,,325.0
B,L,"[3, 1]",1.0,2.0,0.36394596099853516,1.9018127918243408,0.5333128982883847,54.0,326.0
R,U,"[2, 1]",1.0,3.0,0.2910618782043457,1.6488070487976074,0.3488069931038679,54.0,327.0
Y,R,"[2, 2]",1.0,4.0,0.3260471820831299,1.9752540588378906,0.6402679034433902,54.0,328.0
R,U,"[1, 2]",1.0,5.0,0.22827911376953125,1.6289141178131104,0.40267379434637496,54.0,329.0
Y,R,"[1, 3]",1.0,6.0,0.24631881713867188,1.7358160018920898,0.48835570645747456,54.0,330.0
,,"(3, 3)",,,,,,54.0,
B,L,"[3, 2]",1.0,1.0,0.4394838809967041,2.5115251541137695,0.633129009118794,,331.0
B,L,"[3, 1]",1.0,2.0,0.18693089485168457,1.608612060546875,0.4251983326425257,55.0,332.0
R,U,"[2, 1]",1.0,3.0,0.22378921508789062,1.849498987197876,0.6244632242907631,55.0,333.0
Y,R,"[2, 2]",1.0,4.0,0.19069409370422363,1.8905489444732666,0.6982718091030355,55.0,334.0
R,U,"[1, 2]",1.0,5.0,0.25365209579467773,1.7587108612060547,0.4905400640603609,55.0,335.0
Y,R,"[1, 3]",1.0,6.0,0.28764820098876953,1.6545188426971436,0.36162845143986855,55.0,336.0
,,"(3, 3)",,,,,,55.0,
B,L,"[3, 2]",1.0,1.0,0.5544600486755371,2.5544910430908203,0.5825195734492594,,337.0
B,L,"[3, 1]",1.0,2.0,0.3599841594696045,1.8394770622253418,0.47216515121042224,56.0,338.0
R,U,"[2, 1]",1.0,3.0,0.21091103553771973,1.626358985900879,0.4151478265016252,56.0,339.0
Y,R,"[2, 2]",1.0,4.0,0.20423293113708496,1.7516438961029053,0.5497766216548703,56.0,340.0
R,U,"[1, 2]",1.0,5.0,0.1932210922241211,1.7980451583862305,0.5980474684514958,56.0,341.0
Y,R,"[1, 3]",1.0,6.0,0.4924769401550293,2.0908849239349365,0.5888098216727287,56.0,342.0
,,"(3, 3)",,,,,,56.0,
B,L,"[3, 2]",1.0,1.0,0.9062011241912842,3.3625659942626953,0.6011862659872365,,343.0
B,L,"[3, 1]",1.0,2.0,0.3920888900756836,1.7951130867004395,0.396493836479342,57.0,344.0
R,U,"[2, 1]",1.0,3.0,0.4703199863433838,1.8875751495361328,0.4173583676138228,57.0,345.0
Y,R,"[2, 2]",1.0,4.0,0.4671900272369385,2.151782989501953,0.6853943276429056,57.0,346.0
R,U,"[1, 2]",1.0,5.0,0.3997488021850586,1.866250991821289,0.4685212695069979,57.0,347.0
Y,R,"[1, 3]",1.0,6.0,0.24500298500061035,1.6214749813079834,0.37330002592256084,57.0,348.0
,,"(3, 3)",,,,,,57.0,
B,L,"[3, 2]",1.0,1.0,0.6723730564117432,2.8886590003967285,0.7448136892044858,,349.0
B,L,"[3, 1]",1.0,2.0,0.20586490631103516,1.6799681186676025,0.47512147766067114,58.0,350.0
R,U,"[2, 1]",1.0,3.0,0.311784029006958,1.7833831310272217,0.47540894318821414,58.0,351.0
Y,R,"[2, 2]",1.0,4.0,0.20944809913635254,1.661952018737793,0.4703131915685889,58.0,352.0
R,U,"[1, 2]",1.0,5.0,0.19760799407958984,1.5419390201568604,0.3460207570724649,58.0,353.0
Y,R,"[1, 3]",1.0,6.0,0.28325319290161133,1.9309849739074707,0.643103944684845,58.0,354.0
,,"(3, 3)",,,,,,58.0,
B,L,"[3, 2]",1.0,1.0,0.44820404052734375,3.6473569869995117,0.5070882774706799,,355.0
B,L,"[3, 1]",1.0,2.0,0.18792510032653809,1.5218911170959473,0.32860855556751317,59.0,356.0
R,U,"[2, 1]",1.0,3.0,0.42919492721557617,1.9211640357971191,0.5001504399488221,59.0,357.0
Y,R,"[2, 2]",-1.0,3.0,0.051032066345214844,5.724642038345337,0.5410930935427594,59.0,358.0
R,U,"[1, 2]",1.0,4.0,0.30705690383911133,1.8044450283050537,0.4957246316609173,59.0,359.0
Y,R,"[1, 3]",1.0,5.0,0.24291086196899414,1.8596489429473877,0.6216923160828902,59.0,360.0
,,"(3, 3)",,,,,,59.0,
B,L,"[3, 2]",1.0,1.0,0.4620630741119385,3.004885196685791,0.660153976214475,,361.0
B,L,"[3, 1]",1.0,2.0,0.27818894386291504,1.706974983215332,0.43388931167162414,60.0,362.0
R,U,"[2, 1]",1.0,3.0,0.37850093841552734,1.6790761947631836,0.2961858932545925,60.0,363.0
Y,R,"[2, 2]",1.0,4.0,0.4981679916381836,2.1818909645080566,0.6775722469987611,60.0,364.0
R,U,"[1, 2]",1.0,5.0,0.24907684326171875,1.8879978656768799,0.6489102642816036,60.0,365.0
Y,R,"[1, 3]",1.0,6.0,0.25748705863952637,1.7169561386108398,0.44944679662869214,60.0,366.0
,,"(3, 3)",,,,,,60.0,
B,L,"[3, 2]",1.0,1.0,0.47942495346069336,3.081935167312622,0.6310611633231685,,367.0
B,L,"[3, 1]",1.0,2.0,0.2514030933380127,1.5462710857391357,0.27773661685416445,61.0,368.0
R,U,"[2, 1]",1.0,3.0,0.3074760437011719,1.8681950569152832,0.5622793289770831,61.0,369.0
Y,R,"[2, 2]",1.0,4.0,0.1956028938293457,1.8359100818634033,0.6478230535143154,61.0,370.0
R,U,"[1, 2]",1.0,5.0,0.27622294425964355,1.9418039321899414,0.6563829667082501,61.0,371.0
Y,R,"[1, 3]",1.0,6.0,0.3331120014190674,1.788017988204956,0.4444556885520057,61.0,372.0
,,"(3, 3)",,,,,,61.0,
B,L,"[3, 2]",1.0,1.0,0.35476112365722656,2.526729106903076,0.2883096670979875,,373.0
B,L,"[3, 1]",1.0,2.0,0.44325900077819824,2.0046961307525635,0.5591378648430779,62.0,374.0
R,U,"[2, 1]",1.0,3.0,0.27311205863952637,1.9743640422821045,0.7005397133960957,62.0,375.0
Y,R,"[2, 2]",1.0,4.0,0.3287229537963867,1.6659331321716309,0.33280114617286816,62.0,376.0
R,U,"[1, 2]",1.0,5.0,0.44106101989746094,2.14615797996521,0.6951591782343327,62.0,377.0
Y,R,"[1, 3]",1.0,6.0,0.3976778984069824,2.1094398498535156,0.7213171703068482,62.0,378.0
,,"(3, 3)",,,,,,62.0,
B,L,"[3, 2]",1.0,1.0,0.5160598754882812,2.3010029792785645,0.2726059064847879,,379.0
B,L,"[3, 1]",1.0,2.0,0.41814303398132324,1.908808946609497,0.4811185222982868,63.0,380.0
R,U,"[2, 1]",1.0,3.0,0.37327122688293457,1.8872227668762207,0.5016551981563961,63.0,381.0
Y,R,"[2, 2]",1.0,4.0,0.3160860538482666,1.585433006286621,0.27059907131293437,63.0,382.0
R,U,"[1, 2]",1.0,5.0,0.4429969787597656,2.1456971168518066,0.6992607900780323,63.0,383.0
Y,R,"[1, 3]",1.0,6.0,0.23790597915649414,1.5938520431518555,0.3432765869827157,63.0,384.0
,,"(3, 3)",,,,,,63.0,
B,L,"[3, 2]",1.0,1.0,0.5605618953704834,3.256736993789673,0.6166399434565804,,385.0
B,L,"[3, 1]",1.0,2.0,0.2654561996459961,1.8641331195831299,0.5804456225944183,64.0,386.0
R,U,"[2, 1]",1.0,3.0,0.26276707649230957,1.8802380561828613,0.6107349664814378,64.0,387.0
Y,R,"[2, 2]",1.0,4.0,0.609004020690918,2.113293170928955,0.5074251104403613,64.0,388.0
R,U,"[1, 2]",1.0,5.0,0.26033997535705566,1.688075065612793,0.42902993855379906,64.0,389.0
Y,R,"[1, 3]",1.0,6.0,0.32306599617004395,1.5768330097198486,0.25595644562896347,64.0,390.0
,,"(3, 3)",,,,,,64.0,
B,L,"[3, 2]",1.0,1.0,0.4425089359283447,2.703594923019409,0.5922910419673462,,391.0
B,L,"[3, 1]",1.0,2.0,0.2605910301208496,1.5335781574249268,0.2763021901740175,65.0,392.0
R,U,"[2, 1]",1.0,3.0,0.48830103874206543,1.7664430141448975,0.29250681881330687,65.0,393.0
Y,R,"[2, 2]",1.0,4.0,0.3515591621398926,1.8725311756134033,0.531506332183437,65.0,394.0
R,U,"[1, 2]",1.0,5.0,0.25415992736816406,1.5754330158233643,0.3072169649550483,65.0,395.0
Y,R,"[1, 3]",1.0,6.0,0.4894990921020508,2.0774919986724854,0.6013500410814426,65.0,396.0
,,"(3, 3)",,,,,,65.0,
B,L,"[3, 2]",1.0,1.0,0.46938586235046387,2.754894971847534,0.4058685980465442,,397.0
B,L,"[3, 1]",1.0,2.0,0.3280448913574219,1.9995391368865967,0.6717631587109965,66.0,398.0
R,U,"[2, 1]",1.0,3.0,0.28403210639953613,1.5813250541687012,0.2869265643188872,66.0,399.0
Y,R,"[2, 2]",1.0,4.0,0.4517049789428711,2.0501530170440674,0.5866698841942255,66.0,400.0
R,U,"[1, 2]",1.0,5.0,0.42470407485961914,1.9493398666381836,0.5194402744831025,66.0,401.0
Y,R,"[1, 3]",1.0,6.0,0.31371092796325684,1.7532591819763184,0.439426633962353,66.0,402.0
,,"(3, 3)",,,,,,66.0,
B,L,"[3, 2]",-1.0,-1.0,0.33849310874938965,2.9155449867248535,0.6050358227930916,,403.0
B,L,"[3, 1]",1.0,0.0,0.80584716796875,2.5412302017211914,0.7289718867343453,67.0,404.0
R,U,"[2, 1]",-1.0,-1.0,0.35696911811828613,1.7267050743103027,0.3560838597814428,67.0,405.0
R,U,"[1, 1]",-1.0,-2.0,0.28922104835510254,1.573880910873413,0.27983161672856194,67.0,406.0
G,D,"[2, 1]",-1.0,-3.0,0.380979061126709,1.7123820781707764,0.32560825255909936,67.0,407.0
Y,R,"[2, 2]",-1.0,-4.0,0.2797870635986328,1.6720290184020996,0.3973583570961116,67.0,408.0
,,"(3, 3)",,,,,,67.0,
B,L,"[3, 2]",-1.0,-1.0,0.6025209426879883,3.1318321228027344,0.7456882998706754,,409.0
Y,R,"[3, 3]",-2.0,-3.0,0.296036958694458,1.8978259563446045,0.5769978439523684,68.0,410.0
G,D,"[4, 3]",1.0,-2.0,0.2557401657104492,1.80678391456604,0.5502892614438837,68.0,411.0
G,D,"[5, 3]",1.0,-1.0,0.4639759063720703,1.7370481491088867,0.2708639275120715,68.0,412.0
G,D,"[6, 3]",0.0,-1.0,0.5196318626403809,1.7665290832519531,0.2541062777134112,68.0,413.0
B,L,"[6, 2]",0.0,-1.0,0.6011171340942383,2.1948909759521484,0.5985436710348214,68.0,414.0
,,"(3, 3)",,,,,,68.0,
R,U,"[2, 3]",-1.0,-1.0,0.7921388149261475,3.432497978210449,0.747387390786471,,415.0
G,D,"[3, 3]",-2.0,-3.0,0.45792198181152344,2.109464168548584,0.640337866894598,69.0,416.0
G,D,"[4, 3]",1.0,-2.0,0.2215430736541748,1.65150785446167,0.42533655505771023,69.0,417.0
G,D,"[5, 3]",1.0,-1.0,0.24147796630859375,1.6793568134307861,0.43792995570118903,69.0,418.0
B,L,"[5, 2]",1.0,0.0,0.28807783126831055,1.9452180862426758,0.6495135559025194,69.0,419.0
B,L,"[5, 1]",-1.0,-1.0,0.5270209312438965,2.105829954147339,0.5719912834543552,69.0,420.0
,,"(3, 3)",,,,,,69.0,
R,U,"[2, 3]",-2.0,0.0,1.2556180953979492,3.0557191371917725,0.3280415369575006,,421.0
R,U,"[1, 3]",-1.0,-1.0,0.8639869689941406,2.250135898590088,0.394516946536725,70.0,422.0
G,D,"[2, 3]",-1.0,-2.0,0.23897409439086914,1.5526769161224365,0.3139446335043114,70.0,423.0
G,D,"[3, 3]",-2.0,-4.0,0.6602528095245361,2.2910101413726807,0.6048987199604501,70.0,424.0
G,D,"[4, 3]",1.0,-3.0,0.1760730743408203,1.5972199440002441,0.41885403726907555,70.0,425.0
B,L,"[4, 2]",1.0,-2.0,0.4788961410522461,2.092258930206299,0.6108774572167006,70.0,426.0
,,"(3, 3)",,,,,,70.0,
Y,R,"[3, 4]",-1.0,-1.0,0.6304020881652832,3.4051899909973145,0.5827220673787548,,427.0
Y,R,"[3, 5]",-1.0,-2.0,0.3958280086517334,2.0152788162231445,0.6145854635877144,71.0,428.0
R,U,"[2, 5]",-1.0,-3.0,0.595088005065918,2.042949914932251,0.4407699145052955,71.0,429.0
Y,R,"[2, 6]",0.0,-3.0,0.8197309970855713,2.1998450756073,0.3739735336522633,71.0,430.0
G,D,"[3, 6]",0.0,-3.0,0.3409609794616699,1.8264758586883545,0.500312117919996,71.0,431.0
B,L,"[3, 5]",-1.0,-4.0,0.275317907333374,1.81026291847229,0.5273323502204068,71.0,432.0
,,"(3, 3)",,,,,,71.0,
R,U,"[2, 3]",-1.0,-1.0,0.9886960983276367,4.573263168334961,0.4671517221448893,,433.0
R,U,"[1, 3]",-1.0,-2.0,0.5659489631652832,2.120168924331665,0.5537678041218002,72.0,434.0
R,U,"[0, 3]",0.0,-2.0,0.39514708518981934,1.7997570037841797,0.40371061703678757,72.0,435.0
R,U,"[0, 3]",0.0,-2.0,0.3922760486602783,1.8645210266113281,0.4682192219738189,72.0,436.0
R,U,"[0, 3]",0.0,-2.0,0.46552205085754395,2.1220991611480713,0.6565695844810523,72.0,437.0
R,U,"[0, 3]",0.0,-2.0,0.23508286476135254,1.6754939556121826,0.44886863868385385,72.0,438.0
,,"(3, 3)",,,,,,72.0,
G,D,"[4, 3]",1.0,1.0,0.8861129283905029,2.9750819206237793,0.407241278018943,,439.0
G,D,"[5, 3]",1.0,2.0,0.5727858543395996,2.031224012374878,0.45499035543869704,73.0,440.0
B,L,"[5, 2]",1.0,3.0,0.7544240951538086,2.367656946182251,0.6056644256904944,73.0,441.0
Y,R,"[5, 3]",1.0,4.0,0.6637659072875977,2.1910250186920166,0.5299755857028572,73.0,442.0
R,U,"[4, 3]",1.0,5.0,0.7167251110076904,2.380985975265503,0.644237262792497,73.0,443.0
Y,R,"[4, 4]",-1.0,4.0,0.615929126739502,2.0544891357421875,0.4489437692405028,73.0,444.0
,,"(3, 3)",,,,,,73.0,
G,D,"[4, 3]",1.0,1.0,0.6226751804351807,4.9722089767456055,0.6871005480734937,,445.0
G,D,"[5, 3]",1.0,2.0,0.3075571060180664,1.8420641422271729,0.5291608374319655,74.0,446.0
B,L,"[5, 2]",1.0,3.0,0.3005080223083496,1.6621019840240479,0.3415153249892424,74.0,447.0
Y,R,"[5, 3]",1.0,4.0,0.39638519287109375,2.114108085632324,0.7216903153608492,74.0,448.0
R,U,"[4, 3]",1.0,5.0,0.8237841129302979,2.5569000244140625,0.7285530598375658,74.0,449.0
R,U,"[3, 3]",-2.0,3.0,0.24468994140625,1.7663969993591309,0.5284351215853623,74.0,450.0
,,"(3, 3)",,,,,,74.0,
G,D,"[4, 3]",1.0,1.0,0.7752218246459961,3.311486005783081,0.6062755697425667,,451.0
G,D,"[5, 3]",1.0,2.0,0.5102808475494385,2.0173070430755615,0.5069663202761573,75.0,452.0
B,L,"[5, 2]",1.0,3.0,0.36361098289489746,1.6826388835906982,0.3230232580185064,75.0,453.0
Y,R,"[5, 3]",1.0,4.0,0.46319103240966797,2.097040891647339,0.6363327699718572,75.0,454.0
R,U,"[4, 3]",1.0,5.0,0.3242201805114746,1.752197027206421,0.42200261638325476,75.0,455.0
Y,R,"[4, 4]",-1.0,4.0,0.3061251640319824,1.8106689453125,0.4992481178683025,75.0,456.0
,,"(3, 3)",,,,,,75.0,
G,D,"[4, 3]",1.0,1.0,0.889998197555542,2.8270328044891357,0.4764134953537598,,457.0
G,D,"[5, 3]",1.0,2.0,0.30515289306640625,1.7777938842773438,0.47062044998463337,76.0,458.0
B,L,"[5, 2]",1.0,3.0,0.24950098991394043,1.5420100688934326,0.2960615051740566,76.0,459.0
Y,R,"[5, 3]",1.0,4.0,0.6755051612854004,2.382948875427246,0.6952597897821526,76.0,460.0
R,U,"[4, 3]",1.0,5.0,0.26500988006591797,1.9966461658477783,0.7416878792478899,76.0,461.0
B,L,"[4, 2]",1.0,6.0,0.3126950263977051,1.7263789176940918,0.4183672977429108,76.0,462.0
,,"(3, 3)",,,,,,76.0,
G,D,"[4, 3]",1.0,1.0,0.6987340450286865,3.142251968383789,0.5768951164349513,,463.0
G,D,"[5, 3]",1.0,2.0,0.2830171585083008,2.0146100521087646,0.7245797241759795,77.0,464.0
B,L,"[5, 2]",1.0,3.0,0.25133609771728516,1.6557250022888184,0.39719151413472015,77.0,465.0
Y,R,"[5, 3]",1.0,4.0,0.5045499801635742,2.2132439613342285,0.6935503015686906,77.0,466.0
R,U,"[4, 3]",1.0,5.0,0.2635650634765625,1.9141819477081299,0.6575737105020545,77.0,467.0
B,L,"[4, 2]",1.0,6.0,0.24885797500610352,1.864959955215454,0.6058254371494113,77.0,468.0
,,"(3, 3)",,,,,,77.0,
G,D,"[4, 3]",1.0,1.0,0.5558300018310547,2.594014883041382,0.6496602053057792,,469.0
G,D,"[5, 3]",1.0,2.0,0.23804306983947754,1.7814760208129883,0.5311997826794055,78.0,470.0
B,L,"[5, 2]",1.0,3.0,0.24787688255310059,1.7528059482574463,0.5006755167179477,78.0,471.0
Y,R,"[5, 3]",1.0,4.0,0.30570197105407715,2.0485751628875732,0.7322625982394101,78.0,472.0
R,U,"[4, 3]",1.0,5.0,0.20465683937072754,1.885185956954956,0.684104203702099,78.0,473.0
B,L,"[4, 2]",1.0,6.0,0.17770695686340332,1.521285057067871,0.33903179067146866,78.0,474.0
,,"(3, 3)",,,,,,78.0,
G,D,"[4, 3]",1.0,1.0,0.7391550540924072,3.096816062927246,0.5023448032855302,,475.0
G,D,"[5, 3]",1.0,2.0,0.37162303924560547,1.747791051864624,0.3666855498134681,79.0,476.0
B,L,"[5, 2]",1.0,3.0,0.2647440433502197,1.5356740951538086,0.2692048579337849,79.0,477.0
Y,R,"[5, 3]",1.0,4.0,0.33316802978515625,1.6334540843963623,0.28608760340255196,79.0,478.0
R,U,"[4, 3]",1.0,5.0,0.3238399028778076,1.8017480373382568,0.4707542088875048,79.0,479.0
B,L,"[4, 2]",1.0,6.0,0.17681503295898438,1.7699980735778809,0.5906957553094456,79.0,480.0
,,"(3, 3)",,,,,,79.0,
G,D,"[4, 3]",1.0,1.0,0.6173501014709473,2.6055870056152344,0.4127987135886099,,481.0
G,D,"[5, 3]",1.0,2.0,0.45636701583862305,1.7741589546203613,0.30357092794430324,80.0,482.0
B,L,"[5, 2]",1.0,3.0,0.32889389991760254,1.6322200298309326,0.30249078739413415,80.0,483.0
Y,R,"[5, 3]",1.0,4.0,0.15645194053649902,1.8624579906463623,0.6981262668222868,80.0,484.0
R,U,"[4, 3]",1.0,5.0,0.1976640224456787,1.8422870635986328,0.6402565706587168,80.0,485.0
B,L,"[4, 2]",1.0,6.0,0.2034001350402832,1.8475351333618164,0.6541352205575147,80.0,486.0
,,"(3, 3)",,,,,,80.0,
G,D,"[4, 3]",1.0,1.0,0.6753270626068115,3.208587884902954,0.4961617596329777,,487.0
G,D,"[5, 3]",1.0,2.0,0.2675669193267822,1.7268829345703125,0.4396221652043944,81.0,488.0
B,L,"[5, 2]",1.0,3.0,0.26813316345214844,1.8424601554870605,0.5654709301393477,81.0,489.0
Y,R,"[5, 3]",1.0,4.0,0.3098468780517578,1.8347721099853516,0.5167590956843429,81.0,490.0
R,U,"[4, 3]",1.0,5.0,0.2500641345977783,1.7939279079437256,0.527356904460697,81.0,491.0
B,L,"[4, 2]",1.0,6.0,0.27805113792419434,1.7575290203094482,0.4847671733236154,81.0,492.0
,,"(3, 3)",,,,,,81.0,
G,D,"[4, 3]",1.0,1.0,0.5542769432067871,2.873220920562744,0.7409046303990167,,493.0
G,D,"[5, 3]",1.0,2.0,0.3452291488647461,1.8146419525146484,0.47237221813108954,82.0,494.0
B,L,"[5, 2]",1.0,3.0,0.3740260601043701,1.792518138885498,0.4151680016604603,82.0,495.0
Y,R,"[5, 3]",1.0,4.0,0.31800103187561035,1.932055950164795,0.6133781824004394,82.0,496.0
R,U,"[4, 3]",1.0,5.0,0.4006381034851074,1.8464939594268799,0.4267711862914485,82.0,497.0
B,L,"[4, 2]",1.0,6.0,0.2123560905456543,1.5622620582580566,0.3555345659385533,82.0,498.0
,,"(3, 3)",,,,,,82.0,
G,D,"[4, 3]",1.0,1.0,0.5430371761322021,3.445958137512207,0.3014291019182513,,499.0
G,D,"[5, 3]",1.0,2.0,0.3409459590911865,1.6409809589385986,0.2926627337744264,83.0,500.0
B,L,"[5, 2]",1.0,3.0,0.34516096115112305,1.7308130264282227,0.3894810017823836,83.0,501.0
Y,R,"[5, 3]",1.0,4.0,0.12325906753540039,1.747534990310669,0.6202438187837611,83.0,502.0
R,U,"[4, 3]",1.0,5.0,0.21080708503723145,1.9223320484161377,0.7092003956988537,83.0,503.0
B,L,"[4, 2]",1.0,6.0,0.20313191413879395,1.5586340427398682,0.36810082541306904,83.0,504.0
,,"(3, 3)",,,,,,83.0,
G,D,"[4, 3]",1.0,1.0,0.956589937210083,3.084012985229492,0.5851190655892585,,505.0
G,D,"[5, 3]",1.0,2.0,0.3740119934082031,1.7910809516906738,0.4095878440697014,84.0,506.0
B,L,"[5, 2]",1.0,3.0,0.28859710693359375,1.6656179428100586,0.37527257602268116,84.0,507.0
Y,R,"[5, 3]",-1.0,3.0,0.019917964935302734,5.809521913528442,0.6674733201495492,84.0,508.0
R,U,"[4, 3]",1.0,4.0,0.4171278476715088,1.9896750450134277,0.5571689350079334,84.0,509.0
B,L,"[4, 2]",1.0,5.0,0.3447909355163574,1.6447210311889648,0.3021706088049107,84.0,510.0
,,"(3, 3)",,,,,,84.0,
G,D,"[4, 3]",1.0,1.0,0.7183489799499512,3.3001599311828613,0.7350795661773055,,511.0
G,D,"[5, 3]",1.0,2.0,0.3486959934234619,2.0079538822174072,0.659747895875612,85.0,512.0
B,L,"[5, 2]",1.0,3.0,0.27971315383911133,1.633599042892456,0.3602254867708341,85.0,513.0
R,U,"[4, 2]",1.0,4.0,0.326369047164917,1.6504390239715576,0.3274145513762381,85.0,514.0
Y,R,"[4, 3]",1.0,5.0,0.7054400444030762,2.179373025894165,0.4730800618491674,85.0,515.0
R,U,"[3, 3]",-2.0,3.0,0.5979931354522705,1.8612840175628662,0.2513470145399744,85.0,516.0
,,"(3, 3)",,,,,,85.0,
G,D,"[4, 3]",1.0,1.0,0.7754931449890137,3.837388038635254,0.7381890699233844,,517.0
G,D,"[5, 3]",1.0,2.0,0.30211496353149414,1.810925006866455,0.4993031323604274,86.0,518.0
B,L,"[5, 2]",1.0,3.0,0.4532339572906494,2.1784348487854004,0.7105011867043105,86.0,519.0
Y,R,"[5, 3]",1.0,4.0,0.3524742126464844,1.7282419204711914,0.37246712000043036,86.0,520.0
R,U,"[4, 3]",1.0,5.0,0.3911259174346924,1.8241899013519287,0.42970822912684453,86.0,521.0
B,L,"[4, 2]",1.0,6.0,0.3861048221588135,1.9467461109161377,0.5430405211846173,86.0,522.0
,,"(3, 3)",,,,,,86.0,
G,D,"[4, 3]",1.0,1.0,0.6331191062927246,3.0138840675354004,0.723274547385798,,523.0
G,D,"[5, 3]",1.0,2.0,0.3316831588745117,1.7783660888671875,0.43521675923676156,87.0,524.0
B,L,"[5, 2]",1.0,3.0,0.3063778877258301,1.5975232124328613,0.28295062053284903,87.0,525.0
Y,R,"[5, 3]",1.0,4.0,0.5583550930023193,1.8611860275268555,0.29387765691077594,87.0,526.0
R,U,"[4, 3]",1.0,5.0,0.7502670288085938,2.506174087524414,0.749560636192178,87.0,527.0
B,L,"[4, 2]",1.0,6.0,0.34467220306396484,2.0927929878234863,0.7423820549541253,87.0,528.0
,,"(3, 3)",,,,,,87.0,
G,D,"[4, 3]",1.0,1.0,0.9954159259796143,3.140681028366089,0.31664383461111345,,529.0
G,D,"[5, 3]",1.0,2.0,0.41027188301086426,2.0908827781677246,0.6737277720268748,88.0,530.0
B,L,"[5, 2]",1.0,3.0,0.23378300666809082,1.717736005783081,0.4749025732239503,88.0,531.0
Y,R,"[5, 3]",1.0,4.0,0.3241279125213623,1.6948370933532715,0.37009493836121865,88.0,532.0
R,U,"[4, 3]",1.0,5.0,0.32509899139404297,1.9931230545043945,0.662536659754007,88.0,533.0
B,L,"[4, 2]",1.0,6.0,0.2602720260620117,1.991029977798462,0.7201580458377469,88.0,534.0
,,"(3, 3)",,,,,,88.0,
G,D,"[4, 3]",1.0,1.0,0.5461809635162354,2.4151830673217773,0.3191895343506861,,535.0
G,D,"[5, 3]",1.0,2.0,0.36001014709472656,1.8051059246063232,0.44074283261200436,89.0,536.0
B,L,"[5, 2]",1.0,3.0,0.3949859142303467,2.122277021408081,0.72933581994703,89.0,537.0
Y,R,"[5, 3]",1.0,4.0,0.26762986183166504,1.8607709407806396,0.5734954257738292,89.0,538.0
R,U,"[4, 3]",1.0,5.0,0.30160999298095703,1.7900111675262451,0.4803472613149263,89.0,539.0
B,L,"[4, 2]",1.0,6.0,0.2575838565826416,1.9851479530334473,0.7149061524825602,89.0,540.0
,,"(3, 3)",,,,,,89.0,
G,D,"[4, 3]",1.0,1.0,0.619359016418457,3.377516984939575,0.6590259594851716,,541.0
G,D,"[5, 3]",1.0,2.0,0.3804280757904053,1.7258949279785156,0.3519051592976262,90.0,542.0
B,L,"[5, 2]",1.0,3.0,0.4570798873901367,1.8285059928894043,0.36375243553061226,90.0,543.0
Y,R,"[5, 3]",1.0,4.0,0.30772995948791504,1.7492549419403076,0.42955053064273946,90.0,544.0
R,U,"[4, 3]",1.0,5.0,0.2687389850616455,1.8082470893859863,0.5209183617989774,90.0,545.0
B,L,"[4, 2]",1.0,6.0,0.28070998191833496,1.7419300079345703,0.46267074429472926,90.0,546.0
,,"(3, 3)",,,,,,90.0,
G,D,"[4, 3]",1.0,1.0,0.6247620582580566,2.9489338397979736,0.4450837452941348,,547.0
G,D,"[5, 3]",1.0,2.0,0.36528801918029785,1.689635992050171,0.33458279069776886,91.0,548.0
B,L,"[5, 2]",1.0,3.0,0.49027585983276367,2.069437026977539,0.5704286964997273,91.0,549.0
Y,R,"[5, 3]",1.0,4.0,0.5255310535430908,2.2457430362701416,0.7160209025570152,91.0,550.0
R,U,"[4, 3]",1.0,5.0,0.23561620712280273,1.9083590507507324,0.6742938584449352,91.0,551.0
B,L,"[4, 2]",1.0,6.0,0.3694779872894287,2.07145094871521,0.6956153255273975,91.0,552.0
,,"(3, 3)",,,,,,91.0,
G,D,"[4, 3]",1.0,1.0,0.6072750091552734,2.572587013244629,0.3852466766232207,,553.0
G,D,"[5, 3]",1.0,2.0,0.31940293312072754,1.7030959129333496,0.3715984569693933,92.0,554.0
B,L,"[5, 2]",1.0,3.0,0.4204230308532715,2.0300421714782715,0.6013204995854706,92.0,555.0
Y,R,"[5, 3]",1.0,4.0,0.3220179080963135,1.8637559413909912,0.5484035428096476,92.0,556.0
R,U,"[4, 3]",1.0,5.0,0.2877209186553955,1.7033360004425049,0.41846766891068954,92.0,557.0
B,L,"[4, 2]",1.0,6.0,0.2932889461517334,2.0466270446777344,0.7483814221904743,92.0,558.0
,,"(3, 3)",,,,,,92.0,
G,D,"[4, 3]",1.0,1.0,0.6629359722137451,3.142548084259033,0.5737507271227645,,559.0
G,D,"[5, 3]",1.0,2.0,0.3782210350036621,2.069127082824707,0.692851179187953,93.0,560.0
B,L,"[5, 2]",1.0,3.0,0.28820085525512695,1.9042401313781738,0.6138140564590914,93.0,561.0
Y,R,"[5, 3]",1.0,4.0,0.2726290225982666,1.639375925064087,0.3534390564600395,93.0,562.0
R,U,"[4, 3]",1.0,5.0,0.3491671085357666,1.7494049072265625,0.3863048231259691,93.0,563.0
B,L,"[4, 2]",1.0,6.0,0.3532569408416748,2.0990941524505615,0.7347587727392428,93.0,564.0
,,"(3, 3)",,,,,,93.0,
G,D,"[4, 3]",1.0,1.0,0.5519838333129883,2.4244699478149414,0.2595280834483228,,565.0
G,D,"[5, 3]",1.0,2.0,0.357403039932251,1.832749843597412,0.4753127914304155,94.0,566.0
B,L,"[5, 2]",1.0,3.0,0.3006260395050049,1.7129380702972412,0.421628000637365,94.0,567.0
Y,R,"[5, 3]",1.0,4.0,0.3825042247772217,1.713974952697754,0.30232538022992417,94.0,568.0
R,U,"[4, 3]",1.0,5.0,0.26584696769714355,1.627338171005249,0.3629505755688793,94.0,569.0
B,L,"[4, 2]",1.0,6.0,0.25339698791503906,1.940648078918457,0.6867768430868622,94.0,570.0
,,"(3, 3)",,,,,,94.0,
G,D,"[4, 3]",1.0,1.0,0.47964978218078613,2.564962863922119,0.3016707096843484,,571.0
G,D,"[5, 3]",1.0,2.0,0.3432159423828125,1.7822139263153076,0.43376703869925465,95.0,572.0
B,L,"[5, 2]",1.0,3.0,0.2588660717010498,1.5394501686096191,0.27350756731500253,95.0,573.0
Y,R,"[5, 3]",-1.0,3.0,0.0681149959564209,5.529973030090332,0.3364943609012752,95.0,574.0
R,U,"[4, 3]",1.0,4.0,0.27759790420532227,1.773380994796753,0.49278525378190313,95.0,575.0
B,L,"[4, 2]",1.0,5.0,0.2684340476989746,1.8964099884033203,0.6224704942568748,95.0,576.0
,,"(3, 3)",,,,,,95.0,
G,D,"[4, 3]",1.0,1.0,0.5691969394683838,3.6500890254974365,0.6724064984391322,,577.0
G,D,"[5, 3]",1.0,2.0,0.21633291244506836,1.8106350898742676,0.566612578576515,96.0,578.0
B,L,"[5, 2]",1.0,3.0,0.2036302089691162,1.555406093597412,0.35529513535644347,96.0,579.0
R,U,"[4, 2]",1.0,4.0,0.34159111976623535,1.9964160919189453,0.651441862277093,96.0,580.0
Y,R,"[4, 3]",1.0,5.0,0.4286048412322998,1.91434907913208,0.48257583657758985,96.0,581.0
B,L,"[4, 2]",1.0,6.0,0.49081897735595703,1.7907719612121582,0.2901694143754439,96.0,582.0
,,"(3, 3)",,,,,,96.0,
G,D,"[4, 3]",1.0,1.0,0.46707797050476074,5.160650014877319,0.40039925413041055,,583.0
G,D,"[5, 3]",1.0,2.0,0.4998140335083008,2.073988914489746,0.5742114173938948,97.0,584.0
B,L,"[5, 2]",1.0,3.0,0.2633540630340576,1.8508739471435547,0.5916920595974902,97.0,585.0
Y,R,"[5, 3]",1.0,4.0,0.23596906661987305,1.6965610980987549,0.45494258686557404,97.0,586.0
R,U,"[4, 3]",1.0,5.0,0.28734683990478516,1.7403271198272705,0.4452794624525479,97.0,587.0
B,L,"[4, 2]",1.0,6.0,0.28567004203796387,1.6059010028839111,0.3178424018607985,97.0,588.0
,,"(3, 3)",,,,,,97.0,
G,D,"[4, 3]",1.0,1.0,0.6637940406799316,2.688997983932495,0.25688359849805154,,589.0
G,D,"[5, 3]",1.0,2.0,0.34459400177001953,1.886584997177124,0.5433208806768965,98.0,590.0
B,L,"[5, 2]",1.0,3.0,0.49935221672058105,2.1054580211639404,0.5818709108063497,98.0,591.0
Y,R,"[5, 3]",1.0,4.0,0.3085308074951172,1.8122711181640625,0.4940954587399777,98.0,592.0
R,U,"[4, 3]",1.0,5.0,0.21351099014282227,1.7897119522094727,0.5838107168935232,98.0,593.0
B,L,"[4, 2]",1.0,6.0,0.22864508628845215,1.620840072631836,0.38803975654139683,98.0,594.0
,,"(3, 3)",,,,,,98.0,
G,D,"[4, 3]",1.0,1.0,0.761793851852417,3.4797821044921875,0.701289229405448,,595.0
G,D,"[5, 3]",1.0,2.0,0.2206120491027832,1.627769947052002,0.3954469672081539,99.0,596.0
B,L,"[5, 2]",1.0,3.0,0.27267885208129883,1.7251307964324951,0.45366618145488885,99.0,597.0
R,U,"[4, 2]",1.0,4.0,0.4484519958496094,2.0005757808685303,0.5541012839277817,99.0,598.0
Y,R,"[4, 3]",1.0,5.0,0.276688814163208,2.028079032897949,0.7488850776572626,99.0,599.0
B,L,"[4, 2]",1.0,6.0,0.26395106315612793,2.002377986907959,0.7344155200665166,99.0,600.0
,,"(3, 3)",,,,,,99.0,
G,D,"[4, 3]",1.0,1.0,0.7285041809082031,3.4191079139709473,0.686815578128876,,601.0
G,D,"[5, 3]",1.0,2.0,0.21732807159423828,1.9503629207611084,0.7203850137165935,100.0,602.0
B,L,"[5, 2]",1.0,3.0,0.21623587608337402,1.57794189453125,0.3486136403122419,100.0,603.0
R,U,"[4, 2]",1.0,4.0,0.2198200225830078,1.6233792304992676,0.3886814814309228,100.0,604.0
B,L,"[4, 1]",1.0,5.0,0.6031830310821533,2.208530902862549,0.613393198875456,100.0,605.0
B,L,"[4, 0]",0.0,5.0,0.39643311500549316,1.685809850692749,0.2829076677783038,100.0,606.0
,,"(3, 3)",,,,,,100.0,
G,D,"[4, 3]",1.0,1.0,0.6932241916656494,3.3897130489349365,0.45551238116769655,,607.0
G,D,"[5, 3]",1.0,2.0,0.2516319751739502,1.602276086807251,0.3412820628187762,101.0,608.0
B,L,"[5, 2]",1.0,3.0,0.6456558704376221,1.956233024597168,0.3140279288070315,101.0,609.0
R,U,"[4, 2]",1.0,4.0,0.4339780807495117,1.959656000137329,0.5070813147839408,101.0,610.0
Y,R,"[4, 3]",1.0,5.0,0.24091100692749023,1.7814269065856934,0.5382946397002684,101.0,611.0
B,L,"[4, 2]",1.0,6.0,0.22371315956115723,1.6195001602172852,0.39111121730100434,101.0,612.0
,,"(3, 3)",,,,,,101.0,
G,D,"[4, 3]",1.0,1.0,0.8578670024871826,3.8925769329071045,0.6335001213922691,,613.0
B,L,"[4, 2]",1.0,2.0,0.417863130569458,2.134589910507202,0.7013518513105117,102.0,614.0
G,D,"[5, 2]",1.0,3.0,0.3464930057525635,1.8271100521087646,0.4786794409286299,102.0,615.0
R,U,"[4, 2]",1.0,4.0,0.3017740249633789,1.9522428512573242,0.6473136559686281,102.0,616.0
Y,R,"[4, 3]",1.0,5.0,0.25020909309387207,1.998356819152832,0.7451996761218731,102.0,617.0
G,D,"[5, 3]",1.0,6.0,0.4137110710144043,1.9605469703674316,0.5560503675431157,102.0,618.0
,,"(3, 3)",,,,,,102.0,
B,L,"[3, 2]",-1.0,-1.0,0.8429160118103027,2.9011471271514893,0.4404896748816012,,619.0
B,L,"[3, 1]",1.0,0.0,0.3959319591522217,1.680182933807373,0.270836077565474,103.0,620.0
G,D,"[4, 1]",1.0,1.0,0.3856010437011719,1.760401964187622,0.36442830843342855,103.0,621.0
R,U,"[3, 1]",1.0,2.0,0.4959080219268799,2.243722915649414,0.7411365858881371,103.0,622.0
Y,R,"[3, 2]",-1.0,1.0,0.24865198135375977,1.8930330276489258,0.6340834042977255,103.0,623.0
G,D,"[4, 2]",1.0,2.0,0.5075440406799316,2.2240488529205322,0.7077961123471018,103.0,624.0
,,"(3, 3)",,,,,,103.0,
G,D,"[4, 3]",1.0,1.0,0.9617090225219727,3.264608860015869,0.4395374304559847,,625.0
G,D,"[5, 3]",1.0,2.0,0.28226494789123535,1.697340965270996,0.42020627406949124,104.0,626.0
B,L,"[5, 2]",1.0,3.0,0.28006482124328613,1.9918010234832764,0.7115948072458533,104.0,627.0
Y,R,"[5, 3]",1.0,4.0,0.21880197525024414,1.6188948154449463,0.397414232782962,104.0,628.0
R,U,"[4, 3]",1.0,5.0,0.5083940029144287,1.8647189140319824,0.34549764038039965,104.0,629.0
B,L,"[4, 2]",1.0,6.0,0.38129115104675293,1.8657639026641846,0.4944147147541757,104.0,630.0
,,"(3, 3)",,,,,,104.0,
G,D,"[4, 3]",1.0,1.0,0.813957929611206,2.882704019546509,0.29371598987826614,,631.0
B,L,"[4, 2]",1.0,2.0,0.2524130344390869,1.6746549606323242,0.4183132512667969,105.0,632.0
G,D,"[5, 2]",1.0,3.0,0.27984189987182617,1.6283609867095947,0.34667395378528765,105.0,633.0
R,U,"[4, 2]",1.0,4.0,0.5007050037384033,2.243177890777588,0.7225979110404956,105.0,634.0
Y,R,"[4, 3]",1.0,5.0,0.23415803909301758,1.7665088176727295,0.5226509135506194,105.0,635.0
G,D,"[5, 3]",1.0,6.0,0.517507791519165,1.9550518989562988,0.4280099527135861,105.0,636.0
,,"(3, 3)",,,,,,105.0,
G,D,"[4, 3]",1.0,1.0,0.667039155960083,2.9992032051086426,0.5767970359341428,,637.0
B,L,"[4, 2]",1.0,2.0,0.3246021270751953,1.9682159423828125,0.6449498714970662,106.0,638.0
B,L,"[4, 1]",1.0,3.0,0.2857370376586914,2.0087459087371826,0.7201295451996718,106.0,639.0
Y,R,"[4, 2]",1.0,4.0,0.35223817825317383,1.8428540229797363,0.47979130574365286,106.0,640.0
R,U,"[3, 2]",-1.0,3.0,0.268953800201416,1.9269888401031494,0.6402381083182307,106.0,641.0
B,L,"[3, 1]",1.0,4.0,0.2002699375152588,1.8193390369415283,0.6091739685188063,106.0,642.0
,,"(3, 3)",,,,,,106.0,
G,D,"[4, 3]",1.0,1.0,0.7710590362548828,2.9791100025177,0.6714107381702232,,643.0
G,D,"[5, 3]",1.0,2.0,0.255202054977417,1.9073669910430908,0.6626377504477436,107.0,644.0
B,L,"[5, 2]",1.0,3.0,0.21222901344299316,1.6705348491668701,0.466205186392409,107.0,645.0
R,U,"[4, 2]",1.0,4.0,0.2898528575897217,1.8131120204925537,0.5126502268295581,107.0,646.0
Y,R,"[4, 3]",1.0,5.0,0.22112584114074707,1.9684720039367676,0.7306854106455885,107.0,647.0
B,L,"[4, 2]",1.0,6.0,0.303516149520874,1.9207839965820312,0.618352943335118,107.0,648.0
,,"(3, 3)",,,,,,107.0,
G,D,"[4, 3]",1.0,1.0,0.5359258651733398,2.6133768558502197,0.36518135781865857,,649.0
G,D,"[5, 3]",1.0,2.0,0.3650689125061035,1.9122898578643799,0.5271273595439767,108.0,650.0
B,L,"[5, 2]",1.0,3.0,0.2690920829772949,1.6381587982177734,0.3655131288011899,108.0,651.0
Y,R,"[5, 3]",1.0,4.0,0.4241189956665039,1.951401948928833,0.5166776842126477,108.0,652.0
R,U,"[4, 3]",1.0,5.0,0.2890660762786865,1.9741241931915283,0.6740389799481474,108.0,653.0
B,L,"[4, 2]",1.0,6.0,0.2683100700378418,1.821640968322754,0.5456590185416275,108.0,654.0
,,"(3, 3)",,,,,,108.0,
G,D,"[4, 3]",1.0,1.0,0.6342859268188477,2.581289052963257,0.34357983315692675,,655.0
G,D,"[5, 3]",1.0,2.0,0.593224048614502,2.1842281818389893,0.5943730994061065,109.0,656.0
B,L,"[5, 2]",1.0,3.0,0.2289419174194336,1.4844660758972168,0.26244513985034124,109.0,657.0
Y,R,"[5, 3]",1.0,4.0,0.4925498962402344,1.8043200969696045,0.31667869897386025,109.0,658.0
R,U,"[4, 3]",1.0,5.0,0.33377504348754883,1.8735928535461426,0.5398629691059661,109.0,659.0
B,L,"[4, 2]",1.0,6.0,0.28317809104919434,1.6848578453063965,0.39161842436610655,109.0,660.0
,,"(3, 3)",,,,,,109.0,
G,D,"[4, 3]",1.0,1.0,0.6443560123443604,2.796072006225586,0.7038918585868399,,661.0
B,L,"[4, 2]",1.0,2.0,0.23177289962768555,1.6533689498901367,0.4240637724828406,110.0,662.0
B,L,"[4, 1]",1.0,3.0,0.2546381950378418,1.6812219619750977,0.42221110724170835,110.0,663.0
R,U,"[3, 1]",1.0,4.0,0.2426760196685791,1.9182319641113281,0.6731732507357913,110.0,664.0
Y,R,"[3, 2]",-1.0,3.0,0.31382298469543457,1.9878370761871338,0.6609974653413397,110.0,665.0
B,L,"[3, 1]",1.0,4.0,0.5682480335235596,2.005068063735962,0.44956557337399905,110.0,666.0
,,"(3, 3)",,,,,,110.0,
G,D,"[4, 3]",1.0,1.0,0.7964999675750732,2.685474157333374,0.4183770842257701,,667.0
G,D,"[5, 3]",1.0,2.0,0.25727081298828125,1.628659963607788,0.3636390099694646,111.0,668.0
B,L,"[5, 2]",1.0,3.0,0.2678360939025879,1.6383378505706787,0.3520414109520216,111.0,669.0
Y,R,"[5, 3]",1.0,4.0,0.24043703079223633,1.745182991027832,0.49693997633341735,111.0,670.0
R,U,"[4, 3]",1.0,5.0,0.21841001510620117,1.6480820178985596,0.4119023188078896,111.0,671.0
B,L,"[4, 2]",1.0,6.0,0.2901039123535156,1.9103450775146484,0.6217519141562171,111.0,672.0
,,"(3, 3)",,,,,,111.0,
G,D,"[4, 3]",1.0,1.0,0.6676909923553467,2.644562005996704,0.6496662027748172,,673.0
B,L,"[4, 2]",1.0,2.0,0.26248693466186523,1.7358899116516113,0.4690590898176275,112.0,674.0
G,D,"[5, 2]",1.0,3.0,0.22731995582580566,1.5489609241485596,0.31793870826566634,112.0,675.0
R,U,"[4, 2]",1.0,4.0,0.2729921340942383,1.806516170501709,0.5243339371721476,112.0,676.0
R,U,"[3, 2]",-1.0,3.0,0.2403700351715088,1.9146430492401123,0.6889773631679312,112.0,677.0
B,L,"[3, 1]",1.0,4.0,0.21729397773742676,1.526503086090088,0.2988423806337359,112.0,678.0
,,"(3, 3)",,,,,,112.0,
G,D,"[4, 3]",1.0,1.0,0.5671470165252686,2.648160934448242,0.546620173655116,,679.0
G,D,"[5, 3]",1.0,2.0,0.1818699836730957,1.4969499111175537,0.31056233984344356,113.0,680.0
Y,R,"[5, 4]",-1.0,1.0,0.26350879669189453,1.8476791381835938,0.5747704129288352,113.0,681.0
B,L,"[5, 3]",1.0,2.0,0.25150489807128906,1.9001290798187256,0.6414709406052715,113.0,682.0
R,U,"[4, 3]",1.0,3.0,0.2917170524597168,1.8857171535491943,0.6103071933173847,113.0,683.0
B,L,"[4, 2]",1.0,4.0,0.2340700626373291,1.6411359310150146,0.4016672270307947,113.0,684.0
,,"(3, 3)",,,,,,113.0,
G,D,"[4, 3]",1.0,1.0,0.543975830078125,2.5521538257598877,0.537017335298072,,685.0
G,D,"[5, 3]",1.0,2.0,0.20453190803527832,1.7803568840026855,0.5672417393308273,114.0,686.0
B,L,"[5, 2]",1.0,3.0,0.21671295166015625,1.5157990455627441,0.2834183613078943,114.0,687.0
Y,R,"[5, 3]",1.0,4.0,0.27401304244995117,1.6406049728393555,0.3569876124076483,114.0,688.0
R,U,"[4, 3]",1.0,5.0,0.2565898895263672,1.6312918663024902,0.37160784735835756,114.0,689.0
B,L,"[4, 2]",1.0,6.0,0.34421491622924805,2.0036911964416504,0.6582610679599195,114.0,690.0
,,"(3, 3)",,,,,,114.0,
G,D,"[4, 3]",1.0,1.0,0.531822919845581,2.7642409801483154,0.2894849585379169,,691.0
G,D,"[5, 3]",1.0,2.0,0.27251601219177246,2.000214099884033,0.7223725660462472,115.0,692.0
B,L,"[5, 2]",1.0,3.0,0.21169710159301758,1.8380329608917236,0.6271741409598874,115.0,693.0
R,U,"[4, 2]",1.0,4.0,0.3006720542907715,1.7719008922576904,0.46598552007198596,115.0,694.0
Y,R,"[4, 3]",1.0,5.0,0.17972803115844727,1.541057825088501,0.35712876882891953,115.0,695.0
B,L,"[4, 2]",1.0,6.0,0.5234029293060303,1.804276943206787,0.2781767898521526,115.0,696.0
,,"(3, 3)",,,,,,115.0,
G,D,"[4, 3]",1.0,1.0,0.6044268608093262,2.501838207244873,0.3963467259226547,,697.0
G,D,"[5, 3]",1.0,2.0,0.24974679946899414,1.783890962600708,0.5132964735569965,116.0,698.0
B,L,"[5, 2]",1.0,3.0,0.1673870086669922,1.6529278755187988,0.46633318046111555,116.0,699.0
Y,R,"[5, 3]",1.0,4.0,0.2942500114440918,1.7713441848754883,0.4709477433245972,116.0,700.0
R,U,"[4, 3]",1.0,5.0,0.22858595848083496,1.8858439922332764,0.656437746571335,116.0,701.0
G,D,"[5, 3]",1.0,6.0,0.3645050525665283,1.7683629989624023,0.4083566524199532,116.0,702.0
,,"(3, 3)",,,,,,116.0,
G,D,"[4, 3]",1.0,1.0,0.7730560302734375,2.868993043899536,0.4272276439517821,,703.0
B,L,"[4, 2]",1.0,2.0,0.3528251647949219,1.7074100971221924,0.3683325770222742,117.0,704.0
B,L,"[4, 1]",1.0,3.0,0.2752091884613037,1.8202481269836426,0.538093659621067,117.0,705.0
R,U,"[3, 1]",1.0,4.0,0.23841094970703125,1.8887619972229004,0.6433436842090383,117.0,706.0
Y,R,"[3, 2]",-1.0,3.0,0.3825080394744873,2.0860040187835693,0.6958692863729763,117.0,707.0
G,D,"[4, 2]",1.0,4.0,0.31606602668762207,1.8569071292877197,0.519689989790159,117.0,708.0
,,"(3, 3)",,,,,,117.0,
G,D,"[4, 3]",1.0,1.0,0.6770181655883789,3.3938350677490234,0.5467480888936653,,709.0
G,D,"[5, 3]",1.0,2.0,0.23930883407592773,1.880270004272461,0.6270253198447042,118.0,710.0
B,L,"[5, 2]",1.0,3.0,0.24328017234802246,1.9572069644927979,0.7174230636638599,118.0,711.0
Y,R,"[5, 3]",1.0,4.0,0.278566837310791,1.9730091094970703,0.6900877235021474,118.0,712.0
R,U,"[4, 3]",-1.0,4.0,0.07159185409545898,5.674160957336426,0.48103268070691924,118.0,713.0
B,L,"[4, 2]",1.0,5.0,0.25559401512145996,1.8167831897735596,0.5643883308269473,118.0,714.0
,,"(3, 3)",,,,,,118.0,
G,D,"[4, 3]",1.0,1.0,0.5024750232696533,2.5663199424743652,0.5473738991177806,,715.0
G,D,"[5, 3]",1.0,2.0,0.22804498672485352,1.8784048557281494,0.6421369592740143,119.0,716.0
B,L,"[5, 2]",1.0,3.0,0.25040316581726074,1.5700078010559082,0.3125797620481327,119.0,717.0
Y,R,"[5, 3]",1.0,4.0,0.37767601013183594,2.1077568531036377,0.7364188037550727,119.0,718.0
R,U,"[4, 3]",1.0,5.0,0.22403907775878906,1.5588350296020508,0.32903358623334744,119.0,719.0
B,L,"[4, 2]",1.0,6.0,0.317080020904541,1.9176390171051025,0.6128996876897952,119.0,720.0
,,"(3, 3)",,,,,,119.0,
G,D,"[4, 3]",1.0,1.0,0.7116751670837402,2.735766887664795,0.6985782387504256,,721.0
G,D,"[5, 3]",1.0,2.0,0.267197847366333,1.8004961013793945,0.5157510373003368,120.0,722.0
B,L,"[5, 2]",-1.0,2.0,0.05058717727661133,5.526880979537964,0.3428673976512296,120.0,723.0
Y,R,"[5, 3]",1.0,3.0,0.26144909858703613,1.89351487159729,0.6363393237380639,120.0,724.0
R,U,"[4, 3]",1.0,4.0,0.24866795539855957,1.843446969985962,0.5962391526717699,120.0,725.0
B,L,"[4, 2]",1.0,5.0,0.2133629322052002,1.735954999923706,0.5155406731253132,120.0,726.0
,,"(3, 3)",,,,,,120.0,
G,D,"[4, 3]",1.0,1.0,0.553192138671875,3.6169748306274414,0.6320118079496334,,727.0
G,D,"[5, 3]",1.0,2.0,0.5243160724639893,2.074957847595215,0.5403469704236494,121.0,728.0
B,L,"[5, 2]",1.0,3.0,0.31252098083496094,1.8165760040283203,0.5069114241309404,121.0,729.0
Y,R,"[5, 3]",1.0,4.0,0.30403995513916016,2.013664960861206,0.7038414339195909,121.0,730.0
R,U,"[4, 3]",1.0,5.0,0.21628189086914062,1.5953149795532227,0.3659081622885153,121.0,731.0
B,L,"[4, 2]",1.0,6.0,0.37518787384033203,1.917037010192871,0.5329974766396111,121.0,732.0
,,"(3, 3)",,,,,,121.0,
G,D,"[4, 3]",1.0,1.0,0.5922849178314209,3.1439640522003174,0.4769943394792231,,733.0
G,D,"[5, 3]",1.0,2.0,0.22736501693725586,1.5170857906341553,0.29392091086194055,122.0,734.0
Y,R,"[5, 4]",-1.0,1.0,0.4406900405883789,1.7590808868408203,0.33648103742344415,122.0,735.0
Y,R,"[5, 5]",-1.0,0.0,0.26776695251464844,1.60154390335083,0.3379322109503676,122.0,736.0
R,U,"[4, 5]",-1.0,-1.0,0.26968908309936523,2.0219759941101074,0.7428033306740041,122.0,737.0
G,D,"[5, 5]",-1.0,-2.0,0.28406500816345215,2.0294349193573,0.7386868578011614,122.0,738.0
,,"(3, 3)",,,,,,122.0,
G,D,"[4, 3]",1.0,1.0,0.38103604316711426,2.225419044494629,0.4810660241634107,,739.0
G,D,"[5, 3]",1.0,2.0,0.4432790279388428,2.0389761924743652,0.5865234562429388,123.0,740.0
B,L,"[5, 2]",1.0,3.0,0.23691415786743164,1.8740239143371582,0.6437012885051889,123.0,741.0
Y,R,"[5, 3]",1.0,4.0,0.24019789695739746,1.8425939083099365,0.6029992457688742,123.0,742.0
R,U,"[4, 3]",1.0,5.0,0.3132212162017822,1.848456859588623,0.5347698801804579,123.0,743.0
G,D,"[5, 3]",1.0,6.0,0.38013505935668945,2.1254918575286865,0.7433432295948684,123.0,744.0
,,"(3, 3)",,,,,,123.0,
G,D,"[4, 3]",1.0,1.0,0.7869927883148193,2.5231127738952637,0.2501276849300464,,745.0
G,D,"[5, 3]",1.0,2.0,0.354079008102417,1.9564459323883057,0.5896374503369723,124.0,746.0
B,L,"[5, 2]",1.0,3.0,0.22305083274841309,1.7415549755096436,0.5144591858491512,124.0,747.0
R,U,"[4, 2]",1.0,4.0,0.250093936920166,1.832237958908081,0.5632355274351359,124.0,748.0
Y,R,"[4, 3]",1.0,5.0,0.2567570209503174,1.5990500450134277,0.3293010251081962,124.0,749.0
G,D,"[5, 3]",1.0,6.0,0.49540090560913086,1.8239378929138184,0.33652812548925787,124.0,750.0
,,"(3, 3)",,,,,,124.0,
G,D,"[4, 3]",1.0,1.0,0.4944019317626953,2.3240909576416016,0.3270225565492017,,751.0
G,D,"[5, 3]",1.0,2.0,0.34357714653015137,1.6805880069732666,0.3410696588326802,125.0,752.0
B,L,"[5, 2]",1.0,3.0,0.28485894203186035,1.5959579944610596,0.30363355775834344,125.0,753.0
Y,R,"[5, 3]",1.0,4.0,0.2898437976837158,1.700058937072754,0.403551280395417,125.0,754.0
R,U,"[4, 3]",1.0,5.0,0.29117298126220703,1.552711009979248,0.25643786610034347,125.0,755.0
B,L,"[4, 2]",1.0,6.0,0.3688089847564697,1.6410279273986816,0.2641129363854875,125.0,756.0
,,"(3, 3)",,,,,,125.0,
G,D,"[4, 3]",1.0,1.0,0.3636319637298584,2.7133758068084717,0.3272236058337724,,757.0
G,D,"[5, 3]",1.0,2.0,0.3767361640930176,2.0665040016174316,0.6932192024328483,126.0,758.0
B,L,"[5, 2]",1.0,3.0,0.2291121482849121,1.8085479736328125,0.5853311668993544,126.0,759.0
Y,R,"[5, 3]",1.0,4.0,0.2513439655303955,1.5478157997131348,0.283367629870745,126.0,760.0
R,U,"[4, 3]",1.0,5.0,0.29537296295166016,1.7989988327026367,0.49893349147357,126.0,761.0
B,L,"[4, 2]",1.0,6.0,0.35530996322631836,1.8724009990692139,0.5043588107011905,126.0,762.0
,,"(3, 3)",,,,,,126.0,
G,D,"[4, 3]",1.0,1.0,0.6673879623413086,3.5651590824127197,0.5858983815690452,,763.0
G,D,"[5, 3]",1.0,2.0,0.10446977615356445,1.6943869590759277,0.5804303958639261,127.0,764.0
B,L,"[5, 2]",1.0,3.0,0.1823570728302002,1.6504631042480469,0.4310089427172068,127.0,765.0
R,U,"[4, 2]",1.0,4.0,0.2668750286102295,1.7004539966583252,0.414829588610141,127.0,766.0
Y,R,"[4, 3]",1.0,5.0,0.30184483528137207,1.6540758609771729,0.33556056146789026,127.0,767.0
B,L,"[4, 2]",1.0,6.0,0.39484405517578125,1.6543819904327393,0.2565027159502396,127.0,768.0
,,"(3, 3)",,,,,,127.0,
G,D,"[4, 3]",1.0,1.0,0.7382709980010986,2.8902840614318848,0.6963397015586879,,769.0
B,L,"[4, 2]",1.0,2.0,0.4477660655975342,1.994387149810791,0.5408152093415723,128.0,770.0
B,L,"[4, 1]",1.0,3.0,0.26138997077941895,1.7933390140533447,0.5341205046530266,128.0,771.0
R,U,"[3, 1]",1.0,4.0,0.31131410598754883,2.007115125656128,0.6910625930946706,128.0,772.0
Y,R,"[3, 2]",-1.0,3.0,0.3324158191680908,1.7331159114837646,0.40765748085896336,128.0,773.0
G,D,"[4, 2]",1.0,4.0,0.5619471073150635,2.1392440795898438,0.5798858787882197,128.0,774.0
,,"(3, 3)",,,,,,128.0,
G,D,"[4, 3]",1.0,1.0,0.43076300621032715,2.5445330142974854,0.4412830352533054,,775.0
G,D,"[5, 3]",1.0,2.0,0.49355506896972656,1.9384160041809082,0.446526291596669,129.0,776.0
B,L,"[5, 2]",1.0,3.0,0.36756396293640137,1.8106439113616943,0.4236843866653141,129.0,777.0
Y,R,"[5, 3]",1.0,4.0,0.3616909980773926,1.9627141952514648,0.6029655970354245,129.0,778.0
R,U,"[4, 3]",1.0,5.0,0.22687196731567383,1.8081018924713135,0.5773619539283767,129.0,779.0
B,L,"[4, 2]",1.0,6.0,0.2505931854248047,1.5641088485717773,0.30850960720268655,129.0,780.0
,,"(3, 3)",,,,,,129.0,
G,D,"[4, 3]",1.0,1.0,0.9454820156097412,2.852504014968872,0.5772448381870339,,781.0
B,L,"[4, 2]",1.0,2.0,0.21804404258728027,1.689652919769287,0.4670596002194634,130.0,782.0
B,L,"[4, 1]",1.0,3.0,0.25211596488952637,1.591095209121704,0.3248041807824871,130.0,783.0
Y,R,"[4, 2]",1.0,4.0,0.29280591011047363,2.0106680393218994,0.7183873590060716,130.0,784.0
R,U,"[3, 2]",-1.0,4.0,0.06651902198791504,5.548750162124634,0.35072032682594056,130.0,785.0
B,L,"[3, 1]",1.0,5.0,0.22796010971069336,1.569382905960083,0.33662561348692105,130.0,786.0
,,"(3, 3)",,,,,,130.0,
G,D,"[4, 3]",1.0,1.0,0.4703199863433838,2.7327189445495605,0.6358846674194301,,787.0
G,D,"[5, 3]",1.0,2.0,0.29279208183288574,1.8781981468200684,0.5805554360035992,131.0,788.0
Y,R,"[5, 4]",-1.0,1.0,0.43351006507873535,2.0335190296173096,0.5807366869298012,131.0,789.0
Y,R,"[5, 5]",-1.0,0.0,0.28904294967651367,2.0273451805114746,0.7412333158167157,131.0,790.0
R,U,"[4, 5]",-1.0,-1.0,0.4573860168457031,1.8915669918060303,0.433185562469717,131.0,791.0
B,L,"[4, 4]",-1.0,-2.0,0.4354078769683838,1.7317380905151367,0.29822262496278884,131.0,792.0
,,"(3, 3)",,,,,,131.0,
G,D,"[4, 3]",1.0,1.0,0.3893880844116211,2.3306310176849365,0.46186381732895015,,793.0
G,D,"[5, 3]",1.0,2.0,0.44141077995300293,2.050229787826538,0.6119732083888965,132.0,794.0
B,L,"[5, 2]",1.0,3.0,0.35038113594055176,1.6050388813018799,0.2672078127940712,132.0,795.0
Y,R,"[5, 3]",1.0,4.0,0.5505599975585938,2.1237878799438477,0.5576122599328488,132.0,796.0
R,U,"[4, 3]",1.0,5.0,0.4159271717071533,1.8837001323699951,0.4576879140863705,132.0,797.0
B,L,"[4, 2]",1.0,6.0,0.35850000381469727,1.8713951110839844,0.5124391849373577,132.0,798.0
,,"(3, 3)",,,,,,132.0,
G,D,"[4, 3]",1.0,1.0,0.562889814376831,2.275521993637085,0.28828483098451724,,799.0
G,D,"[5, 3]",1.0,2.0,0.32443690299987793,1.6391661167144775,0.3107051918265284,133.0,800.0
Y,R,"[5, 4]",-1.0,1.0,0.36234498023986816,1.6489489078521729,0.2763760265524889,133.0,801.0
R,U,"[4, 4]",-1.0,0.0,0.40010499954223633,1.8666560649871826,0.4594511106745651,133.0,802.0
B,L,"[4, 3]",1.0,1.0,0.29041194915771484,1.6271929740905762,0.3365781779009269,133.0,803.0
B,L,"[4, 2]",1.0,2.0,0.3283109664916992,1.9261341094970703,0.5958946654663733,133.0,804.0
,,"(3, 3)",,,,,,133.0,
G,D,"[4, 3]",-1.0,-1.0,0.4060368537902832,2.7797861099243164,0.3091323127629907,,805.0
B,L,"[4, 2]",-1.0,-2.0,0.32196497917175293,2.0592448711395264,0.7349458565533445,134.0,806.0
B,L,"[4, 1]",-1.0,-3.0,0.24424481391906738,1.5104260444641113,0.2619550127009355,134.0,807.0
Y,R,"[4, 2]",-1.0,-4.0,0.19518017768859863,1.6716558933258057,0.48327328566871686,134.0,808.0
R,U,"[3, 2]",-1.0,-5.0,0.5008888244628906,1.962068796157837,0.44551463944998304,134.0,809.0
R,U,"[2, 2]",1.0,-4.0,0.33589792251586914,1.840343952178955,0.5024768650962094,134.0,810.0
,,"(3, 3)",,,,,,134.0,
B,L,"[3, 2]",-1.0,-1.0,0.5326738357543945,3.3202409744262695,0.6722798145729634,,811.0
B,L,"[3, 1]",1.0,0.0,0.3060941696166992,2.009434938430786,0.6985415932388815,135.0,812.0
B,L,"[3, 0]",0.0,0.0,0.31651997566223145,1.9118990898132324,0.5935540425316357,135.0,813.0
B,L,"[3, 0]",0.0,0.0,0.26653289794921875,1.589325189590454,0.33305761557116603,135.0,814.0
R,U,"[2, 0]",0.0,0.0,0.34543895721435547,2.0378689765930176,0.6873799514506655,135.0,815.0
R,U,"[1, 0]",0.0,0.0,0.29099488258361816,1.874596118927002,0.5786180834636807,135.0,816.0
,,"(3, 3)",,,,,,135.0,
Y,R,"[3, 4]",-1.0,-1.0,0.5072741508483887,2.4040591716766357,0.4825894839017779,,817.0
B,L,"[3, 3]",-2.0,-3.0,0.276580810546875,1.6132218837738037,0.3294399072385635,136.0,818.0
G,D,"[4, 3]",-1.0,-4.0,0.3479290008544922,1.791295051574707,0.4205641568510341,136.0,819.0
G,D,"[5, 3]",-1.0,-5.0,0.24686384201049805,1.6280910968780518,0.38193446137891524,136.0,820.0
G,D,"[6, 3]",0.0,-5.0,0.28015899658203125,1.6730220317840576,0.3883170064944284,136.0,821.0
R,U,"[5, 3]",-1.0,-6.0,0.2114870548248291,1.8298721313476562,0.6176952270949964,136.0,822.0
,,"(3, 3)",,,,,,136.0,
Y,R,"[3, 4]",-1.0,-1.0,0.8276679515838623,2.6775009632110596,0.5619738925938207,,823.0
B,L,"[3, 3]",-2.0,-3.0,0.2743868827819824,1.926785945892334,0.6551862012276598,137.0,824.0
Y,R,"[3, 4]",-1.0,-4.0,0.17208504676818848,1.8130359649658203,0.6349280700460289,137.0,825.0
Y,R,"[3, 5]",-1.0,-5.0,0.2633779048919678,1.7547500133514404,0.48954740263788116,137.0,826.0
Y,R,"[3, 6]",0.0,-5.0,0.3047208786010742,1.6633670330047607,0.3700090690230048,137.0,827.0
Y,R,"[3, 6]",0.0,-5.0,0.26971888542175293,1.854295015335083,0.5906912915885139,137.0,828.0
,,"(3, 3)",,,,,,137.0,
R,U,"[2, 3]",-2.0,0.0,1.0952260494232178,3.5115702152252197,0.6353027964741274,,829.0
B,L,"[2, 2]",1.0,1.0,0.4489860534667969,1.922874927520752,0.4585228114486499,138.0,830.0
G,D,"[3, 2]",-1.0,0.0,0.2773289680480957,1.7192769050598145,0.4443725812677891,138.0,831.0
Y,R,"[3, 3]",-2.0,-2.0,0.24553179740905762,1.920428991317749,0.6646268801771714,138.0,832.0
Y,R,"[3, 4]",-1.0,-3.0,0.2654449939727783,2.014539957046509,0.7454693432326912,138.0,833.0
Y,R,"[3, 5]",-1.0,-4.0,0.1884479522705078,1.9180710315704346,0.7301570950926779,138.0,834.0
,,"(3, 3)",,,,,,138.0,
R,U,"[2, 3]",1.0,1.0,0.990635871887207,3.1653599739074707,0.5957655699377211,,835.0
B,L,"[2, 2]",1.0,2.0,0.30582690238952637,1.6572010517120361,0.35307636027592876,139.0,836.0
G,D,"[3, 2]",-1.0,1.0,0.48404908180236816,2.148397922515869,0.6511903306548991,139.0,837.0
Y,R,"[3, 3]",-2.0,-1.0,0.3531160354614258,2.1050069332122803,0.7392903011826426,139.0,838.0
R,U,"[2, 3]",1.0,0.0,0.22595906257629395,1.8771629333496094,0.6495650767110005,139.0,839.0
G,D,"[3, 3]",-2.0,-2.0,0.44863104820251465,1.8925609588623047,0.4426071009205125,139.0,840.0
,,"(3, 3)",,,,,,139.0,
R,U,"[2, 3]",1.0,1.0,0.5733940601348877,2.852510929107666,0.5950852608185034,,841.0
B,L,"[2, 2]",1.0,2.0,0.3172459602355957,2.0002269744873047,0.6786798554919613,140.0,842.0
R,U,"[1, 2]",1.0,3.0,0.2232680320739746,1.7169609069824219,0.49538586239802984,140.0,843.0
G,D,"[2, 2]",1.0,4.0,0.49849581718444824,1.8318109512329102,0.3272870819370699,140.0,844.0
Y,R,"[2, 3]",1.0,5.0,0.5121259689331055,2.1814370155334473,0.6751504273904452,140.0,845.0
B,L,"[2, 2]",1.0,6.0,0.4777050018310547,2.0647809505462646,0.5898580413731069,140.0,846.0
,,"(3, 3)",,,,,,140.0,
R,U,"[2, 3]",1.0,1.0,0.6284458637237549,3.10862398147583,0.5315829358283504,,847.0
B,L,"[2, 2]",1.0,2.0,0.41732120513916016,1.6926829814910889,0.2745923959492385,141.0,848.0
R,U,"[1, 2]",1.0,3.0,0.5399360656738281,1.840914011001587,0.29872251217989926,141.0,849.0
G,D,"[2, 2]",1.0,4.0,0.4010050296783447,1.7677979469299316,0.34968807897538196,141.0,850.0
Y,R,"[2, 3]",1.0,5.0,0.25823402404785156,1.7730259895324707,0.5060977284627557,141.0,851.0
B,L,"[2, 2]",1.0,6.0,0.24469494819641113,1.5851171016693115,0.34136331763364913,141.0,852.0
,,"(3, 3)",,,,,,141.0,
R,U,"[2, 3]",1.0,1.0,0.7204189300537109,3.405567169189453,0.3630404210855225,,853.0
B,L,"[2, 2]",1.0,2.0,0.2795569896697998,1.762476921081543,0.47564781129488165,142.0,854.0
R,U,"[1, 2]",1.0,3.0,0.3496220111846924,1.6314349174499512,0.27388322099639434,142.0,855.0
G,D,"[2, 2]",1.0,4.0,0.512031078338623,2.1998441219329834,0.6899040878191128,142.0,856.0
Y,R,"[2, 3]",1.0,5.0,0.13447189331054688,1.6251401901245117,0.48190233219027717,142.0,857.0
B,L,"[2, 2]",1.0,6.0,0.36469411849975586,1.8956849575042725,0.527553428678102,142.0,858.0
,,"(3, 3)",,,,,,142.0,
R,U,"[2, 3]",1.0,1.0,0.540632963180542,3.188302993774414,0.36575787525632136,,859.0
B,L,"[2, 2]",1.0,2.0,0.4714691638946533,2.2032690048217773,0.7186521428196746,143.0,860.0
R,U,"[1, 2]",1.0,3.0,0.23156094551086426,1.7378840446472168,0.5066970789150749,143.0,861.0
G,D,"[2, 2]",1.0,4.0,0.21686196327209473,1.7848961353302002,0.558123046875838,143.0,862.0
Y,R,"[2, 3]",1.0,5.0,0.37750887870788574,1.8352479934692383,0.4601463149283941,143.0,863.0
B,L,"[2, 2]",1.0,6.0,0.29526209831237793,1.9117507934570312,0.6216097464989108,143.0,864.0
,,"(3, 3)",,,,,,143.0,
R,U,"[2, 3]",1.0,1.0,0.6763479709625244,2.898982048034668,0.7205564464043932,,865.0
B,L,"[2, 2]",1.0,2.0,0.2294139862060547,1.5480830669403076,0.3189125672301278,144.0,866.0
R,U,"[1, 2]",1.0,3.0,0.5315899848937988,2.1790170669555664,0.6309546795439365,144.0,867.0
G,D,"[2, 2]",1.0,4.0,0.6340270042419434,2.120615005493164,0.4684328760578072,144.0,868.0
Y,R,"[2, 3]",1.0,5.0,0.29036808013916016,1.6888329982757568,0.39051506421809495,144.0,869.0
B,L,"[2, 2]",1.0,6.0,0.30197811126708984,1.9345529079437256,0.6246722780113803,144.0,870.0
,,"(3, 3)",,,,,,144.0,
R,U,"[2, 3]",1.0,1.0,0.6344349384307861,4.945864915847778,0.7371170890069415,,871.0
B,L,"[2, 2]",1.0,2.0,0.21949481964111328,1.5915091037750244,0.3621558252201925,145.0,872.0
R,U,"[1, 2]",-1.0,2.0,0.013139009475708008,5.708830118179321,0.5706482567618341,145.0,873.0
G,D,"[2, 2]",1.0,3.0,0.38348388671875,2.113948106765747,0.7177955835846035,145.0,874.0
Y,R,"[2, 3]",1.0,4.0,0.4837639331817627,1.9442989826202393,0.4621898213113669,145.0,875.0
B,L,"[2, 2]",1.0,5.0,0.27439308166503906,1.8170359134674072,0.5460165603355125,145.0,876.0
,,"(3, 3)",,,,,,145.0,
R,U,"[2, 3]",1.0,1.0,0.7870950698852539,2.860774040222168,0.4732811617583308,,877.0
G,D,"[3, 3]",-2.0,-1.0,0.806973934173584,2.5591611862182617,0.7488105080281854,146.0,878.0
R,U,"[2, 3]",1.0,0.0,0.3272528648376465,1.716184139251709,0.38211384589405073,146.0,879.0
G,D,"[3, 3]",-2.0,-2.0,0.4066488742828369,1.7611830234527588,0.34302747560389707,146.0,880.0
Y,R,"[3, 4]",-1.0,-3.0,0.41361284255981445,2.1049931049346924,0.680941710019823,146.0,881.0
B,L,"[3, 3]",-2.0,-5.0,0.26888108253479004,1.7320680618286133,0.44672910317066966,146.0,882.0
,,"(3, 3)",,,,,,146.0,
R,U,"[2, 3]",1.0,1.0,0.7355780601501465,3.1156890392303467,0.7118756252022853,,883.0
B,L,"[2, 2]",1.0,2.0,0.4733908176422119,2.088759183883667,0.6174108708315451,147.0,884.0
R,U,"[1, 2]",1.0,3.0,0.6794230937957764,2.1216399669647217,0.43937239508674025,147.0,885.0
G,D,"[2, 2]",1.0,4.0,0.4476940631866455,2.0127389430999756,0.5683109411926532,147.0,886.0
Y,R,"[2, 3]",1.0,5.0,0.3460409641265869,1.9551260471343994,0.6067250330485654,147.0,887.0
B,L,"[2, 2]",1.0,6.0,0.3369581699371338,2.0536959171295166,0.710203843550467,147.0,888.0
,,"(3, 3)",,,,,,147.0,
R,U,"[2, 3]",1.0,1.0,0.844027042388916,3.1451258659362793,0.7391402043176603,,889.0
B,L,"[2, 2]",1.0,2.0,0.6358981132507324,2.0716288089752197,0.42716054443383716,148.0,890.0
R,U,"[1, 2]",1.0,3.0,0.43819308280944824,2.1434309482574463,0.7036232516795102,148.0,891.0
G,D,"[2, 2]",1.0,4.0,0.269193172454834,1.9803509712219238,0.700529191373598,148.0,892.0
Y,R,"[2, 3]",1.0,5.0,0.4670219421386719,1.891977071762085,0.4260561737731028,148.0,893.0
Y,R,"[2, 4]",-1.0,4.0,0.35947179794311523,1.7654938697814941,0.4081075235108059,148.0,894.0
,,"(3, 3)",,,,,,148.0,
R,U,"[2, 3]",1.0,1.0,0.6392841339111328,2.887943983078003,0.4960779065392102,,895.0
B,L,"[2, 2]",1.0,2.0,0.6197161674499512,2.31473708152771,0.6771339749343362,149.0,896.0
R,U,"[1, 2]",1.0,3.0,0.2796599864959717,1.7772579193115234,0.5045274197435518,149.0,897.0
G,D,"[2, 2]",1.0,4.0,0.3242988586425781,1.8177180290222168,0.48894400770524343,149.0,898.0
Y,R,"[2, 3]",1.0,5.0,0.30262303352355957,1.7615699768066406,0.4506598749747171,149.0,899.0
B,L,"[2, 2]",1.0,6.0,0.4219851493835449,1.8279321193695068,0.3945330575613751,149.0,900.0
,,"(3, 3)",,,,,,149.0,
R,U,"[2, 3]",1.0,1.0,0.44474101066589355,2.856476068496704,0.617932239149055,,901.0
B,L,"[2, 2]",1.0,2.0,0.24053192138671875,1.5507831573486328,0.30246047471732745,150.0,902.0
R,U,"[1, 2]",1.0,3.0,0.301555871963501,1.9167389869689941,0.6186171649852812,150.0,903.0
G,D,"[2, 2]",1.0,4.0,0.250809907913208,1.7994279861450195,0.5348915758659405,150.0,904.0
Y,R,"[2, 3]",1.0,5.0,0.16276121139526367,1.8167579174041748,0.6514379551973591,150.0,905.0
B,L,"[2, 2]",1.0,6.0,0.21396088600158691,1.9329850673675537,0.7175593647435177,150.0,906.0
,,"(3, 3)",,,,,,150.0,
R,U,"[2, 3]",1.0,1.0,0.7795360088348389,3.3562541007995605,0.7405271021178543,,907.0
B,L,"[2, 2]",1.0,2.0,0.2586948871612549,1.6839919090270996,0.4247065022066915,151.0,908.0
R,U,"[1, 2]",1.0,3.0,0.5973808765411377,1.8872289657592773,0.29530073688452374,151.0,909.0
G,D,"[2, 2]",1.0,4.0,0.45992493629455566,1.861739158630371,0.40692707822932345,151.0,910.0
Y,R,"[2, 3]",1.0,5.0,0.5192840099334717,2.136673927307129,0.6101902794418064,151.0,911.0
B,L,"[2, 2]",1.0,6.0,0.384904146194458,1.7992188930511475,0.4093790107913688,151.0,912.0
,,"(3, 3)",,,,,,151.0,
R,U,"[2, 3]",1.0,1.0,0.7314808368682861,2.8453400135040283,0.27146399740156824,,913.0
B,L,"[2, 2]",1.0,2.0,0.43390798568725586,1.8797719478607178,0.4343621185063659,152.0,914.0
R,U,"[1, 2]",1.0,3.0,0.30750513076782227,1.9376471042633057,0.6218177027043931,152.0,915.0
G,D,"[2, 2]",1.0,4.0,0.2721261978149414,1.6231060028076172,0.34506324990590076,152.0,916.0
Y,R,"[2, 3]",1.0,5.0,0.3024170398712158,1.8813281059265137,0.5928040900828755,152.0,917.0
B,L,"[2, 2]",1.0,6.0,0.23367094993591309,1.5038001537322998,0.2636435417900119,152.0,918.0
,,"(3, 3)",,,,,,152.0,
R,U,"[2, 3]",1.0,1.0,0.5640759468078613,2.817760944366455,0.6474607516273291,,919.0
B,L,"[2, 2]",1.0,2.0,0.23191404342651367,1.6653029918670654,0.4296970086551895,153.0,920.0
R,U,"[1, 2]",1.0,3.0,0.3749680519104004,1.9808149337768555,0.5935192853908628,153.0,921.0
G,D,"[2, 2]",1.0,4.0,0.23617005348205566,1.8184490203857422,0.5786612777209128,153.0,922.0
Y,R,"[2, 3]",1.0,5.0,0.22660493850708008,1.952035903930664,0.7306642420889804,153.0,923.0
B,L,"[2, 2]",1.0,6.0,0.3009378910064697,1.5919530391693115,0.2727157328136157,153.0,924.0
,,"(3, 3)",,,,,,153.0,
R,U,"[2, 3]",1.0,1.0,0.5132009983062744,2.9140408039093018,0.6030522492467165,,925.0
B,L,"[2, 2]",1.0,2.0,0.49782609939575195,2.0474629402160645,0.5506441489722265,154.0,926.0
R,U,"[1, 2]",1.0,3.0,0.36884093284606934,1.8922598361968994,0.5096253259167043,154.0,927.0
G,D,"[2, 2]",1.0,4.0,0.685513973236084,2.25974702835083,0.5690795018510261,154.0,928.0
Y,R,"[2, 3]",1.0,5.0,0.32184505462646484,1.9092941284179688,0.5949329668104867,154.0,929.0
B,L,"[2, 2]",1.0,6.0,0.2876911163330078,1.7867729663848877,0.49844271399416257,154.0,930.0
,,"(3, 3)",,,,,,154.0,
R,U,"[2, 3]",1.0,1.0,0.6934819221496582,3.288907051086426,0.6872560320035861,,931.0
B,L,"[2, 2]",1.0,2.0,0.18033218383789062,1.8829100131988525,0.7033335792881417,155.0,932.0
R,U,"[1, 2]",1.0,3.0,0.317274808883667,1.6018040180206299,0.2887871077736762,155.0,933.0
G,D,"[2, 2]",1.0,4.0,0.6579961776733398,2.278961181640625,0.6174967754039087,155.0,934.0
Y,R,"[2, 3]",1.0,5.0,0.2165520191192627,1.4920859336853027,0.25968303250058283,155.0,935.0
B,L,"[2, 2]",1.0,6.0,0.6291429996490479,2.2975339889526367,0.6731972143981961,155.0,936.0
,,"(3, 3)",,,,,,155.0,
R,U,"[2, 3]",1.0,1.0,0.5949759483337402,3.1462039947509766,0.5363540950310328,,937.0
B,L,"[2, 2]",1.0,2.0,0.2543931007385254,1.632322072982788,0.3851717531775584,156.0,938.0
R,U,"[1, 2]",1.0,3.0,0.23075008392333984,1.682422161102295,0.4508961882779651,156.0,939.0
G,D,"[2, 2]",1.0,4.0,0.24042010307312012,1.7452731132507324,0.49596607621476535,156.0,940.0
Y,R,"[2, 3]",1.0,5.0,0.32535600662231445,2.0776679515838623,0.7406200171522228,156.0,941.0
B,L,"[2, 2]",1.0,6.0,0.2837982177734375,1.555837869644165,0.26308465126496733,156.0,942.0
,,"(3, 3)",,,,,,156.0,
R,U,"[2, 3]",1.0,1.0,0.6529390811920166,7.62381911277771,0.6696062611672473,,943.0
B,L,"[2, 2]",1.0,2.0,0.22950387001037598,1.8513870239257812,0.6207597716057858,157.0,944.0
R,U,"[1, 2]",1.0,3.0,0.20923113822937012,1.7997031211853027,0.5871740659455225,157.0,945.0
G,D,"[2, 2]",1.0,4.0,0.3361649513244629,1.8635740280151367,0.5172905787239551,157.0,946.0
Y,R,"[2, 3]",1.0,5.0,0.3086531162261963,1.779435157775879,0.46329671478934914,157.0,947.0
B,L,"[2, 2]",1.0,6.0,0.25012683868408203,1.8593981266021729,0.5892605410019002,157.0,948.0
,,"(3, 3)",,,,,,157.0,
R,U,"[2, 3]",1.0,1.0,0.7265839576721191,2.634321928024292,0.506842395130028,,949.0
B,L,"[2, 2]",1.0,2.0,0.28269100189208984,1.8610789775848389,0.5511845896503018,158.0,950.0
R,U,"[1, 2]",1.0,3.0,0.27912187576293945,1.9997780323028564,0.7172419390065353,158.0,951.0
G,D,"[2, 2]",1.0,4.0,0.2073221206665039,1.7060999870300293,0.4904758859201539,158.0,952.0
Y,R,"[2, 3]",1.0,5.0,0.22993898391723633,1.5288639068603516,0.3024632128732517,158.0,953.0
B,L,"[2, 2]",1.0,6.0,0.49054598808288574,2.181321144104004,0.683411311228628,158.0,954.0
,,"(3, 3)",,,,,,158.0,
R,U,"[2, 3]",1.0,1.0,0.8534069061279297,3.2250471115112305,0.724961956246039,,955.0
B,L,"[2, 2]",1.0,2.0,0.21147513389587402,1.634572982788086,0.42633562210656,159.0,956.0
R,U,"[1, 2]",1.0,3.0,0.2481250762939453,1.5934371948242188,0.31996125044077606,159.0,957.0
G,D,"[2, 2]",1.0,4.0,0.42711901664733887,1.7910380363464355,0.36092782962706754,159.0,958.0
Y,R,"[2, 3]",1.0,5.0,0.3537299633026123,1.7706079483032227,0.4147120386917149,159.0,959.0
B,L,"[2, 2]",1.0,6.0,0.346480131149292,2.0806288719177246,0.7281333379196862,159.0,960.0
,,"(3, 3)",,,,,,159.0,
R,U,"[2, 3]",1.0,1.0,0.7968249320983887,2.9240188598632812,0.5690956267146519,,961.0
B,L,"[2, 2]",1.0,2.0,0.2015390396118164,1.7794950008392334,0.565094517699206,160.0,962.0
R,U,"[1, 2]",1.0,3.0,0.2260129451751709,1.611253023147583,0.37661332507819445,160.0,963.0
G,D,"[2, 2]",1.0,4.0,0.35094213485717773,1.889798879623413,0.5329523784889912,160.0,964.0
Y,R,"[2, 3]",1.0,5.0,0.2060999870300293,1.4779410362243652,0.26074094340539256,160.0,965.0
B,L,"[2, 2]",1.0,6.0,0.6131999492645264,1.9118280410766602,0.3057834848564811,160.0,966.0
,,"(3, 3)",,,,,,160.0,
R,U,"[2, 3]",1.0,1.0,0.5883679389953613,2.6981680393218994,0.6368931856594855,,967.0
B,L,"[2, 2]",-1.0,1.0,0.05687713623046875,5.679363965988159,0.4994618340141506,161.0,968.0
R,U,"[1, 2]",1.0,2.0,0.2613341808319092,1.9195489883422852,0.6521934948297292,161.0,969.0
G,D,"[2, 2]",1.0,3.0,0.25737905502319336,1.7677011489868164,0.5033688347715286,161.0,970.0
Y,R,"[2, 3]",1.0,4.0,0.36067795753479004,1.8936281204223633,0.5303568322414698,161.0,971.0
B,L,"[2, 2]",1.0,5.0,0.31267499923706055,2.069164991378784,0.7492184336253618,161.0,972.0
,,"(3, 3)",,,,,,161.0,
R,U,"[2, 3]",1.0,1.0,0.6011130809783936,2.4600131511688232,0.2593614410984673,,973.0
B,L,"[2, 2]",1.0,2.0,0.31288695335388184,1.9923861026763916,0.6845784721411141,162.0,974.0
R,U,"[1, 2]",1.0,3.0,0.23496389389038086,1.893280029296875,0.6446254515982861,162.0,975.0
G,D,"[2, 2]",1.0,4.0,0.2385239601135254,1.7841241359710693,0.5453047415201983,162.0,976.0
Y,R,"[2, 3]",1.0,5.0,0.33828091621398926,1.588474988937378,0.2506798143912236,162.0,977.0
B,L,"[2, 2]",1.0,6.0,0.4021129608154297,1.7512149810791016,0.33514069958909304,162.0,978.0
,,"(3, 3)",,,,,,162.0,
R,U,"[2, 3]",1.0,1.0,0.501978874206543,2.627562999725342,0.7121146116420545,,979.0
B,L,"[2, 2]",1.0,2.0,0.2530479431152344,2.015963077545166,0.7281102970969293,163.0,980.0
R,U,"[1, 2]",1.0,3.0,0.2616689205169678,1.8605880737304688,0.6052929823643639,163.0,981.0
G,D,"[2, 2]",1.0,4.0,0.17302799224853516,1.8029379844665527,0.6251267053278838,163.0,982.0
Y,R,"[2, 3]",1.0,5.0,0.3220078945159912,1.854935884475708,0.5299752975521769,163.0,983.0
B,L,"[2, 2]",1.0,6.0,0.27938008308410645,1.911881923675537,0.6250388919345669,163.0,984.0
,,"(3, 3)",,,,,,163.0,
R,U,"[2, 3]",1.0,1.0,0.6954770088195801,2.864837169647217,0.589559591987293,,985.0
B,L,"[2, 2]",1.0,2.0,0.26451587677001953,1.9973831176757812,0.7367014306572277,164.0,986.0
R,U,"[1, 2]",1.0,3.0,0.21960997581481934,1.7838671207427979,0.5542454472835316,164.0,987.0
G,D,"[2, 2]",1.0,4.0,0.25414085388183594,1.5766079425811768,0.3143071986294795,164.0,988.0
Y,R,"[2, 3]",1.0,5.0,0.43003201484680176,2.1480538845062256,0.7118753960549901,164.0,989.0
B,L,"[2, 2]",1.0,6.0,0.23765897750854492,1.8312230110168457,0.6098387568923966,164.0,990.0
,,"(3, 3)",,,,,,164.0,
R,U,"[2, 3]",1.0,1.0,0.6304469108581543,2.4923348426818848,0.3357469353349946,,991.0
B,L,"[2, 2]",1.0,2.0,0.27918291091918945,1.7324199676513672,0.4510971577076459,165.0,992.0
R,U,"[1, 2]",1.0,3.0,0.2356710433959961,1.7742209434509277,0.5253274549242202,165.0,993.0
G,D,"[2, 2]",1.0,4.0,0.2559850215911865,1.866231918334961,0.6245670068828908,165.0,994.0
Y,R,"[2, 3]",1.0,5.0,0.21430492401123047,1.789438009262085,0.5807268500044651,165.0,995.0
G,D,"[3, 3]",-2.0,3.0,0.35930800437927246,1.7676348686218262,0.39836592034353735,165.0,996.0
,,"(3, 3)",,,,,,165.0,
R,U,"[2, 3]",1.0,1.0,0.4630410671234131,3.1890318393707275,0.7037367785946665,,997.0
B,L,"[2, 2]",1.0,2.0,0.1864001750946045,1.8039820194244385,0.6243914796753325,166.0,998.0
R,U,"[1, 2]",1.0,3.0,0.22130680084228516,1.934912919998169,0.7093605568382158,166.0,999.0
G,D,"[2, 2]",1.0,4.0,0.20792102813720703,1.775256872177124,0.567706969329578,166.0,1000.0
R,U,"[1, 2]",1.0,5.0,0.3818540573120117,1.7430319786071777,0.36101284522924554,166.0,1001.0
B,L,"[1, 1]",1.0,6.0,0.3941078186035156,1.8203442096710205,0.43129004758036915,166.0,1002.0
,,"(3, 3)",,,,,,166.0,
G,D,"[4, 3]",-1.0,-1.0,0.8639528751373291,3.2204349040985107,0.45149459958202837,,1003.0
B,L,"[4, 2]",-1.0,-2.0,0.4399991035461426,2.143017053604126,0.6940472193624068,167.0,1004.0
R,U,"[3, 2]",-1.0,-3.0,0.37161803245544434,1.8728909492492676,0.5004352460737767,167.0,1005.0
Y,R,"[3, 3]",-2.0,-5.0,0.48946213722229004,1.8833317756652832,0.3840973012908963,167.0,1006.0
Y,R,"[3, 4]",-1.0,-6.0,0.2429800033569336,1.6637299060821533,0.4142246506811281,167.0,1007.0
B,L,"[3, 3]",-2.0,-8.0,0.2751929759979248,1.9691579341888428,0.6831163207865265,167.0,1008.0
,,"(3, 3)",,,,,,167.0,
R,U,"[2, 3]",1.0,1.0,0.7240581512451172,2.711811065673828,0.5450177744699087,,1009.0
B,L,"[2, 2]",1.0,2.0,0.2955350875854492,1.7714221477508545,0.4828450129773121,168.0,1010.0
R,U,"[1, 2]",1.0,3.0,0.22311091423034668,1.6997969150543213,0.4659827660628875,168.0,1011.0
G,D,"[2, 2]",1.0,4.0,0.31615710258483887,1.6633720397949219,0.34610115254911994,168.0,1012.0
Y,R,"[2, 3]",1.0,5.0,0.2555351257324219,1.770334005355835,0.4994878056125692,168.0,1013.0
B,L,"[2, 2]",1.0,6.0,0.2577950954437256,1.775745153427124,0.5085700372593644,168.0,1014.0
,,"(3, 3)",,,,,,168.0,
R,U,"[2, 3]",1.0,1.0,0.488847017288208,2.3410980701446533,0.3830581752011622,,1015.0
B,L,"[2, 2]",1.0,2.0,0.25612902641296387,1.7757461071014404,0.5086404839321672,169.0,1016.0
R,U,"[1, 2]",1.0,3.0,0.11240100860595703,1.480376958847046,0.3723443474414642,169.0,1017.0
G,D,"[2, 2]",1.0,4.0,0.2571699619293213,1.635155200958252,0.37432192102490797,169.0,1018.0
Y,R,"[2, 3]",-1.0,4.0,0.07525801658630371,5.937808036804199,0.7279899741902037,169.0,1019.0
B,L,"[2, 2]",1.0,5.0,0.41327786445617676,2.092272996902466,0.6869660176200105,169.0,1020.0
,,"(3, 3)",,,,,,169.0,
R,U,"[2, 3]",1.0,1.0,0.6963541507720947,2.7288482189178467,0.6157212139683772,,1021.0
B,L,"[2, 2]",1.0,2.0,0.19774484634399414,1.700958013534546,0.5004639287251131,170.0,1022.0
R,U,"[1, 2]",1.0,3.0,0.32289910316467285,1.938601016998291,0.605433670993788,170.0,1023.0
G,D,"[2, 2]",1.0,4.0,0.2786679267883301,1.6406888961791992,0.3627512425050244,170.0,1024.0
Y,R,"[2, 3]",1.0,5.0,0.2503468990325928,1.8842620849609375,0.6134190965446751,170.0,1025.0
B,L,"[2, 2]",1.0,6.0,0.2801070213317871,1.7712891101837158,0.48476686029421395,170.0,1026.0
,,"(3, 3)",,,,,,170.0,
R,U,"[2, 3]",1.0,1.0,0.7691769599914551,3.1252810955047607,0.49326694183296454,,1027.0
B,L,"[2, 2]",1.0,2.0,0.3245558738708496,1.9513211250305176,0.627513210181741,171.0,1028.0
R,U,"[1, 2]",1.0,3.0,0.2615349292755127,1.6609930992126465,0.40549060990308655,171.0,1029.0
G,D,"[2, 2]",1.0,4.0,0.35607218742370605,1.7598581314086914,0.39872703715064306,171.0,1030.0
Y,R,"[2, 3]",1.0,5.0,0.23531579971313477,1.9559919834136963,0.7043678963907729,171.0,1031.0
B,L,"[2, 2]",1.0,6.0,0.18518590927124023,1.658088207244873,0.46256567221163547,171.0,1032.0
,,"(3, 3)",,,,,,171.0,
R,U,"[2, 3]",1.0,1.0,0.643179178237915,2.4582910537719727,0.45405146743593644,,1033.0
B,L,"[2, 2]",1.0,2.0,0.26239514350891113,1.9510631561279297,0.6881211690945643,172.0,1034.0
R,U,"[1, 2]",1.0,3.0,0.22935104370117188,1.4971048831939697,0.2689317707811341,172.0,1035.0
G,D,"[2, 2]",1.0,4.0,0.26151609420776367,1.6230268478393555,0.3585528244314405,172.0,1036.0
Y,R,"[2, 3]",1.0,5.0,0.2546730041503906,1.7028419971466064,0.44452102293612583,172.0,1037.0
G,D,"[3, 3]",-2.0,3.0,0.36467409133911133,1.9502930641174316,0.5946077708684043,172.0,1038.0
,,"(3, 3)",,,,,,172.0,
R,U,"[2, 3]",1.0,1.0,0.7397849559783936,2.710175037384033,0.4879881501672747,,1039.0
B,L,"[2, 2]",1.0,2.0,0.36084413528442383,1.7429540157318115,0.3810314943523041,173.0,1040.0
R,U,"[1, 2]",1.0,3.0,0.25536203384399414,1.8893420696258545,0.6200363846494271,173.0,1041.0
G,D,"[2, 2]",1.0,4.0,0.14281201362609863,1.4338231086730957,0.28742551854748366,173.0,1042.0
Y,R,"[2, 3]",1.0,5.0,0.2781369686126709,1.6681301593780518,0.3886953000100068,173.0,1043.0
B,L,"[2, 2]",1.0,6.0,0.18544888496398926,1.5363469123840332,0.358436579868399,173.0,1044.0
,,"(3, 3)",,,,,,173.0,
R,U,"[2, 3]",1.0,1.0,0.7424600124359131,2.4041008949279785,0.312376679051448,,1045.0
B,L,"[2, 2]",1.0,2.0,0.22405600547790527,1.5745048522949219,0.3536070101826523,174.0,1046.0
R,U,"[1, 2]",1.0,3.0,0.18972301483154297,1.4495389461517334,0.2531069515771412,174.0,1047.0
G,D,"[2, 2]",1.0,4.0,0.3196868896484375,1.9143140316009521,0.5839945265628071,174.0,1048.0
Y,R,"[2, 3]",1.0,5.0,0.20595693588256836,1.7167887687683105,0.5006045943589215,174.0,1049.0
B,L,"[2, 2]",-1.0,5.0,0.03457903861999512,5.862030982971191,0.6955235629114831,174.0,1050.0
,,"(3, 3)",,,,,,174.0,
R,U,"[2, 3]",1.0,1.0,0.4891228675842285,2.9516069889068604,0.7138762271528807,,1051.0
B,L,"[2, 2]",-1.0,1.0,0.014607906341552734,5.6375648975372314,0.48451895569916464,175.0,1052.0
R,U,"[1, 2]",1.0,2.0,0.24813103675842285,1.9275939464569092,0.6786850141577732,175.0,1053.0
Y,R,"[1, 3]",-1.0,1.0,0.6627860069274902,2.1741199493408203,0.502970276453393,175.0,1054.0
Y,R,"[1, 4]",-1.0,0.0,0.3332228660583496,1.6572768688201904,0.32684982274490393,175.0,1055.0
B,L,"[1, 3]",-1.0,-1.0,0.502971887588501,1.9436290264129639,0.436845145532844,175.0,1056.0
,,"(3, 3)",,,,,,175.0,
R,U,"[2, 3]",1.0,1.0,0.9017739295959473,3.749561071395874,0.46969829757957005,,1057.0
B,L,"[2, 2]",1.0,2.0,0.2309720516204834,1.7843689918518066,0.5538704320280008,176.0,1058.0
R,U,"[1, 2]",1.0,3.0,0.2555348873138428,1.7107820510864258,0.447954458572181,176.0,1059.0
G,D,"[2, 2]",1.0,4.0,0.13547492027282715,1.8056907653808594,0.6705578437687256,176.0,1060.0
Y,R,"[2, 3]",1.0,5.0,0.20784497261047363,1.7083899974822998,0.4953275823080856,176.0,1061.0
B,L,"[2, 2]",1.0,6.0,0.20679593086242676,1.9061250686645508,0.7012617924118887,176.0,1062.0
,,"(3, 3)",,,,,,176.0,
R,U,"[2, 3]",1.0,1.0,0.8664097785949707,3.580202102661133,0.6811758983422369,,1063.0
B,L,"[2, 2]",1.0,2.0,0.2978858947753906,1.7460169792175293,0.4107252758469734,177.0,1064.0
R,U,"[1, 2]",1.0,3.0,0.4803431034088135,1.9781827926635742,0.5053077730851456,177.0,1065.0
G,D,"[2, 2]",1.0,4.0,0.9519929885864258,2.3135879039764404,0.3525485261652289,177.0,1066.0
Y,R,"[2, 3]",1.0,5.0,0.37543416023254395,1.6591918468475342,0.2784601301839272,177.0,1067.0
B,L,"[2, 2]",1.0,6.0,0.3804469108581543,1.7379670143127441,0.3663674827254585,177.0,1068.0
,,"(3, 3)",,,,,,177.0,
R,U,"[2, 3]",1.0,1.0,0.5974059104919434,2.600783109664917,0.5167807330888268,,1069.0
B,L,"[2, 2]",1.0,2.0,0.24828195571899414,1.7022531032562256,0.4524763775770376,178.0,1070.0
R,U,"[1, 2]",1.0,3.0,0.19930815696716309,1.4981560707092285,0.30048852516297364,178.0,1071.0
G,D,"[2, 2]",1.0,4.0,0.19525504112243652,1.8891849517822266,0.6894658029577918,178.0,1072.0
Y,R,"[2, 3]",1.0,5.0,0.19082880020141602,1.514822006225586,0.32124680256918886,178.0,1073.0
B,L,"[2, 2]",1.0,6.0,0.23235201835632324,1.8995840549468994,0.6371391677581473,178.0,1074.0
,,"(3, 3)",,,,,,178.0,
R,U,"[2, 3]",1.0,1.0,0.5884220600128174,2.7241079807281494,0.6781615120420972,,1075.0
B,L,"[2, 2]",1.0,2.0,0.25736284255981445,1.6707451343536377,0.41520810292077376,179.0,1076.0
